choose_trial,key_resp.keys,key_resp.rt,key_resp_4.keys,key_resp_4.rt,session_trait,slider_face_judge.response,slider_face_judge.rt,key_resp_3.keys,key_resp_3.rt,face_loop.thisRepN,face_loop.thisTrialN,face_loop.thisN,face_loop.thisIndex,face_loop.ran,face_serial,image_name,isCheck,answer,check_question,participant,session,date,expName,psychopyVersion,OS,frameRate,SONAid,session.thisRepN,session.thisTrialN,session.thisN,session.thisIndex,session.ran,session_serial,slider_judge_img
"[0,1,2,3,4,5,6,7,8,9,10,11,12,13,14,15,16,17,18,19,20,21,22,23,24,25,26,27,28,29,30,31,32,33,34,35,36,37,38,39,40,41,42,43,44,45,46,47,48,49,58,59,53]",space,5.363,space,6.1515,competent,5.888888889,6.5169,space,1.2824,0,0,0,20,1,21,image/21.jpg,0,0,,R_1QYUgALf2MKc3vp,2,2024-05-09_12h33.12.544,face trait task,2021.2.3,Win32,60.97560976,120802,,,,,,,
,,,,,,5.233333333,5.1283,space,0.6778,0,1,1,18,1,19,image/19.jpg,0,0,,R_1QYUgALf2MKc3vp,2,2024-05-09_12h33.12.544,face trait task,2021.2.3,Win32,60.97560976,120802,,,,,,,
,,,,,,7,8.5172,space,1.4105,0,2,2,51,1,60,image/fill_img.png,1,7,Please move the slider all the way to the RIGHT to show that you are paying attention.,R_1QYUgALf2MKc3vp,2,2024-05-09_12h33.12.544,face trait task,2021.2.3,Win32,60.97560976,120802,,,,,,,
,,,,,,6.038888889,4.9931,space,0.8026,0,3,3,22,1,23,image/23.jpg,0,0,,R_1QYUgALf2MKc3vp,2,2024-05-09_12h33.12.544,face trait task,2021.2.3,Win32,60.97560976,120802,,,,,,,
,,,,,,4.994444444,3.552,space,0.9541,0,4,4,1,1,2,image/2.jpg,0,0,,R_1QYUgALf2MKc3vp,2,2024-05-09_12h33.12.544,face trait task,2021.2.3,Win32,60.97560976,120802,,,,,,,
,,,,,,5.544444444,4.5045,space,1.321,0,5,5,21,1,22,image/22.jpg,0,0,,R_1QYUgALf2MKc3vp,2,2024-05-09_12h33.12.544,face trait task,2021.2.3,Win32,60.97560976,120802,,,,,,,
,,,,,,4.483333333,4.2271,space,0.6108,0,6,6,25,1,26,image/26.jpg,0,0,,R_1QYUgALf2MKc3vp,2,2024-05-09_12h33.12.544,face trait task,2021.2.3,Win32,60.97560976,120802,,,,,,,
,,,,,,5.988888889,4.111,space,0.4951,0,7,7,23,1,24,image/24.jpg,0,0,,R_1QYUgALf2MKc3vp,2,2024-05-09_12h33.12.544,face trait task,2021.2.3,Win32,60.97560976,120802,,,,,,,
,,,,,,4.533333333,4.1372,space,0.9049,0,8,8,27,1,28,image/28.jpg,0,0,,R_1QYUgALf2MKc3vp,2,2024-05-09_12h33.12.544,face trait task,2021.2.3,Win32,60.97560976,120802,,,,,,,
,,,,,,4.5,4.5209,space,0.512,0,9,9,34,1,35,image/35.jpg,0,0,,R_1QYUgALf2MKc3vp,2,2024-05-09_12h33.12.544,face trait task,2021.2.3,Win32,60.97560976,120802,,,,,,,
,,,,,,5.583333333,4.1091,space,1.2366,0,10,10,2,1,3,image/3.jpg,0,0,,R_1QYUgALf2MKc3vp,2,2024-05-09_12h33.12.544,face trait task,2021.2.3,Win32,60.97560976,120802,,,,,,,
,,,,,,3.972222222,3.2461,space,0.4437,0,11,11,41,1,42,image/42.jpg,0,0,,R_1QYUgALf2MKc3vp,2,2024-05-09_12h33.12.544,face trait task,2021.2.3,Win32,60.97560976,120802,,,,,,,
,,,,,,3.811111111,2.8824,space,0.9197,0,12,12,43,1,44,image/44.jpg,0,0,,R_1QYUgALf2MKc3vp,2,2024-05-09_12h33.12.544,face trait task,2021.2.3,Win32,60.97560976,120802,,,,,,,
,,,,,,3.244444444,4.3917,space,0.3696,0,13,13,31,1,32,image/32.jpg,0,0,,R_1QYUgALf2MKc3vp,2,2024-05-09_12h33.12.544,face trait task,2021.2.3,Win32,60.97560976,120802,,,,,,,
,,,,,,2.938888889,2.74,space,0.8048,0,14,14,45,1,46,image/46.jpg,0,0,,R_1QYUgALf2MKc3vp,2,2024-05-09_12h33.12.544,face trait task,2021.2.3,Win32,60.97560976,120802,,,,,,,
,,,,,,4.95,2.1337,space,1.0242,0,15,15,17,1,18,image/18.jpg,0,0,,R_1QYUgALf2MKc3vp,2,2024-05-09_12h33.12.544,face trait task,2021.2.3,Win32,60.97560976,120802,,,,,,,
,,,,,,3.988888889,2.8239,space,0.363,0,16,16,42,1,43,image/43.jpg,0,0,,R_1QYUgALf2MKc3vp,2,2024-05-09_12h33.12.544,face trait task,2021.2.3,Win32,60.97560976,120802,,,,,,,
,,,,,,3.822222222,2.1063,space,0.8728,0,17,17,44,1,45,image/45.jpg,0,0,,R_1QYUgALf2MKc3vp,2,2024-05-09_12h33.12.544,face trait task,2021.2.3,Win32,60.97560976,120802,,,,,,,
,,,,,,5.266666667,2.4347,space,0.4081,0,18,18,35,1,36,image/36.jpg,0,0,,R_1QYUgALf2MKc3vp,2,2024-05-09_12h33.12.544,face trait task,2021.2.3,Win32,60.97560976,120802,,,,,,,
,,,,,,4.794444444,2.2848,space,1.0267,0,19,19,9,1,10,image/10.jpg,0,0,,R_1QYUgALf2MKc3vp,2,2024-05-09_12h33.12.544,face trait task,2021.2.3,Win32,60.97560976,120802,,,,,,,
,,,,,,4.083333333,1.7874,space,0.6341,0,20,20,26,1,27,image/27.jpg,0,0,,R_1QYUgALf2MKc3vp,2,2024-05-09_12h33.12.544,face trait task,2021.2.3,Win32,60.97560976,120802,,,,,,,
,,,,,,5.055555556,3.7198,space,1.2048,0,21,21,4,1,5,image/5.jpg,0,0,,R_1QYUgALf2MKc3vp,2,2024-05-09_12h33.12.544,face trait task,2021.2.3,Win32,60.97560976,120802,,,,,,,
,,,,,,6.55,3.5776,space,0.2693,0,22,22,11,1,12,image/12.jpg,0,0,,R_1QYUgALf2MKc3vp,2,2024-05-09_12h33.12.544,face trait task,2021.2.3,Win32,60.97560976,120802,,,,,,,
,,,,,,5.55,3.2681,space,0.283,0,23,23,12,1,13,image/13.jpg,0,0,,R_1QYUgALf2MKc3vp,2,2024-05-09_12h33.12.544,face trait task,2021.2.3,Win32,60.97560976,120802,,,,,,,
,,,,,,5.855555556,2.0847,space,0.7902,0,24,24,3,1,4,image/4.jpg,0,0,,R_1QYUgALf2MKc3vp,2,2024-05-09_12h33.12.544,face trait task,2021.2.3,Win32,60.97560976,120802,,,,,,,
,,,,,,3.194444444,2.9589,space,1.2146,0,25,25,30,1,31,image/31.jpg,0,0,,R_1QYUgALf2MKc3vp,2,2024-05-09_12h33.12.544,face trait task,2021.2.3,Win32,60.97560976,120802,,,,,,,
,,,,,,4.944444444,2.2851,space,0.2832,0,26,26,39,1,40,image/40.jpg,0,0,,R_1QYUgALf2MKc3vp,2,2024-05-09_12h33.12.544,face trait task,2021.2.3,Win32,60.97560976,120802,,,,,,,
,,,,,,4.461111111,4.241,space,0.2779,0,27,27,48,1,49,image/49.jpg,0,0,,R_1QYUgALf2MKc3vp,2,2024-05-09_12h33.12.544,face trait task,2021.2.3,Win32,60.97560976,120802,,,,,,,
,,,,,,4.472222222,3.1639,space,0.4683,0,28,28,38,1,39,image/39.jpg,0,0,,R_1QYUgALf2MKc3vp,2,2024-05-09_12h33.12.544,face trait task,2021.2.3,Win32,60.97560976,120802,,,,,,,
,,,,,,1,2.8259,space,1.509,0,29,29,52,1,54,image/fill_img.png,1,1,Please move the slider all the way to the LEFT to show that you are paying attention.,R_1QYUgALf2MKc3vp,2,2024-05-09_12h33.12.544,face trait task,2021.2.3,Win32,60.97560976,120802,,,,,,,
,,,,,,5.127777778,5.1983,space,0.2341,0,30,30,19,1,20,image/20.jpg,0,0,,R_1QYUgALf2MKc3vp,2,2024-05-09_12h33.12.544,face trait task,2021.2.3,Win32,60.97560976,120802,,,,,,,
,,,,,,4.85,2.5895,space,0.2143,0,31,31,47,1,48,image/48.jpg,0,0,,R_1QYUgALf2MKc3vp,2,2024-05-09_12h33.12.544,face trait task,2021.2.3,Win32,60.97560976,120802,,,,,,,
,,,,,,6.038888889,2.1364,space,0.2752,0,32,32,7,1,8,image/8.jpg,0,0,,R_1QYUgALf2MKc3vp,2,2024-05-09_12h33.12.544,face trait task,2021.2.3,Win32,60.97560976,120802,,,,,,,
,,,,,,3.722222222,2.138,space,1.0129,0,33,33,40,1,41,image/41.jpg,0,0,,R_1QYUgALf2MKc3vp,2,2024-05-09_12h33.12.544,face trait task,2021.2.3,Win32,60.97560976,120802,,,,,,,
,,,,,,4.561111111,1.9618,space,0.5855,0,34,34,32,1,33,image/33.jpg,0,0,,R_1QYUgALf2MKc3vp,2,2024-05-09_12h33.12.544,face trait task,2021.2.3,Win32,60.97560976,120802,,,,,,,
,,,,,,4.461111111,3.3642,space,0.3567,0,35,35,8,1,9,image/9.jpg,0,0,,R_1QYUgALf2MKc3vp,2,2024-05-09_12h33.12.544,face trait task,2021.2.3,Win32,60.97560976,120802,,,,,,,
,,,,,,3.977777778,2.6057,space,0.3388,0,36,36,33,1,34,image/34.jpg,0,0,,R_1QYUgALf2MKc3vp,2,2024-05-09_12h33.12.544,face trait task,2021.2.3,Win32,60.97560976,120802,,,,,,,
,,,,,,5.844444444,2.6774,space,0.3599,0,37,37,49,1,50,image/50.jpg,0,0,,R_1QYUgALf2MKc3vp,2,2024-05-09_12h33.12.544,face trait task,2021.2.3,Win32,60.97560976,120802,,,,,,,
,,,,,,5.194444444,2.5005,space,0.4564,0,38,38,13,1,14,image/14.jpg,0,0,,R_1QYUgALf2MKc3vp,2,2024-05-09_12h33.12.544,face trait task,2021.2.3,Win32,60.97560976,120802,,,,,,,
,,,,,,3.488888889,2.8412,space,0.7754,0,39,39,29,1,30,image/30.jpg,0,0,,R_1QYUgALf2MKc3vp,2,2024-05-09_12h33.12.544,face trait task,2021.2.3,Win32,60.97560976,120802,,,,,,,
,,,,,,3.427777778,1.9183,space,0.5454,0,40,40,28,1,29,image/29.jpg,0,0,,R_1QYUgALf2MKc3vp,2,2024-05-09_12h33.12.544,face trait task,2021.2.3,Win32,60.97560976,120802,,,,,,,
,,,,,,4.85,2.7193,space,0.301,0,41,41,37,1,38,image/38.jpg,0,0,,R_1QYUgALf2MKc3vp,2,2024-05-09_12h33.12.544,face trait task,2021.2.3,Win32,60.97560976,120802,,,,,,,
,,,,,,5.316666667,4.3386,space,0.2856,0,42,42,5,1,6,image/6.jpg,0,0,,R_1QYUgALf2MKc3vp,2,2024-05-09_12h33.12.544,face trait task,2021.2.3,Win32,60.97560976,120802,,,,,,,
,,,,,,5.133333333,3.1486,space,0.3197,0,43,43,0,1,1,image/1.jpg,0,0,,R_1QYUgALf2MKc3vp,2,2024-05-09_12h33.12.544,face trait task,2021.2.3,Win32,60.97560976,120802,,,,,,,
,,,,,,4.183333333,3.1088,space,1.871,0,44,44,16,1,17,image/17.jpg,0,0,,R_1QYUgALf2MKc3vp,2,2024-05-09_12h33.12.544,face trait task,2021.2.3,Win32,60.97560976,120802,,,,,,,
,,,,,,3.338888889,3.5752,space,0.8637,0,45,45,36,1,37,image/37.jpg,0,0,,R_1QYUgALf2MKc3vp,2,2024-05-09_12h33.12.544,face trait task,2021.2.3,Win32,60.97560976,120802,,,,,,,
,,,,,,5.816666667,3.0718,space,0.1522,0,46,46,14,1,15,image/15.jpg,0,0,,R_1QYUgALf2MKc3vp,2,2024-05-09_12h33.12.544,face trait task,2021.2.3,Win32,60.97560976,120802,,,,,,,
,,,,,,7,3.0828,space,0.6793,0,47,47,50,1,59,image/fill_img.png,1,7,Please move the slider all the way to the RIGHT to show that you are paying attention.,R_1QYUgALf2MKc3vp,2,2024-05-09_12h33.12.544,face trait task,2021.2.3,Win32,60.97560976,120802,,,,,,,
,,,,,,5.016666667,5.3678,space,1.1643,0,48,48,15,1,16,image/16.jpg,0,0,,R_1QYUgALf2MKc3vp,2,2024-05-09_12h33.12.544,face trait task,2021.2.3,Win32,60.97560976,120802,,,,,,,
,,,,,,4.9,4.3727,space,0.255,0,49,49,46,1,47,image/47.jpg,0,0,,R_1QYUgALf2MKc3vp,2,2024-05-09_12h33.12.544,face trait task,2021.2.3,Win32,60.97560976,120802,,,,,,,
,,,,,,4.511111111,4.3917,space,0.2146,0,50,50,10,1,11,image/11.jpg,0,0,,R_1QYUgALf2MKc3vp,2,2024-05-09_12h33.12.544,face trait task,2021.2.3,Win32,60.97560976,120802,,,,,,,
,,,,,,5.055555556,3.7159,space,0.9719,0,51,51,24,1,25,image/25.jpg,0,0,,R_1QYUgALf2MKc3vp,2,2024-05-09_12h33.12.544,face trait task,2021.2.3,Win32,60.97560976,120802,,,,,,,
,,,,,,5.138888889,6.8858,space,2.836,0,52,52,6,1,7,image/7.jpg,0,0,,R_1QYUgALf2MKc3vp,2,2024-05-09_12h33.12.544,face trait task,2021.2.3,Win32,60.97560976,120802,,,,,,,
,,,,,,,,,,,,,,,,,,,,R_1QYUgALf2MKc3vp,2,2024-05-09_12h33.12.544,face trait task,2021.2.3,Win32,60.97560976,120802,0,0,0,1,1,1,competent.png
,,,,,friendly,2.588888889,2.1966,space,1.0376,0,0,0,33,1,34,image/34.jpg,0,0,,R_1QYUgALf2MKc3vp,2,2024-05-09_12h33.12.544,face trait task,2021.2.3,Win32,60.97560976,120802,,,,,,,
,,,,,,5.288888889,2.702,space,0.5181,0,1,1,24,1,25,image/25.jpg,0,0,,R_1QYUgALf2MKc3vp,2,2024-05-09_12h33.12.544,face trait task,2021.2.3,Win32,60.97560976,120802,,,,,,,
,,,,,,5,4.0903,space,0.2594,0,2,2,39,1,40,image/40.jpg,0,0,,R_1QYUgALf2MKc3vp,2,2024-05-09_12h33.12.544,face trait task,2021.2.3,Win32,60.97560976,120802,,,,,,,
,,,,,,2.527777778,2.3009,space,1.4433,0,3,3,44,1,45,image/45.jpg,0,0,,R_1QYUgALf2MKc3vp,2,2024-05-09_12h33.12.544,face trait task,2021.2.3,Win32,60.97560976,120802,,,,,,,
,,,,,,1.572222222,3.2932,space,0.6176,0,4,4,31,1,32,image/32.jpg,0,0,,R_1QYUgALf2MKc3vp,2,2024-05-09_12h33.12.544,face trait task,2021.2.3,Win32,60.97560976,120802,,,,,,,
,,,,,,4.005555556,2.6505,space,0.3599,0,5,5,16,1,17,image/17.jpg,0,0,,R_1QYUgALf2MKc3vp,2,2024-05-09_12h33.12.544,face trait task,2021.2.3,Win32,60.97560976,120802,,,,,,,
,,,,,,4.838888889,2.7535,space,1.2182,0,6,6,4,1,5,image/5.jpg,0,0,,R_1QYUgALf2MKc3vp,2,2024-05-09_12h33.12.544,face trait task,2021.2.3,Win32,60.97560976,120802,,,,,,,
,,,,,,4.961111111,3.3389,space,0.7256,0,7,7,6,1,7,image/7.jpg,0,0,,R_1QYUgALf2MKc3vp,2,2024-05-09_12h33.12.544,face trait task,2021.2.3,Win32,60.97560976,120802,,,,,,,
,,,,,,3.005555556,2.217,space,0.5973,0,8,8,42,1,43,image/43.jpg,0,0,,R_1QYUgALf2MKc3vp,2,2024-05-09_12h33.12.544,face trait task,2021.2.3,Win32,60.97560976,120802,,,,,,,
,,,,,,5.988888889,2.2795,space,0.6852,0,9,9,20,1,21,image/21.jpg,0,0,,R_1QYUgALf2MKc3vp,2,2024-05-09_12h33.12.544,face trait task,2021.2.3,Win32,60.97560976,120802,,,,,,,
,,,,,,5.533333333,3.0283,space,0.7177,0,10,10,32,1,33,image/33.jpg,0,0,,R_1QYUgALf2MKc3vp,2,2024-05-09_12h33.12.544,face trait task,2021.2.3,Win32,60.97560976,120802,,,,,,,
,,,,,,3.977777778,3.1504,space,0.3638,0,11,11,21,1,22,image/22.jpg,0,0,,R_1QYUgALf2MKc3vp,2,2024-05-09_12h33.12.544,face trait task,2021.2.3,Win32,60.97560976,120802,,,,,,,
,,,,,,3.444444444,2.2473,space,0.6341,0,12,12,1,1,2,image/2.jpg,0,0,,R_1QYUgALf2MKc3vp,2,2024-05-09_12h33.12.544,face trait task,2021.2.3,Win32,60.97560976,120802,,,,,,,
,,,,,,3.011111111,3.2018,space,0.4502,0,13,13,41,1,42,image/42.jpg,0,0,,R_1QYUgALf2MKc3vp,2,2024-05-09_12h33.12.544,face trait task,2021.2.3,Win32,60.97560976,120802,,,,,,,
,,,,,,1.977777778,6.8326,space,0.7673,0,14,14,45,1,46,image/46.jpg,0,0,,R_1QYUgALf2MKc3vp,2,2024-05-09_12h33.12.544,face trait task,2021.2.3,Win32,60.97560976,120802,,,,,,,
,,,,,,4.988888889,3.0572,space,0.3351,0,15,15,12,1,13,image/13.jpg,0,0,,R_1QYUgALf2MKc3vp,2,2024-05-09_12h33.12.544,face trait task,2021.2.3,Win32,60.97560976,120802,,,,,,,
,,,,,,5.316666667,3.3438,space,1.1215,0,16,16,5,1,6,image/6.jpg,0,0,,R_1QYUgALf2MKc3vp,2,2024-05-09_12h33.12.544,face trait task,2021.2.3,Win32,60.97560976,120802,,,,,,,
,,,,,,1,3.9379,space,1.1952,0,17,17,52,1,54,image/fill_img.png,1,1,Please move the slider all the way to the LEFT to show that you are paying attention.,R_1QYUgALf2MKc3vp,2,2024-05-09_12h33.12.544,face trait task,2021.2.3,Win32,60.97560976,120802,,,,,,,
,,,,,,4.977777778,2.8628,space,0.5616,0,18,18,7,1,8,image/8.jpg,0,0,,R_1QYUgALf2MKc3vp,2,2024-05-09_12h33.12.544,face trait task,2021.2.3,Win32,60.97560976,120802,,,,,,,
,,,,,,4.288888889,3.5875,space,0.3738,0,19,19,43,1,44,image/44.jpg,0,0,,R_1QYUgALf2MKc3vp,2,2024-05-09_12h33.12.544,face trait task,2021.2.3,Win32,60.97560976,120802,,,,,,,
,,,,,,5.566666667,2.7673,space,0.5213,0,20,20,9,1,10,image/10.jpg,0,0,,R_1QYUgALf2MKc3vp,2,2024-05-09_12h33.12.544,face trait task,2021.2.3,Win32,60.97560976,120802,,,,,,,
,,,,,,4.505555556,3.0707,space,1.0738,0,21,21,35,1,36,image/36.jpg,0,0,,R_1QYUgALf2MKc3vp,2,2024-05-09_12h33.12.544,face trait task,2021.2.3,Win32,60.97560976,120802,,,,,,,
,,,,,,4.983333333,2.5013,space,0.7736,0,22,22,8,1,9,image/9.jpg,0,0,,R_1QYUgALf2MKc3vp,2,2024-05-09_12h33.12.544,face trait task,2021.2.3,Win32,60.97560976,120802,,,,,,,
,,,,,,4.877777778,3.377,space,1.0473,0,23,23,40,1,41,image/41.jpg,0,0,,R_1QYUgALf2MKc3vp,2,2024-05-09_12h33.12.544,face trait task,2021.2.3,Win32,60.97560976,120802,,,,,,,
,,,,,,6,2.9078,space,0.1549,0,24,24,17,1,18,image/18.jpg,0,0,,R_1QYUgALf2MKc3vp,2,2024-05-09_12h33.12.544,face trait task,2021.2.3,Win32,60.97560976,120802,,,,,,,
,,,,,,3.461111111,2.7507,space,0.2639,0,25,25,48,1,49,image/49.jpg,0,0,,R_1QYUgALf2MKc3vp,2,2024-05-09_12h33.12.544,face trait task,2021.2.3,Win32,60.97560976,120802,,,,,,,
,,,,,,6.955555556,3.2793,space,0.3801,0,26,26,22,1,23,image/23.jpg,0,0,,R_1QYUgALf2MKc3vp,2,2024-05-09_12h33.12.544,face trait task,2021.2.3,Win32,60.97560976,120802,,,,,,,
,,,,,,4.983333333,2.8628,space,0.996,0,27,27,18,1,19,image/19.jpg,0,0,,R_1QYUgALf2MKc3vp,2,2024-05-09_12h33.12.544,face trait task,2021.2.3,Win32,60.97560976,120802,,,,,,,
,,,,,,1.972222222,3.2943,space,0.5842,0,28,28,29,1,30,image/30.jpg,0,0,,R_1QYUgALf2MKc3vp,2,2024-05-09_12h33.12.544,face trait task,2021.2.3,Win32,60.97560976,120802,,,,,,,
,,,,,,7,2.7521,space,1.5201,0,29,29,51,1,60,image/fill_img.png,1,7,Please move the slider all the way to the RIGHT to show that you are paying attention.,R_1QYUgALf2MKc3vp,2,2024-05-09_12h33.12.544,face trait task,2021.2.3,Win32,60.97560976,120802,,,,,,,
,,,,,,3.494444444,3.8766,space,0.8092,0,30,30,26,1,27,image/27.jpg,0,0,,R_1QYUgALf2MKc3vp,2,2024-05-09_12h33.12.544,face trait task,2021.2.3,Win32,60.97560976,120802,,,,,,,
,,,,,,4.555555556,3.3041,space,1.3839,0,31,31,15,1,16,image/16.jpg,0,0,,R_1QYUgALf2MKc3vp,2,2024-05-09_12h33.12.544,face trait task,2021.2.3,Win32,60.97560976,120802,,,,,,,
,,,,,,2.027777778,4.8136,space,1.97,0,32,32,25,1,26,image/26.jpg,0,0,,R_1QYUgALf2MKc3vp,2,2024-05-09_12h33.12.544,face trait task,2021.2.3,Win32,60.97560976,120802,,,,,,,
,,,,,,4.138888889,3.3853,space,1.1261,0,33,33,2,1,3,image/3.jpg,0,0,,R_1QYUgALf2MKc3vp,2,2024-05-09_12h33.12.544,face trait task,2021.2.3,Win32,60.97560976,120802,,,,,,,
,,,,,,3.805555556,3.8272,space,1.4217,0,34,34,36,1,37,image/37.jpg,0,0,,R_1QYUgALf2MKc3vp,2,2024-05-09_12h33.12.544,face trait task,2021.2.3,Win32,60.97560976,120802,,,,,,,
,,,,,,4,3.8412,space,0.3603,0,35,35,38,1,39,image/39.jpg,0,0,,R_1QYUgALf2MKc3vp,2,2024-05-09_12h33.12.544,face trait task,2021.2.3,Win32,60.97560976,120802,,,,,,,
,,,,,,2.983333333,3.0343,space,1.2013,0,36,36,27,1,28,image/28.jpg,0,0,,R_1QYUgALf2MKc3vp,2,2024-05-09_12h33.12.544,face trait task,2021.2.3,Win32,60.97560976,120802,,,,,,,
,,,,,,3.527777778,3.7673,space,0.8242,0,37,37,37,1,38,image/38.jpg,0,0,,R_1QYUgALf2MKc3vp,2,2024-05-09_12h33.12.544,face trait task,2021.2.3,Win32,60.97560976,120802,,,,,,,
,,,,,,3.527777778,3.75,space,1.7762,0,38,38,10,1,11,image/11.jpg,0,0,,R_1QYUgALf2MKc3vp,2,2024-05-09_12h33.12.544,face trait task,2021.2.3,Win32,60.97560976,120802,,,,,,,
,,,,,,4.533333333,5.3062,space,0.4201,0,39,39,34,1,35,image/35.jpg,0,0,,R_1QYUgALf2MKc3vp,2,2024-05-09_12h33.12.544,face trait task,2021.2.3,Win32,60.97560976,120802,,,,,,,
,,,,,,1.461111111,3.5003,space,0.5823,0,40,40,28,1,29,image/29.jpg,0,0,,R_1QYUgALf2MKc3vp,2,2024-05-09_12h33.12.544,face trait task,2021.2.3,Win32,60.97560976,120802,,,,,,,
,,,,,,1.494444444,2.5771,space,1.3927,0,41,41,30,1,31,image/31.jpg,0,0,,R_1QYUgALf2MKc3vp,2,2024-05-09_12h33.12.544,face trait task,2021.2.3,Win32,60.97560976,120802,,,,,,,
,,,,,,5.966666667,2.8983,space,1.3362,0,42,42,19,1,20,image/20.jpg,0,0,,R_1QYUgALf2MKc3vp,2,2024-05-09_12h33.12.544,face trait task,2021.2.3,Win32,60.97560976,120802,,,,,,,
,,,,,,3.977777778,2.1184,space,1.4717,0,43,43,47,1,48,image/48.jpg,0,0,,R_1QYUgALf2MKc3vp,2,2024-05-09_12h33.12.544,face trait task,2021.2.3,Win32,60.97560976,120802,,,,,,,
,,,,,,4.488888889,2.3507,space,1.8752,0,44,44,3,1,4,image/4.jpg,0,0,,R_1QYUgALf2MKc3vp,2,2024-05-09_12h33.12.544,face trait task,2021.2.3,Win32,60.97560976,120802,,,,,,,
,,,,,,3.983333333,5.3253,space,2.8817,0,45,45,46,1,47,image/47.jpg,0,0,,R_1QYUgALf2MKc3vp,2,2024-05-09_12h33.12.544,face trait task,2021.2.3,Win32,60.97560976,120802,,,,,,,
,,,,,,4.15,2.8428,space,2.5008,0,46,46,0,1,1,image/1.jpg,0,0,,R_1QYUgALf2MKc3vp,2,2024-05-09_12h33.12.544,face trait task,2021.2.3,Win32,60.97560976,120802,,,,,,,
,,,,,,6.033333333,2.4472,space,1.0936,0,47,47,23,1,24,image/24.jpg,0,0,,R_1QYUgALf2MKc3vp,2,2024-05-09_12h33.12.544,face trait task,2021.2.3,Win32,60.97560976,120802,,,,,,,
,,,,,,4.922222222,3.4941,space,0.5934,0,48,48,13,1,14,image/14.jpg,0,0,,R_1QYUgALf2MKc3vp,2,2024-05-09_12h33.12.544,face trait task,2021.2.3,Win32,60.97560976,120802,,,,,,,
,,,,,,5.561111111,3.4545,space,0.8367,0,49,49,49,1,50,image/50.jpg,0,0,,R_1QYUgALf2MKc3vp,2,2024-05-09_12h33.12.544,face trait task,2021.2.3,Win32,60.97560976,120802,,,,,,,
,,,,,,5.994444444,2.767,space,1.919,0,50,50,14,1,15,image/15.jpg,0,0,,R_1QYUgALf2MKc3vp,2,2024-05-09_12h33.12.544,face trait task,2021.2.3,Win32,60.97560976,120802,,,,,,,
,,,,,,7,2.7564,space,1.213,0,51,51,50,1,59,image/fill_img.png,1,7,Please move the slider all the way to the RIGHT to show that you are paying attention.,R_1QYUgALf2MKc3vp,2,2024-05-09_12h33.12.544,face trait task,2021.2.3,Win32,60.97560976,120802,,,,,,,
,,,,,,4.822222222,4.1149,space,1.1268,0,52,52,11,1,12,image/12.jpg,0,0,,R_1QYUgALf2MKc3vp,2,2024-05-09_12h33.12.544,face trait task,2021.2.3,Win32,60.97560976,120802,,,,,,,
,,,,,,,,,,,,,,,,,,,,R_1QYUgALf2MKc3vp,2,2024-05-09_12h33.12.544,face trait task,2021.2.3,Win32,60.97560976,120802,0,1,1,3,1,3,friendly.png
,,,,,trustworthy,4.9,4.3421,space,1.0389,0,0,0,12,1,13,image/13.jpg,0,0,,R_1QYUgALf2MKc3vp,2,2024-05-09_12h33.12.544,face trait task,2021.2.3,Win32,60.97560976,120802,,,,,,,
,,,,,,7,3.5997,space,0.7568,0,1,1,50,1,59,image/fill_img.png,1,7,Please move the slider all the way to the RIGHT to show that you are paying attention.,R_1QYUgALf2MKc3vp,2,2024-05-09_12h33.12.544,face trait task,2021.2.3,Win32,60.97560976,120802,,,,,,,
,,,,,,5.477777778,3.9697,space,1.5218,0,2,2,3,1,4,image/4.jpg,0,0,,R_1QYUgALf2MKc3vp,2,2024-05-09_12h33.12.544,face trait task,2021.2.3,Win32,60.97560976,120802,,,,,,,
,,,,,,3.522222222,5.5836,space,1.2451,0,3,3,48,1,49,image/49.jpg,0,0,,R_1QYUgALf2MKc3vp,2,2024-05-09_12h33.12.544,face trait task,2021.2.3,Win32,60.97560976,120802,,,,,,,
,,,,,,3.994444444,7.4431,space,0.4186,0,4,4,11,1,12,image/12.jpg,0,0,,R_1QYUgALf2MKc3vp,2,2024-05-09_12h33.12.544,face trait task,2021.2.3,Win32,60.97560976,120802,,,,,,,
,,,,,,4.477777778,3.3462,space,0.9777,0,5,5,35,1,36,image/36.jpg,0,0,,R_1QYUgALf2MKc3vp,2,2024-05-09_12h33.12.544,face trait task,2021.2.3,Win32,60.97560976,120802,,,,,,,
,,,,,,4.422222222,4.7113,space,0.7544,0,6,6,34,1,35,image/35.jpg,0,0,,R_1QYUgALf2MKc3vp,2,2024-05-09_12h33.12.544,face trait task,2021.2.3,Win32,60.97560976,120802,,,,,,,
,,,,,,5.488888889,2.52,space,0.7174,0,7,7,22,1,23,image/23.jpg,0,0,,R_1QYUgALf2MKc3vp,2,2024-05-09_12h33.12.544,face trait task,2021.2.3,Win32,60.97560976,120802,,,,,,,
,,,,,,2.738888889,3.8948,space,0.2605,0,8,8,41,1,42,image/42.jpg,0,0,,R_1QYUgALf2MKc3vp,2,2024-05-09_12h33.12.544,face trait task,2021.2.3,Win32,60.97560976,120802,,,,,,,
,,,,,,1.127777778,2.5847,space,0.4541,0,9,9,45,1,46,image/46.jpg,0,0,,R_1QYUgALf2MKc3vp,2,2024-05-09_12h33.12.544,face trait task,2021.2.3,Win32,60.97560976,120802,,,,,,,
,,,,,,1.155555556,2.564,space,0.9396,0,10,10,30,1,31,image/31.jpg,0,0,,R_1QYUgALf2MKc3vp,2,2024-05-09_12h33.12.544,face trait task,2021.2.3,Win32,60.97560976,120802,,,,,,,
,,,,,,3.305555556,2.6958,space,0.5899,0,11,11,38,1,39,image/39.jpg,0,0,,R_1QYUgALf2MKc3vp,2,2024-05-09_12h33.12.544,face trait task,2021.2.3,Win32,60.97560976,120802,,,,,,,
,,,,,,4.016666667,1.935,space,2.6417,0,12,12,15,1,16,image/16.jpg,0,0,,R_1QYUgALf2MKc3vp,2,2024-05-09_12h33.12.544,face trait task,2021.2.3,Win32,60.97560976,120802,,,,,,,
,,,,,,3.95,3.5834,space,1.5699,0,13,13,36,1,37,image/37.jpg,0,0,,R_1QYUgALf2MKc3vp,2,2024-05-09_12h33.12.544,face trait task,2021.2.3,Win32,60.97560976,120802,,,,,,,
,,,,,,4.488888889,3.1605,space,1.7288,0,14,14,5,1,6,image/6.jpg,0,0,,R_1QYUgALf2MKc3vp,2,2024-05-09_12h33.12.544,face trait task,2021.2.3,Win32,60.97560976,120802,,,,,,,
,,,,,,3.988888889,3.2351,space,1.3486,0,15,15,49,1,50,image/50.jpg,0,0,,R_1QYUgALf2MKc3vp,2,2024-05-09_12h33.12.544,face trait task,2021.2.3,Win32,60.97560976,120802,,,,,,,
,,,,,,4.488888889,12.6746,space,2.1428,0,16,16,23,1,24,image/24.jpg,0,0,,R_1QYUgALf2MKc3vp,2,2024-05-09_12h33.12.544,face trait task,2021.2.3,Win32,60.97560976,120802,,,,,,,
,,,,,,7,2.8605,space,1.8884,0,17,17,51,1,60,image/fill_img.png,1,7,Please move the slider all the way to the RIGHT to show that you are paying attention.,R_1QYUgALf2MKc3vp,2,2024-05-09_12h33.12.544,face trait task,2021.2.3,Win32,60.97560976,120802,,,,,,,
,,,,,,4.4,2.1022,space,1.164,0,18,18,2,1,3,image/3.jpg,0,0,,R_1QYUgALf2MKc3vp,2,2024-05-09_12h33.12.544,face trait task,2021.2.3,Win32,60.97560976,120802,,,,,,,
,,,,,,4.983333333,2.0728,space,3.1446,0,19,19,20,1,21,image/21.jpg,0,0,,R_1QYUgALf2MKc3vp,2,2024-05-09_12h33.12.544,face trait task,2021.2.3,Win32,60.97560976,120802,,,,,,,
,,,,,,3.277777778,8.4173,space,1.0413,0,20,20,27,1,28,image/28.jpg,0,0,,R_1QYUgALf2MKc3vp,2,2024-05-09_12h33.12.544,face trait task,2021.2.3,Win32,60.97560976,120802,,,,,,,
,,,,,,4.133333333,3.1213,space,1.7574,0,21,21,17,1,18,image/18.jpg,0,0,,R_1QYUgALf2MKc3vp,2,2024-05-09_12h33.12.544,face trait task,2021.2.3,Win32,60.97560976,120802,,,,,,,
,,,,,,4.6,3.7311,space,1.1868,0,22,22,14,1,15,image/15.jpg,0,0,,R_1QYUgALf2MKc3vp,2,2024-05-09_12h33.12.544,face trait task,2021.2.3,Win32,60.97560976,120802,,,,,,,
,,,,,,4,6.3612,space,0.7249,0,23,23,46,1,47,image/47.jpg,0,0,,R_1QYUgALf2MKc3vp,2,2024-05-09_12h33.12.544,face trait task,2021.2.3,Win32,60.97560976,120802,,,,,,,
,,,,,,3.211111111,2.4769,space,2.6548,0,24,24,33,1,34,image/34.jpg,0,0,,R_1QYUgALf2MKc3vp,2,2024-05-09_12h33.12.544,face trait task,2021.2.3,Win32,60.97560976,120802,,,,,,,
,,,,,,2.938888889,5.7654,space,1.2023,0,25,25,25,1,26,image/26.jpg,0,0,,R_1QYUgALf2MKc3vp,2,2024-05-09_12h33.12.544,face trait task,2021.2.3,Win32,60.97560976,120802,,,,,,,
,,,,,,4,2.967,space,1.5888,0,26,26,8,1,9,image/9.jpg,0,0,,R_1QYUgALf2MKc3vp,2,2024-05-09_12h33.12.544,face trait task,2021.2.3,Win32,60.97560976,120802,,,,,,,
,,,,,,4.244444444,3.1783,space,1.4734,0,27,27,7,1,8,image/8.jpg,0,0,,R_1QYUgALf2MKc3vp,2,2024-05-09_12h33.12.544,face trait task,2021.2.3,Win32,60.97560976,120802,,,,,,,
,,,,,,4.522222222,3.8257,space,2.4883,0,28,28,19,1,20,image/20.jpg,0,0,,R_1QYUgALf2MKc3vp,2,2024-05-09_12h33.12.544,face trait task,2021.2.3,Win32,60.97560976,120802,,,,,,,
,,,,,,2.677777778,5.002,space,0.9068,0,29,29,42,1,43,image/43.jpg,0,0,,R_1QYUgALf2MKc3vp,2,2024-05-09_12h33.12.544,face trait task,2021.2.3,Win32,60.97560976,120802,,,,,,,
,,,,,,3.638888889,4.8312,space,0.7684,0,30,30,26,1,27,image/27.jpg,0,0,,R_1QYUgALf2MKc3vp,2,2024-05-09_12h33.12.544,face trait task,2021.2.3,Win32,60.97560976,120802,,,,,,,
,,,,,,3.25,3.1235,space,1.2286,0,31,31,29,1,30,image/30.jpg,0,0,,R_1QYUgALf2MKc3vp,2,2024-05-09_12h33.12.544,face trait task,2021.2.3,Win32,60.97560976,120802,,,,,,,
,,,,,,4.65,2.9182,space,1.4521,0,32,32,13,1,14,image/14.jpg,0,0,,R_1QYUgALf2MKc3vp,2,2024-05-09_12h33.12.544,face trait task,2021.2.3,Win32,60.97560976,120802,,,,,,,
,,,,,,3.977777778,3.6467,space,0.8952,0,33,33,21,1,22,image/22.jpg,0,0,,R_1QYUgALf2MKc3vp,2,2024-05-09_12h33.12.544,face trait task,2021.2.3,Win32,60.97560976,120802,,,,,,,
,,,,,,2.527777778,2.2873,space,1.671,0,34,34,39,1,40,image/40.jpg,0,0,,R_1QYUgALf2MKc3vp,2,2024-05-09_12h33.12.544,face trait task,2021.2.3,Win32,60.97560976,120802,,,,,,,
,,,,,,3.983333333,2.6343,space,1.1039,0,35,35,0,1,1,image/1.jpg,0,0,,R_1QYUgALf2MKc3vp,2,2024-05-09_12h33.12.544,face trait task,2021.2.3,Win32,60.97560976,120802,,,,,,,
,,,,,,4.894444444,2.7298,space,1.951,0,36,36,1,1,2,image/2.jpg,0,0,,R_1QYUgALf2MKc3vp,2,2024-05-09_12h33.12.544,face trait task,2021.2.3,Win32,60.97560976,120802,,,,,,,
,,,,,,4.011111111,3.5506,space,0.6386,0,37,37,37,1,38,image/38.jpg,0,0,,R_1QYUgALf2MKc3vp,2,2024-05-09_12h33.12.544,face trait task,2021.2.3,Win32,60.97560976,120802,,,,,,,
,,,,,,2.633333333,5.9945,space,0.8524,0,38,38,31,1,32,image/32.jpg,0,0,,R_1QYUgALf2MKc3vp,2,2024-05-09_12h33.12.544,face trait task,2021.2.3,Win32,60.97560976,120802,,,,,,,
,,,,,,5.477777778,2.8854,space,0.594,0,39,39,24,1,25,image/25.jpg,0,0,,R_1QYUgALf2MKc3vp,2,2024-05-09_12h33.12.544,face trait task,2021.2.3,Win32,60.97560976,120802,,,,,,,
,,,,,,3.927777778,1.9293,space,1.2523,0,40,40,10,1,11,image/11.jpg,0,0,,R_1QYUgALf2MKc3vp,2,2024-05-09_12h33.12.544,face trait task,2021.2.3,Win32,60.97560976,120802,,,,,,,
,,,,,,1,2.8268,space,1.1874,0,41,41,52,1,54,image/fill_img.png,1,1,Please move the slider all the way to the LEFT to show that you are paying attention.,R_1QYUgALf2MKc3vp,2,2024-05-09_12h33.12.544,face trait task,2021.2.3,Win32,60.97560976,120802,,,,,,,
,,,,,,4.005555556,4.0901,space,0.5198,0,42,42,47,1,48,image/48.jpg,0,0,,R_1QYUgALf2MKc3vp,2,2024-05-09_12h33.12.544,face trait task,2021.2.3,Win32,60.97560976,120802,,,,,,,
,,,,,,1.45,2.3618,space,0.9886,0,43,43,40,1,41,image/41.jpg,0,0,,R_1QYUgALf2MKc3vp,2,2024-05-09_12h33.12.544,face trait task,2021.2.3,Win32,60.97560976,120802,,,,,,,
,,,,,,1.777777778,2.0129,space,2.6685,0,44,44,44,1,45,image/45.jpg,0,0,,R_1QYUgALf2MKc3vp,2,2024-05-09_12h33.12.544,face trait task,2021.2.3,Win32,60.97560976,120802,,,,,,,
,,,,,,1.527777778,4.5998,space,0.7029,0,45,45,28,1,29,image/29.jpg,0,0,,R_1QYUgALf2MKc3vp,2,2024-05-09_12h33.12.544,face trait task,2021.2.3,Win32,60.97560976,120802,,,,,,,
,,,,,,4.361111111,2.5397,space,1.3185,0,46,46,18,1,19,image/19.jpg,0,0,,R_1QYUgALf2MKc3vp,2,2024-05-09_12h33.12.544,face trait task,2021.2.3,Win32,60.97560976,120802,,,,,,,
,,,,,,4.705555556,3.8577,space,0.5708,0,47,47,6,1,7,image/7.jpg,0,0,,R_1QYUgALf2MKc3vp,2,2024-05-09_12h33.12.544,face trait task,2021.2.3,Win32,60.97560976,120802,,,,,,,
,,,,,,4.227777778,2.9007,space,2.1396,0,48,48,16,1,17,image/17.jpg,0,0,,R_1QYUgALf2MKc3vp,2,2024-05-09_12h33.12.544,face trait task,2021.2.3,Win32,60.97560976,120802,,,,,,,
,,,,,,3.533333333,4.8173,space,1.9414,0,49,49,9,1,10,image/10.jpg,0,0,,R_1QYUgALf2MKc3vp,2,2024-05-09_12h33.12.544,face trait task,2021.2.3,Win32,60.97560976,120802,,,,,,,
,,,,,,4.4,3.2192,space,0.7383,0,50,50,4,1,5,image/5.jpg,0,0,,R_1QYUgALf2MKc3vp,2,2024-05-09_12h33.12.544,face trait task,2021.2.3,Win32,60.97560976,120802,,,,,,,
,,,,,,4.722222222,4.1225,space,1.6784,0,51,51,32,1,33,image/33.jpg,0,0,,R_1QYUgALf2MKc3vp,2,2024-05-09_12h33.12.544,face trait task,2021.2.3,Win32,60.97560976,120802,,,,,,,
,,,,,,1.533333333,5.2813,space,2.0361,0,52,52,43,1,44,image/44.jpg,0,0,,R_1QYUgALf2MKc3vp,2,2024-05-09_12h33.12.544,face trait task,2021.2.3,Win32,60.97560976,120802,,,,,,,
,,,,,,,,,,,,,,,,,,,,R_1QYUgALf2MKc3vp,2,2024-05-09_12h33.12.544,face trait task,2021.2.3,Win32,60.97560976,120802,0,2,2,2,1,2,trustworthy.png
,,,,,critical,6.822222222,3.8287,space,0.6883,0,0,0,29,1,30,image/30.jpg,0,0,,R_1QYUgALf2MKc3vp,2,2024-05-09_12h33.12.544,face trait task,2021.2.3,Win32,60.97560976,120802,,,,,,,
,,,,,,5.9,3.9848,space,1.0085,0,1,1,11,1,12,image/12.jpg,0,0,,R_1QYUgALf2MKc3vp,2,2024-05-09_12h33.12.544,face trait task,2021.2.3,Win32,60.97560976,120802,,,,,,,
,,,,,,5.827777778,4.7951,space,0.5376,0,2,2,26,1,27,image/27.jpg,0,0,,R_1QYUgALf2MKc3vp,2,2024-05-09_12h33.12.544,face trait task,2021.2.3,Win32,60.97560976,120802,,,,,,,
,,,,,,5.45,4.3209,space,1.5253,0,3,3,39,1,40,image/40.jpg,0,0,,R_1QYUgALf2MKc3vp,2,2024-05-09_12h33.12.544,face trait task,2021.2.3,Win32,60.97560976,120802,,,,,,,
,,,,,,6.855555556,5.0051,space,0.744,0,4,4,25,1,26,image/26.jpg,0,0,,R_1QYUgALf2MKc3vp,2,2024-05-09_12h33.12.544,face trait task,2021.2.3,Win32,60.97560976,120802,,,,,,,
,,,,,,5.561111111,2.1049,space,1.1003,0,5,5,41,1,42,image/42.jpg,0,0,,R_1QYUgALf2MKc3vp,2,2024-05-09_12h33.12.544,face trait task,2021.2.3,Win32,60.97560976,120802,,,,,,,
,,,,,,4.966666667,5.0629,space,0.5072,0,6,6,27,1,28,image/28.jpg,0,0,,R_1QYUgALf2MKc3vp,2,2024-05-09_12h33.12.544,face trait task,2021.2.3,Win32,60.97560976,120802,,,,,,,
,,,,,,6.955555556,2.9121,space,1.0986,0,7,7,45,1,46,image/46.jpg,0,0,,R_1QYUgALf2MKc3vp,2,2024-05-09_12h33.12.544,face trait task,2021.2.3,Win32,60.97560976,120802,,,,,,,
,,,,,,5.388888889,6.6184,space,0.6039,0,8,8,40,1,41,image/41.jpg,0,0,,R_1QYUgALf2MKc3vp,2,2024-05-09_12h33.12.544,face trait task,2021.2.3,Win32,60.97560976,120802,,,,,,,
,,,,,,6.188888889,2.6282,space,2.3928,0,9,9,5,1,6,image/6.jpg,0,0,,R_1QYUgALf2MKc3vp,2,2024-05-09_12h33.12.544,face trait task,2021.2.3,Win32,60.97560976,120802,,,,,,,
,,,,,,5.527777778,4.1766,space,1.3584,0,10,10,49,1,50,image/50.jpg,0,0,,R_1QYUgALf2MKc3vp,2,2024-05-09_12h33.12.544,face trait task,2021.2.3,Win32,60.97560976,120802,,,,,,,
,,,,,,5.205555556,6.6806,space,0.934,0,11,11,4,1,5,image/5.jpg,0,0,,R_1QYUgALf2MKc3vp,2,2024-05-09_12h33.12.544,face trait task,2021.2.3,Win32,60.97560976,120802,,,,,,,
,,,,,,4.055555556,5.5427,space,0.508,0,12,12,12,1,13,image/13.jpg,0,0,,R_1QYUgALf2MKc3vp,2,2024-05-09_12h33.12.544,face trait task,2021.2.3,Win32,60.97560976,120802,,,,,,,
,,,,,,6.038888889,5.0011,space,0.6222,0,13,13,6,1,7,image/7.jpg,0,0,,R_1QYUgALf2MKc3vp,2,2024-05-09_12h33.12.544,face trait task,2021.2.3,Win32,60.97560976,120802,,,,,,,
,,,,,,5.538888889,4.7327,space,1.1853,0,14,14,0,1,1,image/1.jpg,0,0,,R_1QYUgALf2MKc3vp,2,2024-05-09_12h33.12.544,face trait task,2021.2.3,Win32,60.97560976,120802,,,,,,,
,,,,,,4.388888889,7.8896,space,0.3184,0,15,15,17,1,18,image/18.jpg,0,0,,R_1QYUgALf2MKc3vp,2,2024-05-09_12h33.12.544,face trait task,2021.2.3,Win32,60.97560976,120802,,,,,,,
,,,,,,5.938888889,2.9715,space,0.6968,0,16,16,9,1,10,image/10.jpg,0,0,,R_1QYUgALf2MKc3vp,2,2024-05-09_12h33.12.544,face trait task,2021.2.3,Win32,60.97560976,120802,,,,,,,
,,,,,,3.416666667,6.1256,space,1.9886,0,17,17,42,1,43,image/43.jpg,0,0,,R_1QYUgALf2MKc3vp,2,2024-05-09_12h33.12.544,face trait task,2021.2.3,Win32,60.97560976,120802,,,,,,,
,,,,,,5.5,6.2554,space,1.8118,0,18,18,16,1,17,image/17.jpg,0,0,,R_1QYUgALf2MKc3vp,2,2024-05-09_12h33.12.544,face trait task,2021.2.3,Win32,60.97560976,120802,,,,,,,
,,,,,,3.977777778,7.4523,space,0.6552,0,19,19,2,1,3,image/3.jpg,0,0,,R_1QYUgALf2MKc3vp,2,2024-05-09_12h33.12.544,face trait task,2021.2.3,Win32,60.97560976,120802,,,,,,,
,,,,,,6.977777778,3.1214,space,0.7395,0,20,20,28,1,29,image/29.jpg,0,0,,R_1QYUgALf2MKc3vp,2,2024-05-09_12h33.12.544,face trait task,2021.2.3,Win32,60.97560976,120802,,,,,,,
,,,,,,4.894444444,3.7911,space,0.6146,0,21,21,21,1,22,image/22.jpg,0,0,,R_1QYUgALf2MKc3vp,2,2024-05-09_12h33.12.544,face trait task,2021.2.3,Win32,60.97560976,120802,,,,,,,
,,,,,,7,3.006,space,1.3542,0,22,22,50,1,59,image/fill_img.png,1,7,Please move the slider all the way to the RIGHT to show that you are paying attention.,R_1QYUgALf2MKc3vp,2,2024-05-09_12h33.12.544,face trait task,2021.2.3,Win32,60.97560976,120802,,,,,,,
,,,,,,4.572222222,5.6706,space,4.0832,0,23,23,43,1,44,image/44.jpg,0,0,,R_1QYUgALf2MKc3vp,2,2024-05-09_12h33.12.544,face trait task,2021.2.3,Win32,60.97560976,120802,,,,,,,
,,,,,,6.55,1.9415,space,0.7697,0,24,24,33,1,34,image/34.jpg,0,0,,R_1QYUgALf2MKc3vp,2,2024-05-09_12h33.12.544,face trait task,2021.2.3,Win32,60.97560976,120802,,,,,,,
,,,,,,4.394444444,4.6842,space,1.02,0,25,25,13,1,14,image/14.jpg,0,0,,R_1QYUgALf2MKc3vp,2,2024-05-09_12h33.12.544,face trait task,2021.2.3,Win32,60.97560976,120802,,,,,,,
,,,,,,4.661111111,3.1878,space,2.0387,0,26,26,38,1,39,image/39.jpg,0,0,,R_1QYUgALf2MKc3vp,2,2024-05-09_12h33.12.544,face trait task,2021.2.3,Win32,60.97560976,120802,,,,,,,
,,,,,,2.983333333,3.8324,space,1.2803,0,27,27,24,1,25,image/25.jpg,0,0,,R_1QYUgALf2MKc3vp,2,2024-05-09_12h33.12.544,face trait task,2021.2.3,Win32,60.97560976,120802,,,,,,,
,,,,,,2.888888889,2.942,space,1.0989,0,28,28,35,1,36,image/36.jpg,0,0,,R_1QYUgALf2MKc3vp,2,2024-05-09_12h33.12.544,face trait task,2021.2.3,Win32,60.97560976,120802,,,,,,,
,,,,,,1,2.0147,space,1.4769,0,29,29,52,1,54,image/fill_img.png,1,1,Please move the slider all the way to the LEFT to show that you are paying attention.,R_1QYUgALf2MKc3vp,2,2024-05-09_12h33.12.544,face trait task,2021.2.3,Win32,60.97560976,120802,,,,,,,
,,,,,,4.955555556,3.2366,space,1.3591,0,30,30,23,1,24,image/24.jpg,0,0,,R_1QYUgALf2MKc3vp,2,2024-05-09_12h33.12.544,face trait task,2021.2.3,Win32,60.97560976,120802,,,,,,,
,,,,,,4.383333333,2.7415,space,1.4797,0,31,31,37,1,38,image/38.jpg,0,0,,R_1QYUgALf2MKc3vp,2,2024-05-09_12h33.12.544,face trait task,2021.2.3,Win32,60.97560976,120802,,,,,,,
,,,,,,3,1.827,space,0.9749,0,32,32,19,1,20,image/20.jpg,0,0,,R_1QYUgALf2MKc3vp,2,2024-05-09_12h33.12.544,face trait task,2021.2.3,Win32,60.97560976,120802,,,,,,,
,,,,,,3.344444444,3.4309,space,0.8069,0,33,33,34,1,35,image/35.jpg,0,0,,R_1QYUgALf2MKc3vp,2,2024-05-09_12h33.12.544,face trait task,2021.2.3,Win32,60.97560976,120802,,,,,,,
,,,,,,2.488888889,2.6764,space,1.395,0,34,34,18,1,19,image/19.jpg,0,0,,R_1QYUgALf2MKc3vp,2,2024-05-09_12h33.12.544,face trait task,2021.2.3,Win32,60.97560976,120802,,,,,,,
,,,,,,4.572222222,2.3183,space,0.8449,0,35,35,15,1,16,image/16.jpg,0,0,,R_1QYUgALf2MKc3vp,2,2024-05-09_12h33.12.544,face trait task,2021.2.3,Win32,60.97560976,120802,,,,,,,
,,,,,,3.533333333,5.1277,space,0.6964,0,36,36,48,1,49,image/49.jpg,0,0,,R_1QYUgALf2MKc3vp,2,2024-05-09_12h33.12.544,face trait task,2021.2.3,Win32,60.97560976,120802,,,,,,,
,,,,,,2.488888889,3.6869,space,0.687,0,37,37,22,1,23,image/23.jpg,0,0,,R_1QYUgALf2MKc3vp,2,2024-05-09_12h33.12.544,face trait task,2021.2.3,Win32,60.97560976,120802,,,,,,,
,,,,,,4.472222222,1.9587,space,0.9398,0,38,38,3,1,4,image/4.jpg,0,0,,R_1QYUgALf2MKc3vp,2,2024-05-09_12h33.12.544,face trait task,2021.2.3,Win32,60.97560976,120802,,,,,,,
,,,,,,6.966666667,2.2106,space,1.0954,0,39,39,30,1,31,image/31.jpg,0,0,,R_1QYUgALf2MKc3vp,2,2024-05-09_12h33.12.544,face trait task,2021.2.3,Win32,60.97560976,120802,,,,,,,
,,,,,,3.716666667,1.8511,space,0.9761,0,40,40,32,1,33,image/33.jpg,0,0,,R_1QYUgALf2MKc3vp,2,2024-05-09_12h33.12.544,face trait task,2021.2.3,Win32,60.97560976,120802,,,,,,,
,,,,,,4.522222222,3.9656,space,2.4805,0,41,41,36,1,37,image/37.jpg,0,0,,R_1QYUgALf2MKc3vp,2,2024-05-09_12h33.12.544,face trait task,2021.2.3,Win32,60.97560976,120802,,,,,,,
,,,,,,6.161111111,1.8469,space,1.0177,0,42,42,31,1,32,image/32.jpg,0,0,,R_1QYUgALf2MKc3vp,2,2024-05-09_12h33.12.544,face trait task,2021.2.3,Win32,60.97560976,120802,,,,,,,
,,,,,,4.972222222,2.2412,space,0.8686,0,43,43,1,1,2,image/2.jpg,0,0,,R_1QYUgALf2MKc3vp,2,2024-05-09_12h33.12.544,face trait task,2021.2.3,Win32,60.97560976,120802,,,,,,,
,,,,,,4.488888889,3.1855,space,0.8572,0,44,44,46,1,47,image/47.jpg,0,0,,R_1QYUgALf2MKc3vp,2,2024-05-09_12h33.12.544,face trait task,2021.2.3,Win32,60.97560976,120802,,,,,,,
,,,,,,5.088888889,2.4372,space,1.2248,0,45,45,44,1,45,image/45.jpg,0,0,,R_1QYUgALf2MKc3vp,2,2024-05-09_12h33.12.544,face trait task,2021.2.3,Win32,60.97560976,120802,,,,,,,
,,,,,,4.666666667,5.9555,space,2.6191,0,46,46,7,1,8,image/8.jpg,0,0,,R_1QYUgALf2MKc3vp,2,2024-05-09_12h33.12.544,face trait task,2021.2.3,Win32,60.97560976,120802,,,,,,,
,,,,,,3.833333333,2.2229,space,0.9139,0,47,47,10,1,11,image/11.jpg,0,0,,R_1QYUgALf2MKc3vp,2,2024-05-09_12h33.12.544,face trait task,2021.2.3,Win32,60.97560976,120802,,,,,,,
,,,,,,4.461111111,3.444,space,0.9865,0,48,48,8,1,9,image/9.jpg,0,0,,R_1QYUgALf2MKc3vp,2,2024-05-09_12h33.12.544,face trait task,2021.2.3,Win32,60.97560976,120802,,,,,,,
,,,,,,4.811111111,2.7817,space,0.7072,0,49,49,47,1,48,image/48.jpg,0,0,,R_1QYUgALf2MKc3vp,2,2024-05-09_12h33.12.544,face trait task,2021.2.3,Win32,60.97560976,120802,,,,,,,
,,,,,,4.311111111,2.3614,space,1.102,0,50,50,14,1,15,image/15.jpg,0,0,,R_1QYUgALf2MKc3vp,2,2024-05-09_12h33.12.544,face trait task,2021.2.3,Win32,60.97560976,120802,,,,,,,
,,,,,,7,3.0129,space,2.9444,0,51,51,51,1,60,image/fill_img.png,1,7,Please move the slider all the way to the RIGHT to show that you are paying attention.,R_1QYUgALf2MKc3vp,2,2024-05-09_12h33.12.544,face trait task,2021.2.3,Win32,60.97560976,120802,,,,,,,
,,,,,,4.888888889,6.0772,space,1.2504,0,52,52,20,1,21,image/21.jpg,0,0,,R_1QYUgALf2MKc3vp,2,2024-05-09_12h33.12.544,face trait task,2021.2.3,Win32,60.97560976,120802,,,,,,,
,,,,,,,,,,,,,,,,,,,,R_1QYUgALf2MKc3vp,2,2024-05-09_12h33.12.544,face trait task,2021.2.3,Win32,60.97560976,120802,0,3,3,0,1,0,critical.png
