choose_trial,key_resp.keys,key_resp.rt,key_resp_4.keys,key_resp_4.rt,session_trait,slider_face_judge.response,slider_face_judge.rt,key_resp_3.keys,key_resp_3.rt,face_loop.thisRepN,face_loop.thisTrialN,face_loop.thisN,face_loop.thisIndex,face_loop.ran,face_serial,image_name,isCheck,answer,check_question,participant,session,date,expName,psychopyVersion,OS,frameRate,SONAid,session.thisRepN,session.thisTrialN,session.thisN,session.thisIndex,session.ran,session_serial,slider_judge_img
"[0,1,2,3,4,5,6,7,8,9,10,11,12,13,14,15,16,17,18,19,20,21,22,23,24,25,26,27,28,29,30,31,32,33,34,35,36,37,38,39,40,41,42,43,44,45,46,47,48,49,59,58,54]",space,7.988,space,13.406,critical,5.043478261,6.476,space,1.294,0,0,0,28,1,29,image/29.jpg,0,0,,R_2KryIkmTCOb6eUU,2,2024-05-06_20h13.06.799,face trait task,2021.2.3,MacIntel,58.82352941,120811,,,,,,,
,,,,,,5.063043478,5.237,space,1.169,0,1,1,33,1,34,image/34.jpg,0,0,,R_2KryIkmTCOb6eUU,2,2024-05-06_20h13.06.799,face trait task,2021.2.3,MacIntel,58.82352941,120811,,,,,,,
,,,,,,4.026086957,3.693,space,0.607,0,2,2,0,1,1,image/1.jpg,0,0,,R_2KryIkmTCOb6eUU,2,2024-05-06_20h13.06.799,face trait task,2021.2.3,MacIntel,58.82352941,120811,,,,,,,
,,,,,,4.026086957,2.929,space,0.644,0,3,3,17,1,18,image/18.jpg,0,0,,R_2KryIkmTCOb6eUU,2,2024-05-06_20h13.06.799,face trait task,2021.2.3,MacIntel,58.82352941,120811,,,,,,,
,,,,,,3.02826087,3.077,space,0.375,0,4,4,42,1,43,image/43.jpg,0,0,,R_2KryIkmTCOb6eUU,2,2024-05-06_20h13.06.799,face trait task,2021.2.3,MacIntel,58.82352941,120811,,,,,,,
,,,,,,3.034782609,2.121,space,0.817,0,5,5,7,1,8,image/8.jpg,0,0,,R_2KryIkmTCOb6eUU,2,2024-05-06_20h13.06.799,face trait task,2021.2.3,MacIntel,58.82352941,120811,,,,,,,
,,,,,,4.026086957,2.905,space,0.275,0,6,6,14,1,15,image/15.jpg,0,0,,R_2KryIkmTCOb6eUU,2,2024-05-06_20h13.06.799,face trait task,2021.2.3,MacIntel,58.82352941,120811,,,,,,,
,,,,,,3.015217391,3.985,space,0.751,0,7,7,36,1,37,image/37.jpg,0,0,,R_2KryIkmTCOb6eUU,2,2024-05-06_20h13.06.799,face trait task,2021.2.3,MacIntel,58.82352941,120811,,,,,,,
,,,,,,4.984782609,2.937,space,0.343,0,8,8,47,1,48,image/48.jpg,0,0,,R_2KryIkmTCOb6eUU,2,2024-05-06_20h13.06.799,face trait task,2021.2.3,MacIntel,58.82352941,120811,,,,,,,
,,,,,,4.639130435,2.736,space,0.886,0,9,9,32,1,33,image/33.jpg,0,0,,R_2KryIkmTCOb6eUU,2,2024-05-06_20h13.06.799,face trait task,2021.2.3,MacIntel,58.82352941,120811,,,,,,,
,,,,,,5.291304348,2.209,space,0.586,0,10,10,38,1,39,image/39.jpg,0,0,,R_2KryIkmTCOb6eUU,2,2024-05-06_20h13.06.799,face trait task,2021.2.3,MacIntel,58.82352941,120811,,,,,,,
,,,,,,5.467391304,1.611,space,0.61,0,11,11,19,1,20,image/20.jpg,0,0,,R_2KryIkmTCOb6eUU,2,2024-05-06_20h13.06.799,face trait task,2021.2.3,MacIntel,58.82352941,120811,,,,,,,
,,,,,,2.304347826,2.192,space,0.335,0,12,12,34,1,35,image/35.jpg,0,0,,R_2KryIkmTCOb6eUU,2,2024-05-06_20h13.06.799,face trait task,2021.2.3,MacIntel,58.82352941,120811,,,,,,,
,,,,,,6.263043478,2.243,space,0.372,0,13,13,27,1,28,image/28.jpg,0,0,,R_2KryIkmTCOb6eUU,2,2024-05-06_20h13.06.799,face trait task,2021.2.3,MacIntel,58.82352941,120811,,,,,,,
,,,,,,3.713043478,2.003,space,0.757,0,14,14,31,1,32,image/32.jpg,0,0,,R_2KryIkmTCOb6eUU,2,2024-05-06_20h13.06.799,face trait task,2021.2.3,MacIntel,58.82352941,120811,,,,,,,
,,,,,,4.410869565,1.668,space,0.452,0,15,15,8,1,9,image/9.jpg,0,0,,R_2KryIkmTCOb6eUU,2,2024-05-06_20h13.06.799,face trait task,2021.2.3,MacIntel,58.82352941,120811,,,,,,,
,,,,,,2.976086957,1.521,space,0.359,0,16,16,1,1,2,image/2.jpg,0,0,,R_2KryIkmTCOb6eUU,2,2024-05-06_20h13.06.799,face trait task,2021.2.3,MacIntel,58.82352941,120811,,,,,,,
,,,,,,3.210869565,2.038,space,0.251,0,17,17,46,1,47,image/47.jpg,0,0,,R_2KryIkmTCOb6eUU,2,2024-05-06_20h13.06.799,face trait task,2021.2.3,MacIntel,58.82352941,120811,,,,,,,
,,,,,,2.747826087,2.188,space,0.224,0,18,18,24,1,25,image/25.jpg,0,0,,R_2KryIkmTCOb6eUU,2,2024-05-06_20h13.06.799,face trait task,2021.2.3,MacIntel,58.82352941,120811,,,,,,,
,,,,,,6.817391304,2.671,space,0.241,0,19,19,30,1,31,image/31.jpg,0,0,,R_2KryIkmTCOb6eUU,2,2024-05-06_20h13.06.799,face trait task,2021.2.3,MacIntel,58.82352941,120811,,,,,,,
,,,,,,3.895652174,2.012,space,0.275,0,20,20,44,1,45,image/45.jpg,0,0,,R_2KryIkmTCOb6eUU,2,2024-05-06_20h13.06.799,face trait task,2021.2.3,MacIntel,58.82352941,120811,,,,,,,
,,,,,,3.210869565,2.096,space,0.544,0,21,21,35,1,36,image/36.jpg,0,0,,R_2KryIkmTCOb6eUU,2,2024-05-06_20h13.06.799,face trait task,2021.2.3,MacIntel,58.82352941,120811,,,,,,,
,,,,,,3.132608696,2.763,space,0.236,0,22,22,40,1,41,image/41.jpg,0,0,,R_2KryIkmTCOb6eUU,2,2024-05-06_20h13.06.799,face trait task,2021.2.3,MacIntel,58.82352941,120811,,,,,,,
,,,,,,5.813043478,3.162,space,0.401,0,23,23,16,1,17,image/17.jpg,0,0,,R_2KryIkmTCOb6eUU,2,2024-05-06_20h13.06.799,face trait task,2021.2.3,MacIntel,58.82352941,120811,,,,,,,
,,,,,,4.026086957,2.178,space,0.601,0,24,24,11,1,12,image/12.jpg,0,0,,R_2KryIkmTCOb6eUU,2,2024-05-06_20h13.06.799,face trait task,2021.2.3,MacIntel,58.82352941,120811,,,,,,,
,,,,,,4.939130435,2.038,space,0.303,0,25,25,12,1,13,image/13.jpg,0,0,,R_2KryIkmTCOb6eUU,2,2024-05-06_20h13.06.799,face trait task,2021.2.3,MacIntel,58.82352941,120811,,,,,,,
,,,,,,3.92826087,3.11,space,0.503,0,26,26,20,1,21,image/21.jpg,0,0,,R_2KryIkmTCOb6eUU,2,2024-05-06_20h13.06.799,face trait task,2021.2.3,MacIntel,58.82352941,120811,,,,,,,
,,,,,,3.308695652,2.871,space,0.318,0,27,27,6,1,7,image/7.jpg,0,0,,R_2KryIkmTCOb6eUU,2,2024-05-06_20h13.06.799,face trait task,2021.2.3,MacIntel,58.82352941,120811,,,,,,,
,,,,,,4.489130435,1.226,space,0.568,0,28,28,15,1,16,image/16.jpg,0,0,,R_2KryIkmTCOb6eUU,2,2024-05-06_20h13.06.799,face trait task,2021.2.3,MacIntel,58.82352941,120811,,,,,,,
,,,,,,5.108695652,2.312,space,0.286,0,29,29,10,1,11,image/11.jpg,0,0,,R_2KryIkmTCOb6eUU,2,2024-05-06_20h13.06.799,face trait task,2021.2.3,MacIntel,58.82352941,120811,,,,,,,
,,,,,,5.917391304,1.596,space,0.468,0,30,30,21,1,22,image/22.jpg,0,0,,R_2KryIkmTCOb6eUU,2,2024-05-06_20h13.06.799,face trait task,2021.2.3,MacIntel,58.82352941,120811,,,,,,,
,,,,,,6.986956522,7.369,space,0.56,0,31,31,51,1,59,image/fill_img.png,1,7,Please move the slider all the way to the RIGHT to show that you are paying attention.,R_2KryIkmTCOb6eUU,2,2024-05-06_20h13.06.799,face trait task,2021.2.3,MacIntel,58.82352941,120811,,,,,,,
,,,,,,5.258695652,3.112,space,0.569,0,32,32,23,1,24,image/24.jpg,0,0,,R_2KryIkmTCOb6eUU,2,2024-05-06_20h13.06.799,face trait task,2021.2.3,MacIntel,58.82352941,120811,,,,,,,
,,,,,,6.113043478,3.187,space,0.536,0,33,33,13,1,14,image/14.jpg,0,0,,R_2KryIkmTCOb6eUU,2,2024-05-06_20h13.06.799,face trait task,2021.2.3,MacIntel,58.82352941,120811,,,,,,,
,,,,,,6.576086957,1.727,space,0.244,0,34,34,29,1,30,image/30.jpg,0,0,,R_2KryIkmTCOb6eUU,2,2024-05-06_20h13.06.799,face trait task,2021.2.3,MacIntel,58.82352941,120811,,,,,,,
,,,,,,6.367391304,1.476,space,0.319,0,35,35,37,1,38,image/38.jpg,0,0,,R_2KryIkmTCOb6eUU,2,2024-05-06_20h13.06.799,face trait task,2021.2.3,MacIntel,58.82352941,120811,,,,,,,
,,,,,,4.886956522,3.505,space,0.356,0,36,36,4,1,5,image/5.jpg,0,0,,R_2KryIkmTCOb6eUU,2,2024-05-06_20h13.06.799,face trait task,2021.2.3,MacIntel,58.82352941,120811,,,,,,,
,,,,,,4.019565217,3.485,space,0.221,0,37,37,49,1,50,image/50.jpg,0,0,,R_2KryIkmTCOb6eUU,2,2024-05-06_20h13.06.799,face trait task,2021.2.3,MacIntel,58.82352941,120811,,,,,,,
,,,,,,5.27173913,1.754,space,0.446,0,38,38,5,1,6,image/6.jpg,0,0,,R_2KryIkmTCOb6eUU,2,2024-05-06_20h13.06.799,face trait task,2021.2.3,MacIntel,58.82352941,120811,,,,,,,
,,,,,,3.719565217,1.576,space,0.485,0,39,39,48,1,49,image/49.jpg,0,0,,R_2KryIkmTCOb6eUU,2,2024-05-06_20h13.06.799,face trait task,2021.2.3,MacIntel,58.82352941,120811,,,,,,,
,,,,,,3.504347826,1.953,space,0.351,0,40,40,41,1,42,image/42.jpg,0,0,,R_2KryIkmTCOb6eUU,2,2024-05-06_20h13.06.799,face trait task,2021.2.3,MacIntel,58.82352941,120811,,,,,,,
,,,,,,4.652173913,1.727,space,0.309,0,41,41,22,1,23,image/23.jpg,0,0,,R_2KryIkmTCOb6eUU,2,2024-05-06_20h13.06.799,face trait task,2021.2.3,MacIntel,58.82352941,120811,,,,,,,
,,,,,,4.417391304,1.556,space,0.267,0,42,42,3,1,4,image/4.jpg,0,0,,R_2KryIkmTCOb6eUU,2,2024-05-06_20h13.06.799,face trait task,2021.2.3,MacIntel,58.82352941,120811,,,,,,,
,,,,,,5.323913043,1.478,space,0.301,0,43,43,18,1,19,image/19.jpg,0,0,,R_2KryIkmTCOb6eUU,2,2024-05-06_20h13.06.799,face trait task,2021.2.3,MacIntel,58.82352941,120811,,,,,,,
,,,,,,4.006521739,2.073,space,0.251,0,44,44,43,1,44,image/44.jpg,0,0,,R_2KryIkmTCOb6eUU,2,2024-05-06_20h13.06.799,face trait task,2021.2.3,MacIntel,58.82352941,120811,,,,,,,
,,,,,,5.252173913,2.088,space,0.587,0,45,45,39,1,40,image/40.jpg,0,0,,R_2KryIkmTCOb6eUU,2,2024-05-06_20h13.06.799,face trait task,2021.2.3,MacIntel,58.82352941,120811,,,,,,,
,,,,,,6.993478261,4.053,space,0.843,0,46,46,50,1,60,image/fill_img.png,1,7,Please move the slider all the way to the RIGHT to show that you are paying attention.,R_2KryIkmTCOb6eUU,2,2024-05-06_20h13.06.799,face trait task,2021.2.3,MacIntel,58.82352941,120811,,,,,,,
,,,,,,1.006521739,2.755,space,0.967,0,47,47,52,1,55,image/fill_img.png,1,1,Please move the slider all the way to the LEFT to show that you are paying attention.,R_2KryIkmTCOb6eUU,2,2024-05-06_20h13.06.799,face trait task,2021.2.3,MacIntel,58.82352941,120811,,,,,,,
,,,,,,4.07826087,2.126,space,0.644,0,48,48,2,1,3,image/3.jpg,0,0,,R_2KryIkmTCOb6eUU,2,2024-05-06_20h13.06.799,face trait task,2021.2.3,MacIntel,58.82352941,120811,,,,,,,
,,,,,,6.452173913,2.71,space,0.294,0,49,49,45,1,46,image/46.jpg,0,0,,R_2KryIkmTCOb6eUU,2,2024-05-06_20h13.06.799,face trait task,2021.2.3,MacIntel,58.82352941,120811,,,,,,,
,,,,,,4.234782609,1.704,space,0.227,0,50,50,26,1,27,image/27.jpg,0,0,,R_2KryIkmTCOb6eUU,2,2024-05-06_20h13.06.799,face trait task,2021.2.3,MacIntel,58.82352941,120811,,,,,,,
,,,,,,5.526086957,1.719,space,0.269,0,51,51,25,1,26,image/26.jpg,0,0,,R_2KryIkmTCOb6eUU,2,2024-05-06_20h13.06.799,face trait task,2021.2.3,MacIntel,58.82352941,120811,,,,,,,
,,,,,,4.560869565,2.793,space,0.277,0,52,52,9,1,10,image/10.jpg,0,0,,R_2KryIkmTCOb6eUU,2,2024-05-06_20h13.06.799,face trait task,2021.2.3,MacIntel,58.82352941,120811,,,,,,,
,,,,,,,,,,,,,,,,,,,,R_2KryIkmTCOb6eUU,2,2024-05-06_20h13.06.799,face trait task,2021.2.3,MacIntel,58.82352941,120811,0,0,0,0,1,0,critical.png
,,,,,friendly,1.013043478,3.971,space,0.667,0,0,0,52,1,55,image/fill_img.png,1,1,Please move the slider all the way to the LEFT to show that you are paying attention.,R_2KryIkmTCOb6eUU,2,2024-05-06_20h13.06.799,face trait task,2021.2.3,MacIntel,58.82352941,120811,,,,,,,
,,,,,,2.826086957,4.874,space,0.367,0,1,1,15,1,16,image/16.jpg,0,0,,R_2KryIkmTCOb6eUU,2,2024-05-06_20h13.06.799,face trait task,2021.2.3,MacIntel,58.82352941,120811,,,,,,,
,,,,,,4.926086957,5.361,space,0.518,0,2,2,40,1,41,image/41.jpg,0,0,,R_2KryIkmTCOb6eUU,2,2024-05-06_20h13.06.799,face trait task,2021.2.3,MacIntel,58.82352941,120811,,,,,,,
,,,,,,1.984782609,2.352,space,0.212,0,3,3,45,1,46,image/46.jpg,0,0,,R_2KryIkmTCOb6eUU,2,2024-05-06_20h13.06.799,face trait task,2021.2.3,MacIntel,58.82352941,120811,,,,,,,
,,,,,,1.984782609,8.304,space,0.687,0,4,4,39,1,40,image/40.jpg,0,0,,R_2KryIkmTCOb6eUU,2,2024-05-06_20h13.06.799,face trait task,2021.2.3,MacIntel,58.82352941,120811,,,,,,,
,,,,,,5.069565217,3.094,space,0.677,0,5,5,11,1,12,image/12.jpg,0,0,,R_2KryIkmTCOb6eUU,2,2024-05-06_20h13.06.799,face trait task,2021.2.3,MacIntel,58.82352941,120811,,,,,,,
,,,,,,1.82826087,2.902,space,0.305,0,6,6,9,1,10,image/10.jpg,0,0,,R_2KryIkmTCOb6eUU,2,2024-05-06_20h13.06.799,face trait task,2021.2.3,MacIntel,58.82352941,120811,,,,,,,
,,,,,,2.095652174,2.353,space,0.708,0,7,7,23,1,24,image/24.jpg,0,0,,R_2KryIkmTCOb6eUU,2,2024-05-06_20h13.06.799,face trait task,2021.2.3,MacIntel,58.82352941,120811,,,,,,,
,,,,,,3.817391304,3.988,space,0.317,0,8,8,44,1,45,image/45.jpg,0,0,,R_2KryIkmTCOb6eUU,2,2024-05-06_20h13.06.799,face trait task,2021.2.3,MacIntel,58.82352941,120811,,,,,,,
,,,,,,4.723913043,3.208,space,0.286,0,9,9,5,1,6,image/6.jpg,0,0,,R_2KryIkmTCOb6eUU,2,2024-05-06_20h13.06.799,face trait task,2021.2.3,MacIntel,58.82352941,120811,,,,,,,
,,,,,,4.991304348,2.288,space,0.37,0,10,10,3,1,4,image/4.jpg,0,0,,R_2KryIkmTCOb6eUU,2,2024-05-06_20h13.06.799,face trait task,2021.2.3,MacIntel,58.82352941,120811,,,,,,,
,,,,,,2.780434783,2.743,space,0.452,0,11,11,28,1,29,image/29.jpg,0,0,,R_2KryIkmTCOb6eUU,2,2024-05-06_20h13.06.799,face trait task,2021.2.3,MacIntel,58.82352941,120811,,,,,,,
,,,,,,2.597826087,1.792,space,0.625,0,12,12,31,1,32,image/32.jpg,0,0,,R_2KryIkmTCOb6eUU,2,2024-05-06_20h13.06.799,face trait task,2021.2.3,MacIntel,58.82352941,120811,,,,,,,
,,,,,,4.241304348,4.468,space,0.701,0,13,13,26,1,27,image/27.jpg,0,0,,R_2KryIkmTCOb6eUU,2,2024-05-06_20h13.06.799,face trait task,2021.2.3,MacIntel,58.82352941,120811,,,,,,,
,,,,,,5.180434783,2.577,space,0.518,0,14,14,36,1,37,image/37.jpg,0,0,,R_2KryIkmTCOb6eUU,2,2024-05-06_20h13.06.799,face trait task,2021.2.3,MacIntel,58.82352941,120811,,,,,,,
,,,,,,3.465217391,2.785,space,0.253,0,15,15,32,1,33,image/33.jpg,0,0,,R_2KryIkmTCOb6eUU,2,2024-05-06_20h13.06.799,face trait task,2021.2.3,MacIntel,58.82352941,120811,,,,,,,
,,,,,,2.030434783,3.208,space,0.369,0,16,16,16,1,17,image/17.jpg,0,0,,R_2KryIkmTCOb6eUU,2,2024-05-06_20h13.06.799,face trait task,2021.2.3,MacIntel,58.82352941,120811,,,,,,,
,,,,,,1.886956522,2.688,space,0.491,0,17,17,38,1,39,image/39.jpg,0,0,,R_2KryIkmTCOb6eUU,2,2024-05-06_20h13.06.799,face trait task,2021.2.3,MacIntel,58.82352941,120811,,,,,,,
,,,,,,3.706521739,3.588,space,0.37,0,18,18,27,1,28,image/28.jpg,0,0,,R_2KryIkmTCOb6eUU,2,2024-05-06_20h13.06.799,face trait task,2021.2.3,MacIntel,58.82352941,120811,,,,,,,
,,,,,,4.384782609,3.254,space,0.75,0,19,19,43,1,44,image/44.jpg,0,0,,R_2KryIkmTCOb6eUU,2,2024-05-06_20h13.06.799,face trait task,2021.2.3,MacIntel,58.82352941,120811,,,,,,,
,,,,,,6.967391304,5.803,space,1.038,0,20,20,51,1,59,image/fill_img.png,1,7,Please move the slider all the way to the RIGHT to show that you are paying attention.,R_2KryIkmTCOb6eUU,2,2024-05-06_20h13.06.799,face trait task,2021.2.3,MacIntel,58.82352941,120811,,,,,,,
,,,,,,3.289130435,4.101,space,0.721,0,21,21,0,1,1,image/1.jpg,0,0,,R_2KryIkmTCOb6eUU,2,2024-05-06_20h13.06.799,face trait task,2021.2.3,MacIntel,58.82352941,120811,,,,,,,
,,,,,,2.865217391,2.488,space,0.505,0,22,22,25,1,26,image/26.jpg,0,0,,R_2KryIkmTCOb6eUU,2,2024-05-06_20h13.06.799,face trait task,2021.2.3,MacIntel,58.82352941,120811,,,,,,,
,,,,,,3.92826087,3.769,space,0.318,0,23,23,42,1,43,image/43.jpg,0,0,,R_2KryIkmTCOb6eUU,2,2024-05-06_20h13.06.799,face trait task,2021.2.3,MacIntel,58.82352941,120811,,,,,,,
,,,,,,3.902173913,2.596,space,0.719,0,24,24,8,1,9,image/9.jpg,0,0,,R_2KryIkmTCOb6eUU,2,2024-05-06_20h13.06.799,face trait task,2021.2.3,MacIntel,58.82352941,120811,,,,,,,
,,,,,,4.743478261,2.394,space,0.305,0,25,25,49,1,50,image/50.jpg,0,0,,R_2KryIkmTCOb6eUU,2,2024-05-06_20h13.06.799,face trait task,2021.2.3,MacIntel,58.82352941,120811,,,,,,,
,,,,,,3.973913043,2.222,space,0.368,0,26,26,41,1,42,image/42.jpg,0,0,,R_2KryIkmTCOb6eUU,2,2024-05-06_20h13.06.799,face trait task,2021.2.3,MacIntel,58.82352941,120811,,,,,,,
,,,,,,5.891304348,1.874,space,0.305,0,27,27,34,1,35,image/35.jpg,0,0,,R_2KryIkmTCOb6eUU,2,2024-05-06_20h13.06.799,face trait task,2021.2.3,MacIntel,58.82352941,120811,,,,,,,
,,,,,,4.358695652,2.895,space,0.34,0,28,28,22,1,23,image/23.jpg,0,0,,R_2KryIkmTCOb6eUU,2,2024-05-06_20h13.06.799,face trait task,2021.2.3,MacIntel,58.82352941,120811,,,,,,,
,,,,,,1.436956522,3.211,space,0.536,0,29,29,30,1,31,image/31.jpg,0,0,,R_2KryIkmTCOb6eUU,2,2024-05-06_20h13.06.799,face trait task,2021.2.3,MacIntel,58.82352941,120811,,,,,,,
,,,,,,4.626086957,2.585,space,0.284,0,30,30,47,1,48,image/48.jpg,0,0,,R_2KryIkmTCOb6eUU,2,2024-05-06_20h13.06.799,face trait task,2021.2.3,MacIntel,58.82352941,120811,,,,,,,
,,,,,,4.489130435,2.256,space,0.387,0,31,31,4,1,5,image/5.jpg,0,0,,R_2KryIkmTCOb6eUU,2,2024-05-06_20h13.06.799,face trait task,2021.2.3,MacIntel,58.82352941,120811,,,,,,,
,,,,,,4.286956522,1.405,space,0.285,0,32,32,2,1,3,image/3.jpg,0,0,,R_2KryIkmTCOb6eUU,2,2024-05-06_20h13.06.799,face trait task,2021.2.3,MacIntel,58.82352941,120811,,,,,,,
,,,,,,4.352173913,1.334,space,0.245,0,33,33,35,1,36,image/36.jpg,0,0,,R_2KryIkmTCOb6eUU,2,2024-05-06_20h13.06.799,face trait task,2021.2.3,MacIntel,58.82352941,120811,,,,,,,
,,,,,,4.339130435,1.106,space,0.709,0,34,34,14,1,15,image/15.jpg,0,0,,R_2KryIkmTCOb6eUU,2,2024-05-06_20h13.06.799,face trait task,2021.2.3,MacIntel,58.82352941,120811,,,,,,,
,,,,,,6.993478261,3.194,space,1.155,0,35,35,50,1,60,image/fill_img.png,1,7,Please move the slider all the way to the RIGHT to show that you are paying attention.,R_2KryIkmTCOb6eUU,2,2024-05-06_20h13.06.799,face trait task,2021.2.3,MacIntel,58.82352941,120811,,,,,,,
,,,,,,3.895652174,2.043,space,0.604,0,36,36,7,1,8,image/8.jpg,0,0,,R_2KryIkmTCOb6eUU,2,2024-05-06_20h13.06.799,face trait task,2021.2.3,MacIntel,58.82352941,120811,,,,,,,
,,,,,,3.908695652,1.322,space,0.319,0,37,37,6,1,7,image/7.jpg,0,0,,R_2KryIkmTCOb6eUU,2,2024-05-06_20h13.06.799,face trait task,2021.2.3,MacIntel,58.82352941,120811,,,,,,,
,,,,,,3.791304348,4.445,space,0.353,0,38,38,37,1,38,image/38.jpg,0,0,,R_2KryIkmTCOb6eUU,2,2024-05-06_20h13.06.799,face trait task,2021.2.3,MacIntel,58.82352941,120811,,,,,,,
,,,,,,2.434782609,2.721,space,0.285,0,39,39,13,1,14,image/14.jpg,0,0,,R_2KryIkmTCOb6eUU,2,2024-05-06_20h13.06.799,face trait task,2021.2.3,MacIntel,58.82352941,120811,,,,,,,
,,,,,,2.741304348,5.895,space,0.652,0,40,40,21,1,22,image/22.jpg,0,0,,R_2KryIkmTCOb6eUU,2,2024-05-06_20h13.06.799,face trait task,2021.2.3,MacIntel,58.82352941,120811,,,,,,,
,,,,,,2.57173913,5.553,space,0.335,0,41,41,46,1,47,image/47.jpg,0,0,,R_2KryIkmTCOb6eUU,2,2024-05-06_20h13.06.799,face trait task,2021.2.3,MacIntel,58.82352941,120811,,,,,,,
,,,,,,5.258695652,5.442,space,0.335,0,42,42,20,1,21,image/21.jpg,0,0,,R_2KryIkmTCOb6eUU,2,2024-05-06_20h13.06.799,face trait task,2021.2.3,MacIntel,58.82352941,120811,,,,,,,
,,,,,,5.063043478,2.488,space,0.593,0,43,43,24,1,25,image/25.jpg,0,0,,R_2KryIkmTCOb6eUU,2,2024-05-06_20h13.06.799,face trait task,2021.2.3,MacIntel,58.82352941,120811,,,,,,,
,,,,,,5.252173913,2.826,space,0.617,0,44,44,48,1,49,image/49.jpg,0,0,,R_2KryIkmTCOb6eUU,2,2024-05-06_20h13.06.799,face trait task,2021.2.3,MacIntel,58.82352941,120811,,,,,,,
,,,,,,3.615217391,3.889,space,0.251,0,45,45,17,1,18,image/18.jpg,0,0,,R_2KryIkmTCOb6eUU,2,2024-05-06_20h13.06.799,face trait task,2021.2.3,MacIntel,58.82352941,120811,,,,,,,
,,,,,,3.595652174,4.12,space,0.319,0,46,46,29,1,30,image/30.jpg,0,0,,R_2KryIkmTCOb6eUU,2,2024-05-06_20h13.06.799,face trait task,2021.2.3,MacIntel,58.82352941,120811,,,,,,,
,,,,,,3.85,5.839,space,0.259,0,47,47,10,1,11,image/11.jpg,0,0,,R_2KryIkmTCOb6eUU,2,2024-05-06_20h13.06.799,face trait task,2021.2.3,MacIntel,58.82352941,120811,,,,,,,
,,,,,,3.765217391,5.09,space,0.272,0,48,48,1,1,2,image/2.jpg,0,0,,R_2KryIkmTCOb6eUU,2,2024-05-06_20h13.06.799,face trait task,2021.2.3,MacIntel,58.82352941,120811,,,,,,,
,,,,,,3.497826087,3.37,space,0.536,0,49,49,33,1,34,image/34.jpg,0,0,,R_2KryIkmTCOb6eUU,2,2024-05-06_20h13.06.799,face trait task,2021.2.3,MacIntel,58.82352941,120811,,,,,,,
,,,,,,3.041304348,2.623,space,0.376,0,50,50,12,1,13,image/13.jpg,0,0,,R_2KryIkmTCOb6eUU,2,2024-05-06_20h13.06.799,face trait task,2021.2.3,MacIntel,58.82352941,120811,,,,,,,
,,,,,,4.436956522,1.453,space,0.655,0,51,51,19,1,20,image/20.jpg,0,0,,R_2KryIkmTCOb6eUU,2,2024-05-06_20h13.06.799,face trait task,2021.2.3,MacIntel,58.82352941,120811,,,,,,,
,,,,,,3.015217391,1.32,space,0.51,0,52,52,18,1,19,image/19.jpg,0,0,,R_2KryIkmTCOb6eUU,2,2024-05-06_20h13.06.799,face trait task,2021.2.3,MacIntel,58.82352941,120811,,,,,,,
,,,,,,,,,,,,,,,,,,,,R_2KryIkmTCOb6eUU,2,2024-05-06_20h13.06.799,face trait task,2021.2.3,MacIntel,58.82352941,120811,0,1,1,3,1,3,friendly.png
,,,,,trustworthy,4.045652174,3.479,space,0.801,0,0,0,14,1,15,image/15.jpg,0,0,,R_2KryIkmTCOb6eUU,2,2024-05-06_20h13.06.799,face trait task,2021.2.3,MacIntel,58.82352941,120811,,,,,,,
,,,,,,4.006521739,4.074,space,1.325,0,1,1,35,1,36,image/36.jpg,0,0,,R_2KryIkmTCOb6eUU,2,2024-05-06_20h13.06.799,face trait task,2021.2.3,MacIntel,58.82352941,120811,,,,,,,
,,,,,,5.030434783,3.454,space,0.452,0,2,2,20,1,21,image/21.jpg,0,0,,R_2KryIkmTCOb6eUU,2,2024-05-06_20h13.06.799,face trait task,2021.2.3,MacIntel,58.82352941,120811,,,,,,,
,,,,,,3.034782609,2.393,space,0.335,0,3,3,13,1,14,image/14.jpg,0,0,,R_2KryIkmTCOb6eUU,2,2024-05-06_20h13.06.799,face trait task,2021.2.3,MacIntel,58.82352941,120811,,,,,,,
,,,,,,2.304347826,2.81,space,0.241,0,4,4,39,1,40,image/40.jpg,0,0,,R_2KryIkmTCOb6eUU,2,2024-05-06_20h13.06.799,face trait task,2021.2.3,MacIntel,58.82352941,120811,,,,,,,
,,,,,,5.017391304,3.446,space,0.778,0,5,5,43,1,44,image/44.jpg,0,0,,R_2KryIkmTCOb6eUU,2,2024-05-06_20h13.06.799,face trait task,2021.2.3,MacIntel,58.82352941,120811,,,,,,,
,,,,,,1,2.762,space,0.925,0,6,6,52,1,55,image/fill_img.png,1,1,Please move the slider all the way to the LEFT to show that you are paying attention.,R_2KryIkmTCOb6eUU,2,2024-05-06_20h13.06.799,face trait task,2021.2.3,MacIntel,58.82352941,120811,,,,,,,
,,,,,,5.010869565,3.537,space,0.701,0,7,7,31,1,32,image/32.jpg,0,0,,R_2KryIkmTCOb6eUU,2,2024-05-06_20h13.06.799,face trait task,2021.2.3,MacIntel,58.82352941,120811,,,,,,,
,,,,,,2.976086957,16.504,space,0.525,0,8,8,23,1,24,image/24.jpg,0,0,,R_2KryIkmTCOb6eUU,2,2024-05-06_20h13.06.799,face trait task,2021.2.3,MacIntel,58.82352941,120811,,,,,,,
,,,,,,2.963043478,8.804,space,0.469,0,9,9,18,1,19,image/19.jpg,0,0,,R_2KryIkmTCOb6eUU,2,2024-05-06_20h13.06.799,face trait task,2021.2.3,MacIntel,58.82352941,120811,,,,,,,
,,,,,,2.989130435,4.535,space,0.355,0,10,10,17,1,18,image/18.jpg,0,0,,R_2KryIkmTCOb6eUU,2,2024-05-06_20h13.06.799,face trait task,2021.2.3,MacIntel,58.82352941,120811,,,,,,,
,,,,,,2.982608696,12.854,space,0.783,0,11,11,8,1,9,image/9.jpg,0,0,,R_2KryIkmTCOb6eUU,2,2024-05-06_20h13.06.799,face trait task,2021.2.3,MacIntel,58.82352941,120811,,,,,,,
,,,,,,3.041304348,8.743,space,0.35,0,12,12,25,1,26,image/26.jpg,0,0,,R_2KryIkmTCOb6eUU,2,2024-05-06_20h13.06.799,face trait task,2021.2.3,MacIntel,58.82352941,120811,,,,,,,
,,,,,,2.669565217,3.789,space,0.691,0,13,13,47,1,48,image/48.jpg,0,0,,R_2KryIkmTCOb6eUU,2,2024-05-06_20h13.06.799,face trait task,2021.2.3,MacIntel,58.82352941,120811,,,,,,,
,,,,,,5.036956522,2.638,space,0.35,0,14,14,2,1,3,image/3.jpg,0,0,,R_2KryIkmTCOb6eUU,2,2024-05-06_20h13.06.799,face trait task,2021.2.3,MacIntel,58.82352941,120811,,,,,,,
,,,,,,1.991304348,2.194,space,0.271,0,15,15,21,1,22,image/22.jpg,0,0,,R_2KryIkmTCOb6eUU,2,2024-05-06_20h13.06.799,face trait task,2021.2.3,MacIntel,58.82352941,120811,,,,,,,
,,,,,,2.017391304,2.704,space,0.319,0,16,16,38,1,39,image/39.jpg,0,0,,R_2KryIkmTCOb6eUU,2,2024-05-06_20h13.06.799,face trait task,2021.2.3,MacIntel,58.82352941,120811,,,,,,,
,,,,,,4.286956522,3.42,space,0.267,0,17,17,3,1,4,image/4.jpg,0,0,,R_2KryIkmTCOb6eUU,2,2024-05-06_20h13.06.799,face trait task,2021.2.3,MacIntel,58.82352941,120811,,,,,,,
,,,,,,3.008695652,2.905,space,1.02,0,18,18,5,1,6,image/6.jpg,0,0,,R_2KryIkmTCOb6eUU,2,2024-05-06_20h13.06.799,face trait task,2021.2.3,MacIntel,58.82352941,120811,,,,,,,
,,,,,,2.989130435,3.354,space,0.568,0,19,19,19,1,20,image/20.jpg,0,0,,R_2KryIkmTCOb6eUU,2,2024-05-06_20h13.06.799,face trait task,2021.2.3,MacIntel,58.82352941,120811,,,,,,,
,,,,,,6.993478261,4.272,space,0.908,0,20,20,51,1,59,image/fill_img.png,1,7,Please move the slider all the way to the RIGHT to show that you are paying attention.,R_2KryIkmTCOb6eUU,2,2024-05-06_20h13.06.799,face trait task,2021.2.3,MacIntel,58.82352941,120811,,,,,,,
,,,,,,3.993478261,5.103,space,0.388,0,21,21,42,1,43,image/43.jpg,0,0,,R_2KryIkmTCOb6eUU,2,2024-05-06_20h13.06.799,face trait task,2021.2.3,MacIntel,58.82352941,120811,,,,,,,
,,,,,,2.017391304,3.289,space,0.351,0,22,22,45,1,46,image/46.jpg,0,0,,R_2KryIkmTCOb6eUU,2,2024-05-06_20h13.06.799,face trait task,2021.2.3,MacIntel,58.82352941,120811,,,,,,,
,,,,,,4.997826087,2.36,space,0.327,0,23,23,40,1,41,image/41.jpg,0,0,,R_2KryIkmTCOb6eUU,2,2024-05-06_20h13.06.799,face trait task,2021.2.3,MacIntel,58.82352941,120811,,,,,,,
,,,,,,3.973913043,2.201,space,0.292,0,24,24,33,1,34,image/34.jpg,0,0,,R_2KryIkmTCOb6eUU,2,2024-05-06_20h13.06.799,face trait task,2021.2.3,MacIntel,58.82352941,120811,,,,,,,
,,,,,,2.030434783,4.354,space,0.368,0,25,25,27,1,28,image/28.jpg,0,0,,R_2KryIkmTCOb6eUU,2,2024-05-06_20h13.06.799,face trait task,2021.2.3,MacIntel,58.82352941,120811,,,,,,,
,,,,,,4.997826087,4.371,space,0.277,0,26,26,11,1,12,image/12.jpg,0,0,,R_2KryIkmTCOb6eUU,2,2024-05-06_20h13.06.799,face trait task,2021.2.3,MacIntel,58.82352941,120811,,,,,,,
,,,,,,2.95,1.489,space,0.384,0,27,27,0,1,1,image/1.jpg,0,0,,R_2KryIkmTCOb6eUU,2,2024-05-06_20h13.06.799,face trait task,2021.2.3,MacIntel,58.82352941,120811,,,,,,,
,,,,,,3.941304348,1.57,space,0.351,0,28,28,9,1,10,image/10.jpg,0,0,,R_2KryIkmTCOb6eUU,2,2024-05-06_20h13.06.799,face trait task,2021.2.3,MacIntel,58.82352941,120811,,,,,,,
,,,,,,4.065217391,3.044,space,0.295,0,29,29,44,1,45,image/45.jpg,0,0,,R_2KryIkmTCOb6eUU,2,2024-05-06_20h13.06.799,face trait task,2021.2.3,MacIntel,58.82352941,120811,,,,,,,
,,,,,,4.37173913,1.795,space,0.388,0,30,30,4,1,5,image/5.jpg,0,0,,R_2KryIkmTCOb6eUU,2,2024-05-06_20h13.06.799,face trait task,2021.2.3,MacIntel,58.82352941,120811,,,,,,,
,,,,,,4.834782609,1.577,space,0.269,0,31,31,49,1,50,image/50.jpg,0,0,,R_2KryIkmTCOb6eUU,2,2024-05-06_20h13.06.799,face trait task,2021.2.3,MacIntel,58.82352941,120811,,,,,,,
,,,,,,3.132608696,2.057,space,0.293,0,32,32,26,1,27,image/27.jpg,0,0,,R_2KryIkmTCOb6eUU,2,2024-05-06_20h13.06.799,face trait task,2021.2.3,MacIntel,58.82352941,120811,,,,,,,
,,,,,,2.010869565,3.076,space,0.319,0,33,33,29,1,30,image/30.jpg,0,0,,R_2KryIkmTCOb6eUU,2,2024-05-06_20h13.06.799,face trait task,2021.2.3,MacIntel,58.82352941,120811,,,,,,,
,,,,,,3.015217391,6.344,space,0.675,0,34,34,41,1,42,image/42.jpg,0,0,,R_2KryIkmTCOb6eUU,2,2024-05-06_20h13.06.799,face trait task,2021.2.3,MacIntel,58.82352941,120811,,,,,,,
,,,,,,3.934782609,1.868,space,0.202,0,35,35,48,1,49,image/49.jpg,0,0,,R_2KryIkmTCOb6eUU,2,2024-05-06_20h13.06.799,face trait task,2021.2.3,MacIntel,58.82352941,120811,,,,,,,
,,,,,,3.073913043,1.943,space,0.252,0,36,36,28,1,29,image/29.jpg,0,0,,R_2KryIkmTCOb6eUU,2,2024-05-06_20h13.06.799,face trait task,2021.2.3,MacIntel,58.82352941,120811,,,,,,,
,,,,,,3.041304348,5.406,space,0.284,0,37,37,6,1,7,image/7.jpg,0,0,,R_2KryIkmTCOb6eUU,2,2024-05-06_20h13.06.799,face trait task,2021.2.3,MacIntel,58.82352941,120811,,,,,,,
,,,,,,3.034782609,3.645,space,0.418,0,38,38,1,1,2,image/2.jpg,0,0,,R_2KryIkmTCOb6eUU,2,2024-05-06_20h13.06.799,face trait task,2021.2.3,MacIntel,58.82352941,120811,,,,,,,
,,,,,,2.95,9.088,space,0.239,0,39,39,7,1,8,image/8.jpg,0,0,,R_2KryIkmTCOb6eUU,2,2024-05-06_20h13.06.799,face trait task,2021.2.3,MacIntel,58.82352941,120811,,,,,,,
,,,,,,5.004347826,5.609,space,0.735,0,40,40,34,1,35,image/35.jpg,0,0,,R_2KryIkmTCOb6eUU,2,2024-05-06_20h13.06.799,face trait task,2021.2.3,MacIntel,58.82352941,120811,,,,,,,
,,,,,,3.836956522,1.877,space,0.575,0,41,41,10,1,11,image/11.jpg,0,0,,R_2KryIkmTCOb6eUU,2,2024-05-06_20h13.06.799,face trait task,2021.2.3,MacIntel,58.82352941,120811,,,,,,,
,,,,,,3.02173913,4.412,space,0.342,0,42,42,12,1,13,image/13.jpg,0,0,,R_2KryIkmTCOb6eUU,2,2024-05-06_20h13.06.799,face trait task,2021.2.3,MacIntel,58.82352941,120811,,,,,,,
,,,,,,2.010869565,3.272,space,0.335,0,43,43,16,1,17,image/17.jpg,0,0,,R_2KryIkmTCOb6eUU,2,2024-05-06_20h13.06.799,face trait task,2021.2.3,MacIntel,58.82352941,120811,,,,,,,
,,,,,,3.02826087,2.787,space,1.027,0,44,44,46,1,47,image/47.jpg,0,0,,R_2KryIkmTCOb6eUU,2,2024-05-06_20h13.06.799,face trait task,2021.2.3,MacIntel,58.82352941,120811,,,,,,,
,,,,,,4.991304348,2.086,space,0.685,0,45,45,36,1,37,image/37.jpg,0,0,,R_2KryIkmTCOb6eUU,2,2024-05-06_20h13.06.799,face trait task,2021.2.3,MacIntel,58.82352941,120811,,,,,,,
,,,,,,4.058695652,2.856,space,0.406,0,46,46,15,1,16,image/16.jpg,0,0,,R_2KryIkmTCOb6eUU,2,2024-05-06_20h13.06.799,face trait task,2021.2.3,MacIntel,58.82352941,120811,,,,,,,
,,,,,,3.980434783,1.954,space,0.303,0,47,47,37,1,38,image/38.jpg,0,0,,R_2KryIkmTCOb6eUU,2,2024-05-06_20h13.06.799,face trait task,2021.2.3,MacIntel,58.82352941,120811,,,,,,,
,,,,,,2.969565217,2.104,space,0.24,0,48,48,32,1,33,image/33.jpg,0,0,,R_2KryIkmTCOb6eUU,2,2024-05-06_20h13.06.799,face trait task,2021.2.3,MacIntel,58.82352941,120811,,,,,,,
,,,,,,1,3.635,space,0.252,0,49,49,30,1,31,image/31.jpg,0,0,,R_2KryIkmTCOb6eUU,2,2024-05-06_20h13.06.799,face trait task,2021.2.3,MacIntel,58.82352941,120811,,,,,,,
,,,,,,2.663043478,1.834,space,0.424,0,50,50,24,1,25,image/25.jpg,0,0,,R_2KryIkmTCOb6eUU,2,2024-05-06_20h13.06.799,face trait task,2021.2.3,MacIntel,58.82352941,120811,,,,,,,
,,,,,,3.302173913,2.121,space,0.478,0,51,51,22,1,23,image/23.jpg,0,0,,R_2KryIkmTCOb6eUU,2,2024-05-06_20h13.06.799,face trait task,2021.2.3,MacIntel,58.82352941,120811,,,,,,,
,,,,,,6.954347826,3.625,space,1.059,0,52,52,50,1,60,image/fill_img.png,1,7,Please move the slider all the way to the RIGHT to show that you are paying attention.,R_2KryIkmTCOb6eUU,2,2024-05-06_20h13.06.799,face trait task,2021.2.3,MacIntel,58.82352941,120811,,,,,,,
,,,,,,,,,,,,,,,,,,,,R_2KryIkmTCOb6eUU,2,2024-05-06_20h13.06.799,face trait task,2021.2.3,MacIntel,58.82352941,120811,0,2,2,2,1,2,trustworthy.png
,,,,,competent,6.960869565,8.3,space,0.283,0,0,0,35,1,36,image/36.jpg,0,0,,R_2KryIkmTCOb6eUU,2,2024-05-06_20h13.06.799,face trait task,2021.2.3,MacIntel,58.82352941,120811,,,,,,,
,,,,,,6.993478261,1.858,space,0.691,0,1,1,37,1,38,image/38.jpg,0,0,,R_2KryIkmTCOb6eUU,2,2024-05-06_20h13.06.799,face trait task,2021.2.3,MacIntel,58.82352941,120811,,,,,,,
,,,,,,6.830434783,1.505,space,0.691,0,2,2,43,1,44,image/44.jpg,0,0,,R_2KryIkmTCOb6eUU,2,2024-05-06_20h13.06.799,face trait task,2021.2.3,MacIntel,58.82352941,120811,,,,,,,
,,,,,,6.354347826,3.006,space,0.672,0,3,3,49,1,50,image/50.jpg,0,0,,R_2KryIkmTCOb6eUU,2,2024-05-06_20h13.06.799,face trait task,2021.2.3,MacIntel,58.82352941,120811,,,,,,,
,,,,,,6.908695652,2.346,space,0.327,0,4,4,15,1,16,image/16.jpg,0,0,,R_2KryIkmTCOb6eUU,2,2024-05-06_20h13.06.799,face trait task,2021.2.3,MacIntel,58.82352941,120811,,,,,,,
,,,,,,6.817391304,2.276,space,0.452,0,5,5,38,1,39,image/39.jpg,0,0,,R_2KryIkmTCOb6eUU,2,2024-05-06_20h13.06.799,face trait task,2021.2.3,MacIntel,58.82352941,120811,,,,,,,
,,,,,,6.876086957,1.301,space,0.302,0,6,6,34,1,35,image/35.jpg,0,0,,R_2KryIkmTCOb6eUU,2,2024-05-06_20h13.06.799,face trait task,2021.2.3,MacIntel,58.82352941,120811,,,,,,,
,,,,,,6.608695652,2.228,space,0.4,0,7,7,2,1,3,image/3.jpg,0,0,,R_2KryIkmTCOb6eUU,2,2024-05-06_20h13.06.799,face trait task,2021.2.3,MacIntel,58.82352941,120811,,,,,,,
,,,,,,6.77826087,3.356,space,0.589,0,8,8,27,1,28,image/28.jpg,0,0,,R_2KryIkmTCOb6eUU,2,2024-05-06_20h13.06.799,face trait task,2021.2.3,MacIntel,58.82352941,120811,,,,,,,
,,,,,,6.954347826,3.767,space,0.783,0,9,9,51,1,59,image/fill_img.png,1,7,Please move the slider all the way to the RIGHT to show that you are paying attention.,R_2KryIkmTCOb6eUU,2,2024-05-06_20h13.06.799,face trait task,2021.2.3,MacIntel,58.82352941,120811,,,,,,,
,,,,,,6.810869565,2.394,space,0.385,0,10,10,21,1,22,image/22.jpg,0,0,,R_2KryIkmTCOb6eUU,2,2024-05-06_20h13.06.799,face trait task,2021.2.3,MacIntel,58.82352941,120811,,,,,,,
,,,,,,1.026086957,3.087,space,0.669,0,11,11,52,1,55,image/fill_img.png,1,1,Please move the slider all the way to the LEFT to show that you are paying attention.,R_2KryIkmTCOb6eUU,2,2024-05-06_20h13.06.799,face trait task,2021.2.3,MacIntel,58.82352941,120811,,,,,,,
,,,,,,6.256521739,2.953,space,0.802,0,12,12,46,1,47,image/47.jpg,0,0,,R_2KryIkmTCOb6eUU,2,2024-05-06_20h13.06.799,face trait task,2021.2.3,MacIntel,58.82352941,120811,,,,,,,
,,,,,,6.1,5.203,space,0.367,0,13,13,30,1,31,image/31.jpg,0,0,,R_2KryIkmTCOb6eUU,2,2024-05-06_20h13.06.799,face trait task,2021.2.3,MacIntel,58.82352941,120811,,,,,,,
,,,,,,6.4,2.835,space,0.325,0,14,14,45,1,46,image/46.jpg,0,0,,R_2KryIkmTCOb6eUU,2,2024-05-06_20h13.06.799,face trait task,2021.2.3,MacIntel,58.82352941,120811,,,,,,,
,,,,,,6.967391304,2.105,space,0.351,0,15,15,24,1,25,image/25.jpg,0,0,,R_2KryIkmTCOb6eUU,2,2024-05-06_20h13.06.799,face trait task,2021.2.3,MacIntel,58.82352941,120811,,,,,,,
,,,,,,6.856521739,1.851,space,0.287,0,16,16,1,1,2,image/2.jpg,0,0,,R_2KryIkmTCOb6eUU,2,2024-05-06_20h13.06.799,face trait task,2021.2.3,MacIntel,58.82352941,120811,,,,,,,
,,,,,,6.941304348,1.473,space,0.393,0,17,17,11,1,12,image/12.jpg,0,0,,R_2KryIkmTCOb6eUU,2,2024-05-06_20h13.06.799,face trait task,2021.2.3,MacIntel,58.82352941,120811,,,,,,,
,,,,,,6.634782609,1.937,space,0.351,0,18,18,41,1,42,image/42.jpg,0,0,,R_2KryIkmTCOb6eUU,2,2024-05-06_20h13.06.799,face trait task,2021.2.3,MacIntel,58.82352941,120811,,,,,,,
,,,,,,6.713043478,1.458,space,0.378,0,19,19,31,1,32,image/32.jpg,0,0,,R_2KryIkmTCOb6eUU,2,2024-05-06_20h13.06.799,face trait task,2021.2.3,MacIntel,58.82352941,120811,,,,,,,
,,,,,,6.804347826,3.488,space,0.44,0,20,20,10,1,11,image/11.jpg,0,0,,R_2KryIkmTCOb6eUU,2,2024-05-06_20h13.06.799,face trait task,2021.2.3,MacIntel,58.82352941,120811,,,,,,,
,,,,,,6.889130435,1.858,space,0.735,0,21,21,42,1,43,image/43.jpg,0,0,,R_2KryIkmTCOb6eUU,2,2024-05-06_20h13.06.799,face trait task,2021.2.3,MacIntel,58.82352941,120811,,,,,,,
,,,,,,6.745652174,1.627,space,0.466,0,22,22,17,1,18,image/18.jpg,0,0,,R_2KryIkmTCOb6eUU,2,2024-05-06_20h13.06.799,face trait task,2021.2.3,MacIntel,58.82352941,120811,,,,,,,
,,,,,,6.77173913,1.288,space,0.635,0,23,23,18,1,19,image/19.jpg,0,0,,R_2KryIkmTCOb6eUU,2,2024-05-06_20h13.06.799,face trait task,2021.2.3,MacIntel,58.82352941,120811,,,,,,,
,,,,,,6.77173913,1.207,space,0.323,0,24,24,6,1,7,image/7.jpg,0,0,,R_2KryIkmTCOb6eUU,2,2024-05-06_20h13.06.799,face trait task,2021.2.3,MacIntel,58.82352941,120811,,,,,,,
,,,,,,6.119565217,2.971,space,0.284,0,25,25,14,1,15,image/15.jpg,0,0,,R_2KryIkmTCOb6eUU,2,2024-05-06_20h13.06.799,face trait task,2021.2.3,MacIntel,58.82352941,120811,,,,,,,
,,,,,,6.836956522,2.83,space,1.536,0,26,26,26,1,27,image/27.jpg,0,0,,R_2KryIkmTCOb6eUU,2,2024-05-06_20h13.06.799,face trait task,2021.2.3,MacIntel,58.82352941,120811,,,,,,,
,,,,,,6.791304348,2.12,space,0.376,0,27,27,39,1,40,image/40.jpg,0,0,,R_2KryIkmTCOb6eUU,2,2024-05-06_20h13.06.799,face trait task,2021.2.3,MacIntel,58.82352941,120811,,,,,,,
,,,,,,6.739130435,2.468,space,0.249,0,28,28,4,1,5,image/5.jpg,0,0,,R_2KryIkmTCOb6eUU,2,2024-05-06_20h13.06.799,face trait task,2021.2.3,MacIntel,58.82352941,120811,,,,,,,
,,,,,,6.758695652,1.87,space,0.301,0,29,29,28,1,29,image/29.jpg,0,0,,R_2KryIkmTCOb6eUU,2,2024-05-06_20h13.06.799,face trait task,2021.2.3,MacIntel,58.82352941,120811,,,,,,,
,,,,,,6.386956522,2.177,space,0.59,0,30,30,13,1,14,image/14.jpg,0,0,,R_2KryIkmTCOb6eUU,2,2024-05-06_20h13.06.799,face trait task,2021.2.3,MacIntel,58.82352941,120811,,,,,,,
,,,,,,6.92826087,1.785,space,0.607,0,31,31,3,1,4,image/4.jpg,0,0,,R_2KryIkmTCOb6eUU,2,2024-05-06_20h13.06.799,face trait task,2021.2.3,MacIntel,58.82352941,120811,,,,,,,
,,,,,,6.582608696,1.639,space,0.767,0,32,32,9,1,10,image/10.jpg,0,0,,R_2KryIkmTCOb6eUU,2,2024-05-06_20h13.06.799,face trait task,2021.2.3,MacIntel,58.82352941,120811,,,,,,,
,,,,,,6.758695652,2.093,space,0.42,0,33,33,8,1,9,image/9.jpg,0,0,,R_2KryIkmTCOb6eUU,2,2024-05-06_20h13.06.799,face trait task,2021.2.3,MacIntel,58.82352941,120811,,,,,,,
,,,,,,6.804347826,2.724,space,0.289,0,34,34,33,1,34,image/34.jpg,0,0,,R_2KryIkmTCOb6eUU,2,2024-05-06_20h13.06.799,face trait task,2021.2.3,MacIntel,58.82352941,120811,,,,,,,
,,,,,,6.77826087,2.061,space,0.385,0,35,35,48,1,49,image/49.jpg,0,0,,R_2KryIkmTCOb6eUU,2,2024-05-06_20h13.06.799,face trait task,2021.2.3,MacIntel,58.82352941,120811,,,,,,,
,,,,,,6.034782609,2.054,space,0.275,0,36,36,32,1,33,image/33.jpg,0,0,,R_2KryIkmTCOb6eUU,2,2024-05-06_20h13.06.799,face trait task,2021.2.3,MacIntel,58.82352941,120811,,,,,,,
,,,,,,6.595652174,2.111,space,0.601,0,37,37,12,1,13,image/13.jpg,0,0,,R_2KryIkmTCOb6eUU,2,2024-05-06_20h13.06.799,face trait task,2021.2.3,MacIntel,58.82352941,120811,,,,,,,
,,,,,,6.719565217,7.687,space,1.469,0,38,38,29,1,30,image/30.jpg,0,0,,R_2KryIkmTCOb6eUU,2,2024-05-06_20h13.06.799,face trait task,2021.2.3,MacIntel,58.82352941,120811,,,,,,,
,,,,,,6.086956522,4.11,space,0.224,0,39,39,7,1,8,image/8.jpg,0,0,,R_2KryIkmTCOb6eUU,2,2024-05-06_20h13.06.799,face trait task,2021.2.3,MacIntel,58.82352941,120811,,,,,,,
,,,,,,6.869565217,5.801,space,1.388,0,40,40,23,1,24,image/24.jpg,0,0,,R_2KryIkmTCOb6eUU,2,2024-05-06_20h13.06.799,face trait task,2021.2.3,MacIntel,58.82352941,120811,,,,,,,
,,,,,,6.158695652,13.64,space,0.206,0,41,41,0,1,1,image/1.jpg,0,0,,R_2KryIkmTCOb6eUU,2,2024-05-06_20h13.06.799,face trait task,2021.2.3,MacIntel,58.82352941,120811,,,,,,,
,,,,,,6.223913043,1.821,space,0.394,0,42,42,25,1,26,image/26.jpg,0,0,,R_2KryIkmTCOb6eUU,2,2024-05-06_20h13.06.799,face trait task,2021.2.3,MacIntel,58.82352941,120811,,,,,,,
,,,,,,6.465217391,2.16,space,0.385,0,43,43,40,1,41,image/41.jpg,0,0,,R_2KryIkmTCOb6eUU,2,2024-05-06_20h13.06.799,face trait task,2021.2.3,MacIntel,58.82352941,120811,,,,,,,
,,,,,,6.732608696,1.438,space,0.56,0,44,44,20,1,21,image/21.jpg,0,0,,R_2KryIkmTCOb6eUU,2,2024-05-06_20h13.06.799,face trait task,2021.2.3,MacIntel,58.82352941,120811,,,,,,,
,,,,,,6.960869565,3.395,space,0.77,0,45,45,50,1,60,image/fill_img.png,1,7,Please move the slider all the way to the RIGHT to show that you are paying attention.,R_2KryIkmTCOb6eUU,2,2024-05-06_20h13.06.799,face trait task,2021.2.3,MacIntel,58.82352941,120811,,,,,,,
,,,,,,6.080434783,2.11,space,0.427,0,46,46,5,1,6,image/6.jpg,0,0,,R_2KryIkmTCOb6eUU,2,2024-05-06_20h13.06.799,face trait task,2021.2.3,MacIntel,58.82352941,120811,,,,,,,
,,,,,,6.654347826,1.673,space,0.704,0,47,47,47,1,48,image/48.jpg,0,0,,R_2KryIkmTCOb6eUU,2,2024-05-06_20h13.06.799,face trait task,2021.2.3,MacIntel,58.82352941,120811,,,,,,,
,,,,,,6.386956522,1.471,space,0.418,0,48,48,36,1,37,image/37.jpg,0,0,,R_2KryIkmTCOb6eUU,2,2024-05-06_20h13.06.799,face trait task,2021.2.3,MacIntel,58.82352941,120811,,,,,,,
,,,,,,6.634782609,3.255,space,0.259,0,49,49,44,1,45,image/45.jpg,0,0,,R_2KryIkmTCOb6eUU,2,2024-05-06_20h13.06.799,face trait task,2021.2.3,MacIntel,58.82352941,120811,,,,,,,
,,,,,,6.634782609,0.99,space,0.7,0,50,50,19,1,20,image/20.jpg,0,0,,R_2KryIkmTCOb6eUU,2,2024-05-06_20h13.06.799,face trait task,2021.2.3,MacIntel,58.82352941,120811,,,,,,,
,,,,,,6.126086957,1.71,space,0.551,0,51,51,16,1,17,image/17.jpg,0,0,,R_2KryIkmTCOb6eUU,2,2024-05-06_20h13.06.799,face trait task,2021.2.3,MacIntel,58.82352941,120811,,,,,,,
,,,,,,6.341304348,1.435,space,0.319,0,52,52,22,1,23,image/23.jpg,0,0,,R_2KryIkmTCOb6eUU,2,2024-05-06_20h13.06.799,face trait task,2021.2.3,MacIntel,58.82352941,120811,,,,,,,
,,,,,,,,,,,,,,,,,,,,R_2KryIkmTCOb6eUU,2,2024-05-06_20h13.06.799,face trait task,2021.2.3,MacIntel,58.82352941,120811,0,3,3,1,1,1,competent.png
