choose_trial,key_resp.keys,key_resp.rt,key_resp_4.keys,key_resp_4.rt,session_trait,slider_face_judge.response,slider_face_judge.rt,key_resp_3.keys,key_resp_3.rt,face_loop.thisRepN,face_loop.thisTrialN,face_loop.thisN,face_loop.thisIndex,face_loop.ran,face_serial,image_name,isCheck,answer,check_question,participant,session,date,expName,psychopyVersion,OS,frameRate,SONAid,session.thisRepN,session.thisTrialN,session.thisN,session.thisIndex,session.ran,session_serial,slider_judge_img
"[0,1,2,3,4,5,6,7,8,9,10,11,12,13,14,15,16,17,18,19,20,21,22,23,24,25,26,27,28,29,30,31,32,33,34,35,36,37,38,39,40,41,42,43,44,45,46,47,48,49,57,59,58]",space,11.221,space,27.492,competent,3.006666667,6.172,space,0.898,0,0,0,47,1,48,image/48.jpg,0,0,,R_31BwcmFMmY8Wg3q,2,2024-05-03_17h48.26.392,face trait task,2021.2.3,MacIntel,30.3030303,120315,,,,,,,
,,,,,,5.986666667,6.015,space,0.75,0,1,1,27,1,28,image/28.jpg,0,0,,R_31BwcmFMmY8Wg3q,2,2024-05-03_17h48.26.392,face trait task,2021.2.3,MacIntel,30.3030303,120315,,,,,,,
,,,,,,2.993333333,2.883,space,0.638,0,2,2,26,1,27,image/27.jpg,0,0,,R_31BwcmFMmY8Wg3q,2,2024-05-03_17h48.26.392,face trait task,2021.2.3,MacIntel,30.3030303,120315,,,,,,,
,,,,,,6.993333333,3.768,space,1.017,0,3,3,50,1,58,image/fill_img.png,1,7,Please move the slider all the way to the RIGHT to show that you are paying attention.,R_31BwcmFMmY8Wg3q,2,2024-05-03_17h48.26.392,face trait task,2021.2.3,MacIntel,30.3030303,120315,,,,,,,
,,,,,,1.846666667,6.049,space,1.115,0,4,4,1,1,2,image/2.jpg,0,0,,R_31BwcmFMmY8Wg3q,2,2024-05-03_17h48.26.392,face trait task,2021.2.3,MacIntel,30.3030303,120315,,,,,,,
,,,,,,3.446666667,4.614,space,1.871,0,5,5,14,1,15,image/15.jpg,0,0,,R_31BwcmFMmY8Wg3q,2,2024-05-03_17h48.26.392,face trait task,2021.2.3,MacIntel,30.3030303,120315,,,,,,,
,,,,,,3.54,3.949,space,0.742,0,6,6,28,1,29,image/29.jpg,0,0,,R_31BwcmFMmY8Wg3q,2,2024-05-03_17h48.26.392,face trait task,2021.2.3,MacIntel,30.3030303,120315,,,,,,,
,,,,,,6.193333333,4.216,space,2.266,0,7,7,41,1,42,image/42.jpg,0,0,,R_31BwcmFMmY8Wg3q,2,2024-05-03_17h48.26.392,face trait task,2021.2.3,MacIntel,30.3030303,120315,,,,,,,
,,,,,,4.44,10.618,space,6.367,0,8,8,21,1,22,image/22.jpg,0,0,,R_31BwcmFMmY8Wg3q,2,2024-05-03_17h48.26.392,face trait task,2021.2.3,MacIntel,30.3030303,120315,,,,,,,
,,,,,,5.546666667,3.115,space,2.439,0,9,9,31,1,32,image/32.jpg,0,0,,R_31BwcmFMmY8Wg3q,2,2024-05-03_17h48.26.392,face trait task,2021.2.3,MacIntel,30.3030303,120315,,,,,,,
,,,,,,6.986666667,4.648,space,0.974,0,10,10,51,1,60,image/fill_img.png,1,7,Please move the slider all the way to the RIGHT to show that you are paying attention.,R_31BwcmFMmY8Wg3q,2,2024-05-03_17h48.26.392,face trait task,2021.2.3,MacIntel,30.3030303,120315,,,,,,,
,,,,,,4,9.548,space,0.418,0,11,11,3,1,4,image/4.jpg,0,0,,R_31BwcmFMmY8Wg3q,2,2024-05-03_17h48.26.392,face trait task,2021.2.3,MacIntel,30.3030303,120315,,,,,,,
,,,,,,6.986666667,7.116,space,4.251,0,12,12,33,1,34,image/34.jpg,0,0,,R_31BwcmFMmY8Wg3q,2,2024-05-03_17h48.26.392,face trait task,2021.2.3,MacIntel,30.3030303,120315,,,,,,,
,,,,,,4,5.697,space,0.486,0,13,13,8,1,9,image/9.jpg,0,0,,R_31BwcmFMmY8Wg3q,2,2024-05-03_17h48.26.392,face trait task,2021.2.3,MacIntel,30.3030303,120315,,,,,,,
,,,,,,3.013333333,3.53,space,1.318,0,14,14,16,1,17,image/17.jpg,0,0,,R_31BwcmFMmY8Wg3q,2,2024-05-03_17h48.26.392,face trait task,2021.2.3,MacIntel,30.3030303,120315,,,,,,,
,,,,,,2.48,5.464,space,1.969,0,15,15,18,1,19,image/19.jpg,0,0,,R_31BwcmFMmY8Wg3q,2,2024-05-03_17h48.26.392,face trait task,2021.2.3,MacIntel,30.3030303,120315,,,,,,,
,,,,,,2.986666667,4.115,space,0.434,0,16,16,39,1,40,image/40.jpg,0,0,,R_31BwcmFMmY8Wg3q,2,2024-05-03_17h48.26.392,face trait task,2021.2.3,MacIntel,30.3030303,120315,,,,,,,
,,,,,,3.96,4.897,space,1.471,0,17,17,19,1,20,image/20.jpg,0,0,,R_31BwcmFMmY8Wg3q,2,2024-05-03_17h48.26.392,face trait task,2021.2.3,MacIntel,30.3030303,120315,,,,,,,
,,,,,,3.486666667,2.496,space,1.1,0,18,18,2,1,3,image/3.jpg,0,0,,R_31BwcmFMmY8Wg3q,2,2024-05-03_17h48.26.392,face trait task,2021.2.3,MacIntel,30.3030303,120315,,,,,,,
,,,,,,3.96,3.697,space,0.767,0,19,19,36,1,37,image/37.jpg,0,0,,R_31BwcmFMmY8Wg3q,2,2024-05-03_17h48.26.392,face trait task,2021.2.3,MacIntel,30.3030303,120315,,,,,,,
,,,,,,4.12,8.631,space,0.341,0,20,20,44,1,45,image/45.jpg,0,0,,R_31BwcmFMmY8Wg3q,2,2024-05-03_17h48.26.392,face trait task,2021.2.3,MacIntel,30.3030303,120315,,,,,,,
,,,,,,1.02,4.631,space,0.709,0,21,21,32,1,33,image/33.jpg,0,0,,R_31BwcmFMmY8Wg3q,2,2024-05-03_17h48.26.392,face trait task,2021.2.3,MacIntel,30.3030303,120315,,,,,,,
,,,,,,6.6,4.149,space,0.749,0,22,22,35,1,36,image/36.jpg,0,0,,R_31BwcmFMmY8Wg3q,2,2024-05-03_17h48.26.392,face trait task,2021.2.3,MacIntel,30.3030303,120315,,,,,,,
,,,,,,5.473333333,4.231,space,0.741,0,23,23,30,1,31,image/31.jpg,0,0,,R_31BwcmFMmY8Wg3q,2,2024-05-03_17h48.26.392,face trait task,2021.2.3,MacIntel,30.3030303,120315,,,,,,,
,,,,,,4,2.681,space,0.333,0,24,24,40,1,41,image/41.jpg,0,0,,R_31BwcmFMmY8Wg3q,2,2024-05-03_17h48.26.392,face trait task,2021.2.3,MacIntel,30.3030303,120315,,,,,,,
,,,,,,2.266666667,3.148,space,0.943,0,25,25,17,1,18,image/18.jpg,0,0,,R_31BwcmFMmY8Wg3q,2,2024-05-03_17h48.26.392,face trait task,2021.2.3,MacIntel,30.3030303,120315,,,,,,,
,,,,,,1.993333333,4.831,space,2.072,0,26,26,38,1,39,image/39.jpg,0,0,,R_31BwcmFMmY8Wg3q,2,2024-05-03_17h48.26.392,face trait task,2021.2.3,MacIntel,30.3030303,120315,,,,,,,
,,,,,,1.993333333,2.364,space,0.372,0,27,27,5,1,6,image/6.jpg,0,0,,R_31BwcmFMmY8Wg3q,2,2024-05-03_17h48.26.392,face trait task,2021.2.3,MacIntel,30.3030303,120315,,,,,,,
,,,,,,3.993333333,3.182,space,0.367,0,28,28,42,1,43,image/43.jpg,0,0,,R_31BwcmFMmY8Wg3q,2,2024-05-03_17h48.26.392,face trait task,2021.2.3,MacIntel,30.3030303,120315,,,,,,,
,,,,,,1.6,2.764,space,0.481,0,29,29,0,1,1,image/1.jpg,0,0,,R_31BwcmFMmY8Wg3q,2,2024-05-03_17h48.26.392,face trait task,2021.2.3,MacIntel,30.3030303,120315,,,,,,,
,,,,,,2.28,3.183,space,0.912,0,30,30,49,1,50,image/50.jpg,0,0,,R_31BwcmFMmY8Wg3q,2,2024-05-03_17h48.26.392,face trait task,2021.2.3,MacIntel,30.3030303,120315,,,,,,,
,,,,,,4.993333333,6.846,space,1.538,0,31,31,25,1,26,image/26.jpg,0,0,,R_31BwcmFMmY8Wg3q,2,2024-05-03_17h48.26.392,face trait task,2021.2.3,MacIntel,30.3030303,120315,,,,,,,
,,,,,,2.993333333,2.931,space,0.383,0,32,32,46,1,47,image/47.jpg,0,0,,R_31BwcmFMmY8Wg3q,2,2024-05-03_17h48.26.392,face trait task,2021.2.3,MacIntel,30.3030303,120315,,,,,,,
,,,,,,4.506666667,3.95,space,0.318,0,33,33,22,1,23,image/23.jpg,0,0,,R_31BwcmFMmY8Wg3q,2,2024-05-03_17h48.26.392,face trait task,2021.2.3,MacIntel,30.3030303,120315,,,,,,,
,,,,,,3.466666667,2.749,space,0.783,0,34,34,12,1,13,image/13.jpg,0,0,,R_31BwcmFMmY8Wg3q,2,2024-05-03_17h48.26.392,face trait task,2021.2.3,MacIntel,30.3030303,120315,,,,,,,
,,,,,,5.593333333,6.548,space,4.601,0,35,35,45,1,46,image/46.jpg,0,0,,R_31BwcmFMmY8Wg3q,2,2024-05-03_17h48.26.392,face trait task,2021.2.3,MacIntel,30.3030303,120315,,,,,,,
,,,,,,2.033333333,2.883,space,1.204,0,36,36,34,1,35,image/35.jpg,0,0,,R_31BwcmFMmY8Wg3q,2,2024-05-03_17h48.26.392,face trait task,2021.2.3,MacIntel,30.3030303,120315,,,,,,,
,,,,,,3.6,2.964,space,0.475,0,37,37,7,1,8,image/8.jpg,0,0,,R_31BwcmFMmY8Wg3q,2,2024-05-03_17h48.26.392,face trait task,2021.2.3,MacIntel,30.3030303,120315,,,,,,,
,,,,,,1.36,5.865,space,1.886,0,38,38,15,1,16,image/16.jpg,0,0,,R_31BwcmFMmY8Wg3q,2,2024-05-03_17h48.26.392,face trait task,2021.2.3,MacIntel,30.3030303,120315,,,,,,,
,,,,,,2.64,5.097,space,0.401,0,39,39,10,1,11,image/11.jpg,0,0,,R_31BwcmFMmY8Wg3q,2,2024-05-03_17h48.26.392,face trait task,2021.2.3,MacIntel,30.3030303,120315,,,,,,,
,,,,,,1.266666667,3.899,space,1.735,0,40,40,24,1,25,image/25.jpg,0,0,,R_31BwcmFMmY8Wg3q,2,2024-05-03_17h48.26.392,face trait task,2021.2.3,MacIntel,30.3030303,120315,,,,,,,
,,,,,,3.993333333,2.698,space,0.349,0,41,41,29,1,30,image/30.jpg,0,0,,R_31BwcmFMmY8Wg3q,2,2024-05-03_17h48.26.392,face trait task,2021.2.3,MacIntel,30.3030303,120315,,,,,,,
,,,,,,7,3.048,space,1.974,0,42,42,52,1,59,image/fill_img.png,1,7,Please move the slider all the way to the RIGHT to show that you are paying attention.,R_31BwcmFMmY8Wg3q,2,2024-05-03_17h48.26.392,face trait task,2021.2.3,MacIntel,30.3030303,120315,,,,,,,
,,,,,,4.006666667,3.116,space,0.419,0,43,43,9,1,10,image/10.jpg,0,0,,R_31BwcmFMmY8Wg3q,2,2024-05-03_17h48.26.392,face trait task,2021.2.3,MacIntel,30.3030303,120315,,,,,,,
,,,,,,2.006666667,3.482,space,0.984,0,44,44,13,1,14,image/14.jpg,0,0,,R_31BwcmFMmY8Wg3q,2,2024-05-03_17h48.26.392,face trait task,2021.2.3,MacIntel,30.3030303,120315,,,,,,,
,,,,,,5,4.316,space,1.634,0,45,45,48,1,49,image/49.jpg,0,0,,R_31BwcmFMmY8Wg3q,2,2024-05-03_17h48.26.392,face trait task,2021.2.3,MacIntel,30.3030303,120315,,,,,,,
,,,,,,5.42,2.782,space,1.134,0,46,46,4,1,5,image/5.jpg,0,0,,R_31BwcmFMmY8Wg3q,2,2024-05-03_17h48.26.392,face trait task,2021.2.3,MacIntel,30.3030303,120315,,,,,,,
,,,,,,4.26,4.75,space,1.419,0,47,47,23,1,24,image/24.jpg,0,0,,R_31BwcmFMmY8Wg3q,2,2024-05-03_17h48.26.392,face trait task,2021.2.3,MacIntel,30.3030303,120315,,,,,,,
,,,,,,4.02,2.217,space,0.77,0,48,48,11,1,12,image/12.jpg,0,0,,R_31BwcmFMmY8Wg3q,2,2024-05-03_17h48.26.392,face trait task,2021.2.3,MacIntel,30.3030303,120315,,,,,,,
,,,,,,4.62,2.148,space,0.251,0,49,49,43,1,44,image/44.jpg,0,0,,R_31BwcmFMmY8Wg3q,2,2024-05-03_17h48.26.392,face trait task,2021.2.3,MacIntel,30.3030303,120315,,,,,,,
,,,,,,3.993333333,5.097,space,1.085,0,50,50,37,1,38,image/38.jpg,0,0,,R_31BwcmFMmY8Wg3q,2,2024-05-03_17h48.26.392,face trait task,2021.2.3,MacIntel,30.3030303,120315,,,,,,,
,,,,,,4.993333333,4.665,space,3.446,0,51,51,20,1,21,image/21.jpg,0,0,,R_31BwcmFMmY8Wg3q,2,2024-05-03_17h48.26.392,face trait task,2021.2.3,MacIntel,30.3030303,120315,,,,,,,
,,,,,,6.673333333,5.23,space,1.668,0,52,52,6,1,7,image/7.jpg,0,0,,R_31BwcmFMmY8Wg3q,2,2024-05-03_17h48.26.392,face trait task,2021.2.3,MacIntel,30.3030303,120315,,,,,,,
,,,,,,,,,,,,,,,,,,,,R_31BwcmFMmY8Wg3q,2,2024-05-03_17h48.26.392,face trait task,2021.2.3,MacIntel,30.3030303,120315,0,0,0,1,1,1,competent.png
,,,,,friendly,4.986666667,8.163,space,2.297,0,0,0,31,1,32,image/32.jpg,0,0,,R_31BwcmFMmY8Wg3q,2,2024-05-03_17h48.26.392,face trait task,2021.2.3,MacIntel,30.3030303,120315,,,,,,,
,,,,,,4.893333333,6.028,space,1.459,0,1,1,20,1,21,image/21.jpg,0,0,,R_31BwcmFMmY8Wg3q,2,2024-05-03_17h48.26.392,face trait task,2021.2.3,MacIntel,30.3030303,120315,,,,,,,
,,,,,,1.406666667,8.73,space,4.674,0,2,2,5,1,6,image/6.jpg,0,0,,R_31BwcmFMmY8Wg3q,2,2024-05-03_17h48.26.392,face trait task,2021.2.3,MacIntel,30.3030303,120315,,,,,,,
,,,,,,2.76,4.363,space,2.103,0,3,3,11,1,12,image/12.jpg,0,0,,R_31BwcmFMmY8Wg3q,2,2024-05-03_17h48.26.392,face trait task,2021.2.3,MacIntel,30.3030303,120315,,,,,,,
,,,,,,1.273333333,2.832,space,0.757,0,4,4,8,1,9,image/9.jpg,0,0,,R_31BwcmFMmY8Wg3q,2,2024-05-03_17h48.26.392,face trait task,2021.2.3,MacIntel,30.3030303,120315,,,,,,,
,,,,,,5.146666667,2.917,space,0.623,0,5,5,3,1,4,image/4.jpg,0,0,,R_31BwcmFMmY8Wg3q,2,2024-05-03_17h48.26.392,face trait task,2021.2.3,MacIntel,30.3030303,120315,,,,,,,
,,,,,,4.993333333,2.564,space,1.538,0,6,6,22,1,23,image/23.jpg,0,0,,R_31BwcmFMmY8Wg3q,2,2024-05-03_17h48.26.392,face trait task,2021.2.3,MacIntel,30.3030303,120315,,,,,,,
,,,,,,1.406666667,4.413,space,1.988,0,7,7,14,1,15,image/15.jpg,0,0,,R_31BwcmFMmY8Wg3q,2,2024-05-03_17h48.26.392,face trait task,2021.2.3,MacIntel,30.3030303,120315,,,,,,,
,,,,,,3.993333333,4.257,space,1.12,0,8,8,24,1,25,image/25.jpg,0,0,,R_31BwcmFMmY8Wg3q,2,2024-05-03_17h48.26.392,face trait task,2021.2.3,MacIntel,30.3030303,120315,,,,,,,
,,,,,,1.186666667,2.216,space,0.408,0,9,9,23,1,24,image/24.jpg,0,0,,R_31BwcmFMmY8Wg3q,2,2024-05-03_17h48.26.392,face trait task,2021.2.3,MacIntel,30.3030303,120315,,,,,,,
,,,,,,4.993333333,2.916,space,0.389,0,10,10,36,1,37,image/37.jpg,0,0,,R_31BwcmFMmY8Wg3q,2,2024-05-03_17h48.26.392,face trait task,2021.2.3,MacIntel,30.3030303,120315,,,,,,,
,,,,,,3.98,2.932,space,0.494,0,11,11,38,1,39,image/39.jpg,0,0,,R_31BwcmFMmY8Wg3q,2,2024-05-03_17h48.26.392,face trait task,2021.2.3,MacIntel,30.3030303,120315,,,,,,,
,,,,,,4.446666667,3.164,space,1.956,0,12,12,41,1,42,image/42.jpg,0,0,,R_31BwcmFMmY8Wg3q,2,2024-05-03_17h48.26.392,face trait task,2021.2.3,MacIntel,30.3030303,120315,,,,,,,
,,,,,,3.5,3.962,space,0.939,0,13,13,27,1,28,image/28.jpg,0,0,,R_31BwcmFMmY8Wg3q,2,2024-05-03_17h48.26.392,face trait task,2021.2.3,MacIntel,30.3030303,120315,,,,,,,
,,,,,,4.986666667,39.147,space,0.404,0,14,14,43,1,44,image/44.jpg,0,0,,R_31BwcmFMmY8Wg3q,2,2024-05-03_17h48.26.392,face trait task,2021.2.3,MacIntel,30.3030303,120315,,,,,,,
,,,,,,1.233333333,2.747,space,0.356,0,15,15,17,1,18,image/18.jpg,0,0,,R_31BwcmFMmY8Wg3q,2,2024-05-03_17h48.26.392,face trait task,2021.2.3,MacIntel,30.3030303,120315,,,,,,,
,,,,,,2.953333333,5.046,space,1.489,0,16,16,42,1,43,image/43.jpg,0,0,,R_31BwcmFMmY8Wg3q,2,2024-05-03_17h48.26.392,face trait task,2021.2.3,MacIntel,30.3030303,120315,,,,,,,
,,,,,,1.066666667,2.714,space,0.611,0,17,17,16,1,17,image/17.jpg,0,0,,R_31BwcmFMmY8Wg3q,2,2024-05-03_17h48.26.392,face trait task,2021.2.3,MacIntel,30.3030303,120315,,,,,,,
,,,,,,3.486666667,3.347,space,0.687,0,18,18,32,1,33,image/33.jpg,0,0,,R_31BwcmFMmY8Wg3q,2,2024-05-03_17h48.26.392,face trait task,2021.2.3,MacIntel,30.3030303,120315,,,,,,,
,,,,,,1.98,2.346,space,1.269,0,19,19,6,1,7,image/7.jpg,0,0,,R_31BwcmFMmY8Wg3q,2,2024-05-03_17h48.26.392,face trait task,2021.2.3,MacIntel,30.3030303,120315,,,,,,,
,,,,,,6.52,5.998,space,2.554,0,20,20,33,1,34,image/34.jpg,0,0,,R_31BwcmFMmY8Wg3q,2,2024-05-03_17h48.26.392,face trait task,2021.2.3,MacIntel,30.3030303,120315,,,,,,,
,,,,,,1.426666667,4.285,space,0.435,0,21,21,39,1,40,image/40.jpg,0,0,,R_31BwcmFMmY8Wg3q,2,2024-05-03_17h48.26.392,face trait task,2021.2.3,MacIntel,30.3030303,120315,,,,,,,
,,,,,,4.42,4.912,space,0.719,0,22,22,30,1,31,image/31.jpg,0,0,,R_31BwcmFMmY8Wg3q,2,2024-05-03_17h48.26.392,face trait task,2021.2.3,MacIntel,30.3030303,120315,,,,,,,
,,,,,,6.466666667,5.027,space,2.935,0,23,23,46,1,47,image/47.jpg,0,0,,R_31BwcmFMmY8Wg3q,2,2024-05-03_17h48.26.392,face trait task,2021.2.3,MacIntel,30.3030303,120315,,,,,,,
,,,,,,5,3.283,space,0.471,0,24,24,4,1,5,image/5.jpg,0,0,,R_31BwcmFMmY8Wg3q,2,2024-05-03_17h48.26.392,face trait task,2021.2.3,MacIntel,30.3030303,120315,,,,,,,
,,,,,,4,3.131,space,0.289,0,25,25,28,1,29,image/29.jpg,0,0,,R_31BwcmFMmY8Wg3q,2,2024-05-03_17h48.26.392,face trait task,2021.2.3,MacIntel,30.3030303,120315,,,,,,,
,,,,,,1.16,3.533,space,0.404,0,26,26,19,1,20,image/20.jpg,0,0,,R_31BwcmFMmY8Wg3q,2,2024-05-03_17h48.26.392,face trait task,2021.2.3,MacIntel,30.3030303,120315,,,,,,,
,,,,,,1.013333333,2.282,space,0.526,0,27,27,13,1,14,image/14.jpg,0,0,,R_31BwcmFMmY8Wg3q,2,2024-05-03_17h48.26.392,face trait task,2021.2.3,MacIntel,30.3030303,120315,,,,,,,
,,,,,,1.44,3.643,space,0.258,0,28,28,25,1,26,image/26.jpg,0,0,,R_31BwcmFMmY8Wg3q,2,2024-05-03_17h48.26.392,face trait task,2021.2.3,MacIntel,30.3030303,120315,,,,,,,
,,,,,,1,5.379,space,1.188,0,29,29,15,1,16,image/16.jpg,0,0,,R_31BwcmFMmY8Wg3q,2,2024-05-03_17h48.26.392,face trait task,2021.2.3,MacIntel,30.3030303,120315,,,,,,,
,,,,,,2.993333333,3.53,space,0.323,0,30,30,9,1,10,image/10.jpg,0,0,,R_31BwcmFMmY8Wg3q,2,2024-05-03_17h48.26.392,face trait task,2021.2.3,MacIntel,30.3030303,120315,,,,,,,
,,,,,,7,2.476,space,1.174,0,31,31,51,1,60,image/fill_img.png,1,7,Please move the slider all the way to the RIGHT to show that you are paying attention.,R_31BwcmFMmY8Wg3q,2,2024-05-03_17h48.26.392,face trait task,2021.2.3,MacIntel,30.3030303,120315,,,,,,,
,,,,,,7,2.794,space,1.489,0,32,32,50,1,58,image/fill_img.png,1,7,Please move the slider all the way to the RIGHT to show that you are paying attention.,R_31BwcmFMmY8Wg3q,2,2024-05-03_17h48.26.392,face trait task,2021.2.3,MacIntel,30.3030303,120315,,,,,,,
,,,,,,1.38,3.661,space,0.305,0,33,33,18,1,19,image/19.jpg,0,0,,R_31BwcmFMmY8Wg3q,2,2024-05-03_17h48.26.392,face trait task,2021.2.3,MacIntel,30.3030303,120315,,,,,,,
,,,,,,6.9,3.612,space,0.723,0,34,34,48,1,49,image/49.jpg,0,0,,R_31BwcmFMmY8Wg3q,2,2024-05-03_17h48.26.392,face trait task,2021.2.3,MacIntel,30.3030303,120315,,,,,,,
,,,,,,2.986666667,2.482,space,0.372,0,35,35,10,1,11,image/11.jpg,0,0,,R_31BwcmFMmY8Wg3q,2,2024-05-03_17h48.26.392,face trait task,2021.2.3,MacIntel,30.3030303,120315,,,,,,,
,,,,,,7,3.16,space,1.493,0,36,36,52,1,59,image/fill_img.png,1,7,Please move the slider all the way to the RIGHT to show that you are paying attention.,R_31BwcmFMmY8Wg3q,2,2024-05-03_17h48.26.392,face trait task,2021.2.3,MacIntel,30.3030303,120315,,,,,,,
,,,,,,1.406666667,4.312,space,1.756,0,37,37,1,1,2,image/2.jpg,0,0,,R_31BwcmFMmY8Wg3q,2,2024-05-03_17h48.26.392,face trait task,2021.2.3,MacIntel,30.3030303,120315,,,,,,,
,,,,,,1.186666667,2.128,space,0.402,0,38,38,7,1,8,image/8.jpg,0,0,,R_31BwcmFMmY8Wg3q,2,2024-05-03_17h48.26.392,face trait task,2021.2.3,MacIntel,30.3030303,120315,,,,,,,
,,,,,,4.993333333,3.363,space,0.609,0,39,39,47,1,48,image/48.jpg,0,0,,R_31BwcmFMmY8Wg3q,2,2024-05-03_17h48.26.392,face trait task,2021.2.3,MacIntel,30.3030303,120315,,,,,,,
,,,,,,3.993333333,4.062,space,0.404,0,40,40,12,1,13,image/13.jpg,0,0,,R_31BwcmFMmY8Wg3q,2,2024-05-03_17h48.26.392,face trait task,2021.2.3,MacIntel,30.3030303,120315,,,,,,,
,,,,,,6.566666667,5.996,space,0.587,0,41,41,40,1,41,image/41.jpg,0,0,,R_31BwcmFMmY8Wg3q,2,2024-05-03_17h48.26.392,face trait task,2021.2.3,MacIntel,30.3030303,120315,,,,,,,
,,,,,,4.42,3.664,space,1.292,0,42,42,26,1,27,image/27.jpg,0,0,,R_31BwcmFMmY8Wg3q,2,2024-05-03_17h48.26.392,face trait task,2021.2.3,MacIntel,30.3030303,120315,,,,,,,
,,,,,,5.033333333,3.779,space,0.606,0,43,43,44,1,45,image/45.jpg,0,0,,R_31BwcmFMmY8Wg3q,2,2024-05-03_17h48.26.392,face trait task,2021.2.3,MacIntel,30.3030303,120315,,,,,,,
,,,,,,3.993333333,5.73,space,0.824,0,44,44,45,1,46,image/46.jpg,0,0,,R_31BwcmFMmY8Wg3q,2,2024-05-03_17h48.26.392,face trait task,2021.2.3,MacIntel,30.3030303,120315,,,,,,,
,,,,,,6.88,5.113,space,1.146,0,45,45,34,1,35,image/35.jpg,0,0,,R_31BwcmFMmY8Wg3q,2,2024-05-03_17h48.26.392,face trait task,2021.2.3,MacIntel,30.3030303,120315,,,,,,,
,,,,,,2.986666667,4.484,space,0.831,0,46,46,29,1,30,image/30.jpg,0,0,,R_31BwcmFMmY8Wg3q,2,2024-05-03_17h48.26.392,face trait task,2021.2.3,MacIntel,30.3030303,120315,,,,,,,
,,,,,,3,6.286,space,0.391,0,47,47,21,1,22,image/22.jpg,0,0,,R_31BwcmFMmY8Wg3q,2,2024-05-03_17h48.26.392,face trait task,2021.2.3,MacIntel,30.3030303,120315,,,,,,,
,,,,,,6.886666667,2.713,space,0.573,0,48,48,35,1,36,image/36.jpg,0,0,,R_31BwcmFMmY8Wg3q,2,2024-05-03_17h48.26.392,face trait task,2021.2.3,MacIntel,30.3030303,120315,,,,,,,
,,,,,,1.986666667,2.047,space,0.257,0,49,49,37,1,38,image/38.jpg,0,0,,R_31BwcmFMmY8Wg3q,2,2024-05-03_17h48.26.392,face trait task,2021.2.3,MacIntel,30.3030303,120315,,,,,,,
,,,,,,1.526666667,1.9,space,0.69,0,50,50,0,1,1,image/1.jpg,0,0,,R_31BwcmFMmY8Wg3q,2,2024-05-03_17h48.26.392,face trait task,2021.2.3,MacIntel,30.3030303,120315,,,,,,,
,,,,,,2.98,3.047,space,0.512,0,51,51,2,1,3,image/3.jpg,0,0,,R_31BwcmFMmY8Wg3q,2,2024-05-03_17h48.26.392,face trait task,2021.2.3,MacIntel,30.3030303,120315,,,,,,,
,,,,,,4.54,5.779,space,0.375,0,52,52,49,1,50,image/50.jpg,0,0,,R_31BwcmFMmY8Wg3q,2,2024-05-03_17h48.26.392,face trait task,2021.2.3,MacIntel,30.3030303,120315,,,,,,,
,,,,,,,,,,,,,,,,,,,,R_31BwcmFMmY8Wg3q,2,2024-05-03_17h48.26.392,face trait task,2021.2.3,MacIntel,30.3030303,120315,0,1,1,3,1,3,friendly.png
,,,,,trustworthy,4.98,5.913,space,0.639,0,0,0,43,1,44,image/44.jpg,0,0,,R_31BwcmFMmY8Wg3q,2,2024-05-03_17h48.26.392,face trait task,2021.2.3,MacIntel,30.3030303,120315,,,,,,,
,,,,,,4.513333333,7.196,space,4.653,0,1,1,30,1,31,image/31.jpg,0,0,,R_31BwcmFMmY8Wg3q,2,2024-05-03_17h48.26.392,face trait task,2021.2.3,MacIntel,30.3030303,120315,,,,,,,
,,,,,,2.993333333,3.432,space,0.306,0,2,2,46,1,47,image/47.jpg,0,0,,R_31BwcmFMmY8Wg3q,2,2024-05-03_17h48.26.392,face trait task,2021.2.3,MacIntel,30.3030303,120315,,,,,,,
,,,,,,4.006666667,2.797,space,0.323,0,3,3,22,1,23,image/23.jpg,0,0,,R_31BwcmFMmY8Wg3q,2,2024-05-03_17h48.26.392,face trait task,2021.2.3,MacIntel,30.3030303,120315,,,,,,,
,,,,,,4.473333333,2.933,space,0.936,0,4,4,8,1,9,image/9.jpg,0,0,,R_31BwcmFMmY8Wg3q,2,2024-05-03_17h48.26.392,face trait task,2021.2.3,MacIntel,30.3030303,120315,,,,,,,
,,,,,,3,4.746,space,0.355,0,5,5,0,1,1,image/1.jpg,0,0,,R_31BwcmFMmY8Wg3q,2,2024-05-03_17h48.26.392,face trait task,2021.2.3,MacIntel,30.3030303,120315,,,,,,,
,,,,,,2,4.097,space,1.139,0,6,6,42,1,43,image/43.jpg,0,0,,R_31BwcmFMmY8Wg3q,2,2024-05-03_17h48.26.392,face trait task,2021.2.3,MacIntel,30.3030303,120315,,,,,,,
,,,,,,3.993333333,3.128,space,0.29,0,7,7,4,1,5,image/5.jpg,0,0,,R_31BwcmFMmY8Wg3q,2,2024-05-03_17h48.26.392,face trait task,2021.2.3,MacIntel,30.3030303,120315,,,,,,,
,,,,,,3.993333333,4.499,space,0.539,0,8,8,33,1,34,image/34.jpg,0,0,,R_31BwcmFMmY8Wg3q,2,2024-05-03_17h48.26.392,face trait task,2021.2.3,MacIntel,30.3030303,120315,,,,,,,
,,,,,,2,4.929,space,0.403,0,9,9,37,1,38,image/38.jpg,0,0,,R_31BwcmFMmY8Wg3q,2,2024-05-03_17h48.26.392,face trait task,2021.2.3,MacIntel,30.3030303,120315,,,,,,,
,,,,,,4.993333333,5.35,space,0.793,0,10,10,20,1,21,image/21.jpg,0,0,,R_31BwcmFMmY8Wg3q,2,2024-05-03_17h48.26.392,face trait task,2021.2.3,MacIntel,30.3030303,120315,,,,,,,
,,,,,,1.986666667,3.634,space,0.856,0,11,11,48,1,49,image/49.jpg,0,0,,R_31BwcmFMmY8Wg3q,2,2024-05-03_17h48.26.392,face trait task,2021.2.3,MacIntel,30.3030303,120315,,,,,,,
,,,,,,2,2.661,space,0.341,0,12,12,17,1,18,image/18.jpg,0,0,,R_31BwcmFMmY8Wg3q,2,2024-05-03_17h48.26.392,face trait task,2021.2.3,MacIntel,30.3030303,120315,,,,,,,
,,,,,,3.98,3.061,space,0.323,0,13,13,32,1,33,image/33.jpg,0,0,,R_31BwcmFMmY8Wg3q,2,2024-05-03_17h48.26.392,face trait task,2021.2.3,MacIntel,30.3030303,120315,,,,,,,
,,,,,,1,4.178,space,0.888,0,14,14,15,1,16,image/16.jpg,0,0,,R_31BwcmFMmY8Wg3q,2,2024-05-03_17h48.26.392,face trait task,2021.2.3,MacIntel,30.3030303,120315,,,,,,,
,,,,,,1.013333333,3.528,space,0.323,0,15,15,26,1,27,image/27.jpg,0,0,,R_31BwcmFMmY8Wg3q,2,2024-05-03_17h48.26.392,face trait task,2021.2.3,MacIntel,30.3030303,120315,,,,,,,
,,,,,,2,3.111,space,0.253,0,16,16,28,1,29,image/29.jpg,0,0,,R_31BwcmFMmY8Wg3q,2,2024-05-03_17h48.26.392,face trait task,2021.2.3,MacIntel,30.3030303,120315,,,,,,,
,,,,,,1.486666667,3.646,space,0.306,0,17,17,39,1,40,image/40.jpg,0,0,,R_31BwcmFMmY8Wg3q,2,2024-05-03_17h48.26.392,face trait task,2021.2.3,MacIntel,30.3030303,120315,,,,,,,
,,,,,,3.433333333,5.016,space,0.29,0,18,18,23,1,24,image/24.jpg,0,0,,R_31BwcmFMmY8Wg3q,2,2024-05-03_17h48.26.392,face trait task,2021.2.3,MacIntel,30.3030303,120315,,,,,,,
,,,,,,2.446666667,3.397,space,0.32,0,19,19,2,1,3,image/3.jpg,0,0,,R_31BwcmFMmY8Wg3q,2,2024-05-03_17h48.26.392,face trait task,2021.2.3,MacIntel,30.3030303,120315,,,,,,,
,,,,,,1.466666667,2.979,space,0.305,0,20,20,27,1,28,image/28.jpg,0,0,,R_31BwcmFMmY8Wg3q,2,2024-05-03_17h48.26.392,face trait task,2021.2.3,MacIntel,30.3030303,120315,,,,,,,
,,,,,,1.413333333,2.366,space,0.473,0,21,21,12,1,13,image/13.jpg,0,0,,R_31BwcmFMmY8Wg3q,2,2024-05-03_17h48.26.392,face trait task,2021.2.3,MacIntel,30.3030303,120315,,,,,,,
,,,,,,1.22,2.896,space,1.124,0,22,22,25,1,26,image/26.jpg,0,0,,R_31BwcmFMmY8Wg3q,2,2024-05-03_17h48.26.392,face trait task,2021.2.3,MacIntel,30.3030303,120315,,,,,,,
,,,,,,1.286666667,3.779,space,0.589,0,23,23,44,1,45,image/45.jpg,0,0,,R_31BwcmFMmY8Wg3q,2,2024-05-03_17h48.26.392,face trait task,2021.2.3,MacIntel,30.3030303,120315,,,,,,,
,,,,,,7,2.793,space,1.456,0,24,24,52,1,59,image/fill_img.png,1,7,Please move the slider all the way to the RIGHT to show that you are paying attention.,R_31BwcmFMmY8Wg3q,2,2024-05-03_17h48.26.392,face trait task,2021.2.3,MacIntel,30.3030303,120315,,,,,,,
,,,,,,2.586666667,6.196,space,0.822,0,25,25,19,1,20,image/20.jpg,0,0,,R_31BwcmFMmY8Wg3q,2,2024-05-03_17h48.26.392,face trait task,2021.2.3,MacIntel,30.3030303,120315,,,,,,,
,,,,,,2.466666667,3.413,space,0.307,0,26,26,36,1,37,image/37.jpg,0,0,,R_31BwcmFMmY8Wg3q,2,2024-05-03_17h48.26.392,face trait task,2021.2.3,MacIntel,30.3030303,120315,,,,,,,
,,,,,,1.413333333,3.296,space,0.489,0,27,27,10,1,11,image/11.jpg,0,0,,R_31BwcmFMmY8Wg3q,2,2024-05-03_17h48.26.392,face trait task,2021.2.3,MacIntel,30.3030303,120315,,,,,,,
,,,,,,1.24,3.013,space,0.29,0,28,28,47,1,48,image/48.jpg,0,0,,R_31BwcmFMmY8Wg3q,2,2024-05-03_17h48.26.392,face trait task,2021.2.3,MacIntel,30.3030303,120315,,,,,,,
,,,,,,7,2.778,space,1.227,0,29,29,51,1,60,image/fill_img.png,1,7,Please move the slider all the way to the RIGHT to show that you are paying attention.,R_31BwcmFMmY8Wg3q,2,2024-05-03_17h48.26.392,face trait task,2021.2.3,MacIntel,30.3030303,120315,,,,,,,
,,,,,,1.986666667,2.2,space,2.286,0,30,30,5,1,6,image/6.jpg,0,0,,R_31BwcmFMmY8Wg3q,2,2024-05-03_17h48.26.392,face trait task,2021.2.3,MacIntel,30.3030303,120315,,,,,,,
,,,,,,3.98,3.43,space,0.487,0,31,31,45,1,46,image/46.jpg,0,0,,R_31BwcmFMmY8Wg3q,2,2024-05-03_17h48.26.392,face trait task,2021.2.3,MacIntel,30.3030303,120315,,,,,,,
,,,,,,1,3.095,space,0.924,0,32,32,13,1,14,image/14.jpg,0,0,,R_31BwcmFMmY8Wg3q,2,2024-05-03_17h48.26.392,face trait task,2021.2.3,MacIntel,30.3030303,120315,,,,,,,
,,,,,,2.986666667,4.477,space,2.007,0,33,33,41,1,42,image/42.jpg,0,0,,R_31BwcmFMmY8Wg3q,2,2024-05-03_17h48.26.392,face trait task,2021.2.3,MacIntel,30.3030303,120315,,,,,,,
,,,,,,1.18,3.311,space,0.374,0,34,34,34,1,35,image/35.jpg,0,0,,R_31BwcmFMmY8Wg3q,2,2024-05-03_17h48.26.392,face trait task,2021.2.3,MacIntel,30.3030303,120315,,,,,,,
,,,,,,2,3.349,space,0.272,0,35,35,40,1,41,image/41.jpg,0,0,,R_31BwcmFMmY8Wg3q,2,2024-05-03_17h48.26.392,face trait task,2021.2.3,MacIntel,30.3030303,120315,,,,,,,
,,,,,,3.993333333,13.761,space,0.528,0,36,36,38,1,39,image/39.jpg,0,0,,R_31BwcmFMmY8Wg3q,2,2024-05-03_17h48.26.392,face trait task,2021.2.3,MacIntel,30.3030303,120315,,,,,,,
,,,,,,4.453333333,5.713,space,1.288,0,37,37,6,1,7,image/7.jpg,0,0,,R_31BwcmFMmY8Wg3q,2,2024-05-03_17h48.26.392,face trait task,2021.2.3,MacIntel,30.3030303,120315,,,,,,,
,,,,,,1.526666667,3.463,space,1.521,0,38,38,29,1,30,image/30.jpg,0,0,,R_31BwcmFMmY8Wg3q,2,2024-05-03_17h48.26.392,face trait task,2021.2.3,MacIntel,30.3030303,120315,,,,,,,
,,,,,,1.48,2.546,space,0.338,0,39,39,35,1,36,image/36.jpg,0,0,,R_31BwcmFMmY8Wg3q,2,2024-05-03_17h48.26.392,face trait task,2021.2.3,MacIntel,30.3030303,120315,,,,,,,
,,,,,,1,2.548,space,0.81,0,40,40,1,1,2,image/2.jpg,0,0,,R_31BwcmFMmY8Wg3q,2,2024-05-03_17h48.26.392,face trait task,2021.2.3,MacIntel,30.3030303,120315,,,,,,,
,,,,,,2.486666667,3.498,space,1.372,0,41,41,24,1,25,image/25.jpg,0,0,,R_31BwcmFMmY8Wg3q,2,2024-05-03_17h48.26.392,face trait task,2021.2.3,MacIntel,30.3030303,120315,,,,,,,
,,,,,,2.193333333,2.131,space,0.29,0,42,42,7,1,8,image/8.jpg,0,0,,R_31BwcmFMmY8Wg3q,2,2024-05-03_17h48.26.392,face trait task,2021.2.3,MacIntel,30.3030303,120315,,,,,,,
,,,,,,2.193333333,2.162,space,1.493,0,43,43,49,1,50,image/50.jpg,0,0,,R_31BwcmFMmY8Wg3q,2,2024-05-03_17h48.26.392,face trait task,2021.2.3,MacIntel,30.3030303,120315,,,,,,,
,,,,,,7,3.393,space,1.212,0,44,44,50,1,58,image/fill_img.png,1,7,Please move the slider all the way to the RIGHT to show that you are paying attention.,R_31BwcmFMmY8Wg3q,2,2024-05-03_17h48.26.392,face trait task,2021.2.3,MacIntel,30.3030303,120315,,,,,,,
,,,,,,2.013333333,2.279,space,0.287,0,45,45,11,1,12,image/12.jpg,0,0,,R_31BwcmFMmY8Wg3q,2,2024-05-03_17h48.26.392,face trait task,2021.2.3,MacIntel,30.3030303,120315,,,,,,,
,,,,,,1.06,2.029,space,0.728,0,46,46,14,1,15,image/15.jpg,0,0,,R_31BwcmFMmY8Wg3q,2,2024-05-03_17h48.26.392,face trait task,2021.2.3,MacIntel,30.3030303,120315,,,,,,,
,,,,,,1.953333333,3.98,space,0.422,0,47,47,3,1,4,image/4.jpg,0,0,,R_31BwcmFMmY8Wg3q,2,2024-05-03_17h48.26.392,face trait task,2021.2.3,MacIntel,30.3030303,120315,,,,,,,
,,,,,,1,2.645,space,0.37,0,48,48,16,1,17,image/17.jpg,0,0,,R_31BwcmFMmY8Wg3q,2,2024-05-03_17h48.26.392,face trait task,2021.2.3,MacIntel,30.3030303,120315,,,,,,,
,,,,,,1.78,2.712,space,0.339,0,49,49,31,1,32,image/32.jpg,0,0,,R_31BwcmFMmY8Wg3q,2,2024-05-03_17h48.26.392,face trait task,2021.2.3,MacIntel,30.3030303,120315,,,,,,,
,,,,,,1.033333333,2.149,space,0.39,0,50,50,18,1,19,image/19.jpg,0,0,,R_31BwcmFMmY8Wg3q,2,2024-05-03_17h48.26.392,face trait task,2021.2.3,MacIntel,30.3030303,120315,,,,,,,
,,,,,,1.033333333,2.516,space,0.356,0,51,51,9,1,10,image/10.jpg,0,0,,R_31BwcmFMmY8Wg3q,2,2024-05-03_17h48.26.392,face trait task,2021.2.3,MacIntel,30.3030303,120315,,,,,,,
,,,,,,1.12,5.548,space,3.057,0,52,52,21,1,22,image/22.jpg,0,0,,R_31BwcmFMmY8Wg3q,2,2024-05-03_17h48.26.392,face trait task,2021.2.3,MacIntel,30.3030303,120315,,,,,,,
,,,,,,,,,,,,,,,,,,,,R_31BwcmFMmY8Wg3q,2,2024-05-03_17h48.26.392,face trait task,2021.2.3,MacIntel,30.3030303,120315,0,2,2,2,1,2,trustworthy.png
,,,,,critical,1.1,8.774,space,5.239,0,0,0,32,1,33,image/33.jpg,0,0,,R_31BwcmFMmY8Wg3q,2,2024-05-03_17h48.26.392,face trait task,2021.2.3,MacIntel,30.3030303,120315,,,,,,,
,,,,,,2.546666667,6.849,space,2.973,0,1,1,33,1,34,image/34.jpg,0,0,,R_31BwcmFMmY8Wg3q,2,2024-05-03_17h48.26.392,face trait task,2021.2.3,MacIntel,30.3030303,120315,,,,,,,
,,,,,,4.993333333,2.528,space,0.821,0,2,2,5,1,6,image/6.jpg,0,0,,R_31BwcmFMmY8Wg3q,2,2024-05-03_17h48.26.392,face trait task,2021.2.3,MacIntel,30.3030303,120315,,,,,,,
,,,,,,1.026666667,3.895,space,0.288,0,3,3,22,1,23,image/23.jpg,0,0,,R_31BwcmFMmY8Wg3q,2,2024-05-03_17h48.26.392,face trait task,2021.2.3,MacIntel,30.3030303,120315,,,,,,,
,,,,,,1.026666667,2.116,space,0.322,0,4,4,24,1,25,image/25.jpg,0,0,,R_31BwcmFMmY8Wg3q,2,2024-05-03_17h48.26.392,face trait task,2021.2.3,MacIntel,30.3030303,120315,,,,,,,
,,,,,,1,2.044,space,1.088,0,5,5,36,1,37,image/37.jpg,0,0,,R_31BwcmFMmY8Wg3q,2,2024-05-03_17h48.26.392,face trait task,2021.2.3,MacIntel,30.3030303,120315,,,,,,,
,,,,,,4.006666667,2.33,space,0.222,0,6,6,8,1,9,image/9.jpg,0,0,,R_31BwcmFMmY8Wg3q,2,2024-05-03_17h48.26.392,face trait task,2021.2.3,MacIntel,30.3030303,120315,,,,,,,
,,,,,,7,6.378,space,1.554,0,7,7,21,1,22,image/22.jpg,0,0,,R_31BwcmFMmY8Wg3q,2,2024-05-03_17h48.26.392,face trait task,2021.2.3,MacIntel,30.3030303,120315,,,,,,,
,,,,,,3.993333333,2.978,space,0.407,0,8,8,6,1,7,image/7.jpg,0,0,,R_31BwcmFMmY8Wg3q,2,2024-05-03_17h48.26.392,face trait task,2021.2.3,MacIntel,30.3030303,120315,,,,,,,
,,,,,,3.42,3.263,space,1.238,0,9,9,37,1,38,image/38.jpg,0,0,,R_31BwcmFMmY8Wg3q,2,2024-05-03_17h48.26.392,face trait task,2021.2.3,MacIntel,30.3030303,120315,,,,,,,
,,,,,,7,2.56,space,0.921,0,10,10,50,1,58,image/fill_img.png,1,7,Please move the slider all the way to the RIGHT to show that you are paying attention.,R_31BwcmFMmY8Wg3q,2,2024-05-03_17h48.26.392,face trait task,2021.2.3,MacIntel,30.3030303,120315,,,,,,,
,,,,,,3.993333333,2.879,space,0.301,0,11,11,26,1,27,image/27.jpg,0,0,,R_31BwcmFMmY8Wg3q,2,2024-05-03_17h48.26.392,face trait task,2021.2.3,MacIntel,30.3030303,120315,,,,,,,
,,,,,,2.02,3.394,space,0.306,0,12,12,2,1,3,image/3.jpg,0,0,,R_31BwcmFMmY8Wg3q,2,2024-05-03_17h48.26.392,face trait task,2021.2.3,MacIntel,30.3030303,120315,,,,,,,
,,,,,,6.386666667,3.117,space,0.322,0,13,13,47,1,48,image/48.jpg,0,0,,R_31BwcmFMmY8Wg3q,2,2024-05-03_17h48.26.392,face trait task,2021.2.3,MacIntel,30.3030303,120315,,,,,,,
,,,,,,4.98,3.047,space,0.423,0,14,14,31,1,32,image/32.jpg,0,0,,R_31BwcmFMmY8Wg3q,2,2024-05-03_17h48.26.392,face trait task,2021.2.3,MacIntel,30.3030303,120315,,,,,,,
,,,,,,2.413333333,2.797,space,0.405,0,15,15,41,1,42,image/42.jpg,0,0,,R_31BwcmFMmY8Wg3q,2,2024-05-03_17h48.26.392,face trait task,2021.2.3,MacIntel,30.3030303,120315,,,,,,,
,,,,,,1.093333333,2.082,space,0.271,0,16,16,40,1,41,image/41.jpg,0,0,,R_31BwcmFMmY8Wg3q,2,2024-05-03_17h48.26.392,face trait task,2021.2.3,MacIntel,30.3030303,120315,,,,,,,
,,,,,,6.98,2.85,space,0.872,0,17,17,13,1,14,image/14.jpg,0,0,,R_31BwcmFMmY8Wg3q,2,2024-05-03_17h48.26.392,face trait task,2021.2.3,MacIntel,30.3030303,120315,,,,,,,
,,,,,,4.966666667,2.41,space,0.306,0,18,18,28,1,29,image/29.jpg,0,0,,R_31BwcmFMmY8Wg3q,2,2024-05-03_17h48.26.392,face trait task,2021.2.3,MacIntel,30.3030303,120315,,,,,,,
,,,,,,5.326666667,2.88,space,1.005,0,19,19,3,1,4,image/4.jpg,0,0,,R_31BwcmFMmY8Wg3q,2,2024-05-03_17h48.26.392,face trait task,2021.2.3,MacIntel,30.3030303,120315,,,,,,,
,,,,,,6.986666667,3.164,space,1.273,0,20,20,17,1,18,image/18.jpg,0,0,,R_31BwcmFMmY8Wg3q,2,2024-05-03_17h48.26.392,face trait task,2021.2.3,MacIntel,30.3030303,120315,,,,,,,
,,,,,,7,2.628,space,0.805,0,21,21,51,1,60,image/fill_img.png,1,7,Please move the slider all the way to the RIGHT to show that you are paying attention.,R_31BwcmFMmY8Wg3q,2,2024-05-03_17h48.26.392,face trait task,2021.2.3,MacIntel,30.3030303,120315,,,,,,,
,,,,,,4,3.497,space,1.506,0,22,22,23,1,24,image/24.jpg,0,0,,R_31BwcmFMmY8Wg3q,2,2024-05-03_17h48.26.392,face trait task,2021.2.3,MacIntel,30.3030303,120315,,,,,,,
,,,,,,5.293333333,3.417,space,0.955,0,23,23,7,1,8,image/8.jpg,0,0,,R_31BwcmFMmY8Wg3q,2,2024-05-03_17h48.26.392,face trait task,2021.2.3,MacIntel,30.3030303,120315,,,,,,,
,,,,,,1.22,1.983,space,0.24,0,24,24,49,1,50,image/50.jpg,0,0,,R_31BwcmFMmY8Wg3q,2,2024-05-03_17h48.26.392,face trait task,2021.2.3,MacIntel,30.3030303,120315,,,,,,,
,,,,,,3.993333333,3.242,space,0.203,0,25,25,30,1,31,image/31.jpg,0,0,,R_31BwcmFMmY8Wg3q,2,2024-05-03_17h48.26.392,face trait task,2021.2.3,MacIntel,30.3030303,120315,,,,,,,
,,,,,,1.453333333,2.066,space,0.443,0,26,26,38,1,39,image/39.jpg,0,0,,R_31BwcmFMmY8Wg3q,2,2024-05-03_17h48.26.392,face trait task,2021.2.3,MacIntel,30.3030303,120315,,,,,,,
,,,,,,2.98,2.663,space,0.24,0,27,27,39,1,40,image/40.jpg,0,0,,R_31BwcmFMmY8Wg3q,2,2024-05-03_17h48.26.392,face trait task,2021.2.3,MacIntel,30.3030303,120315,,,,,,,
,,,,,,5.986666667,3.063,space,0.255,0,28,28,0,1,1,image/1.jpg,0,0,,R_31BwcmFMmY8Wg3q,2,2024-05-03_17h48.26.392,face trait task,2021.2.3,MacIntel,30.3030303,120315,,,,,,,
,,,,,,6.113333333,2.345,space,0.773,0,29,29,29,1,30,image/30.jpg,0,0,,R_31BwcmFMmY8Wg3q,2,2024-05-03_17h48.26.392,face trait task,2021.2.3,MacIntel,30.3030303,120315,,,,,,,
,,,,,,5.433333333,3.646,space,0.238,0,30,30,45,1,46,image/46.jpg,0,0,,R_31BwcmFMmY8Wg3q,2,2024-05-03_17h48.26.392,face trait task,2021.2.3,MacIntel,30.3030303,120315,,,,,,,
,,,,,,1,3.182,space,1.056,0,31,31,34,1,35,image/35.jpg,0,0,,R_31BwcmFMmY8Wg3q,2,2024-05-03_17h48.26.392,face trait task,2021.2.3,MacIntel,30.3030303,120315,,,,,,,
,,,,,,4,2.447,space,1.674,0,32,32,4,1,5,image/5.jpg,0,0,,R_31BwcmFMmY8Wg3q,2,2024-05-03_17h48.26.392,face trait task,2021.2.3,MacIntel,30.3030303,120315,,,,,,,
,,,,,,4,1.633,space,0.323,0,33,33,44,1,45,image/45.jpg,0,0,,R_31BwcmFMmY8Wg3q,2,2024-05-03_17h48.26.392,face trait task,2021.2.3,MacIntel,30.3030303,120315,,,,,,,
,,,,,,6.22,3.383,space,1.204,0,34,34,16,1,17,image/17.jpg,0,0,,R_31BwcmFMmY8Wg3q,2,2024-05-03_17h48.26.392,face trait task,2021.2.3,MacIntel,30.3030303,120315,,,,,,,
,,,,,,3.98,2.283,space,0.209,0,35,35,43,1,44,image/44.jpg,0,0,,R_31BwcmFMmY8Wg3q,2,2024-05-03_17h48.26.392,face trait task,2021.2.3,MacIntel,30.3030303,120315,,,,,,,
,,,,,,4.64,4.045,space,0.273,0,36,36,25,1,26,image/26.jpg,0,0,,R_31BwcmFMmY8Wg3q,2,2024-05-03_17h48.26.392,face trait task,2021.2.3,MacIntel,30.3030303,120315,,,,,,,
,,,,,,1.76,2.578,space,0.192,0,37,37,11,1,12,image/12.jpg,0,0,,R_31BwcmFMmY8Wg3q,2,2024-05-03_17h48.26.392,face trait task,2021.2.3,MacIntel,30.3030303,120315,,,,,,,
,,,,,,5.993333333,3.933,space,0.538,0,38,38,27,1,28,image/28.jpg,0,0,,R_31BwcmFMmY8Wg3q,2,2024-05-03_17h48.26.392,face trait task,2021.2.3,MacIntel,30.3030303,120315,,,,,,,
,,,,,,6.646666667,3.245,space,1.289,0,39,39,1,1,2,image/2.jpg,0,0,,R_31BwcmFMmY8Wg3q,2,2024-05-03_17h48.26.392,face trait task,2021.2.3,MacIntel,30.3030303,120315,,,,,,,
,,,,,,6.166666667,2.833,space,0.873,0,40,40,19,1,20,image/20.jpg,0,0,,R_31BwcmFMmY8Wg3q,2,2024-05-03_17h48.26.392,face trait task,2021.2.3,MacIntel,30.3030303,120315,,,,,,,
,,,,,,1.986666667,10.562,space,1.139,0,41,41,10,1,11,image/11.jpg,0,0,,R_31BwcmFMmY8Wg3q,2,2024-05-03_17h48.26.392,face trait task,2021.2.3,MacIntel,30.3030303,120315,,,,,,,
,,,,,,4.533333333,5.095,space,0.307,0,42,42,9,1,10,image/10.jpg,0,0,,R_31BwcmFMmY8Wg3q,2,2024-05-03_17h48.26.392,face trait task,2021.2.3,MacIntel,30.3030303,120315,,,,,,,
,,,,,,6.74,3.179,space,1.906,0,43,43,14,1,15,image/15.jpg,0,0,,R_31BwcmFMmY8Wg3q,2,2024-05-03_17h48.26.392,face trait task,2021.2.3,MacIntel,30.3030303,120315,,,,,,,
,,,,,,6.88,3.199,space,0.541,0,44,44,15,1,16,image/16.jpg,0,0,,R_31BwcmFMmY8Wg3q,2,2024-05-03_17h48.26.392,face trait task,2021.2.3,MacIntel,30.3030303,120315,,,,,,,
,,,,,,7,2.216,space,0.81,0,45,45,52,1,59,image/fill_img.png,1,7,Please move the slider all the way to the RIGHT to show that you are paying attention.,R_31BwcmFMmY8Wg3q,2,2024-05-03_17h48.26.392,face trait task,2021.2.3,MacIntel,30.3030303,120315,,,,,,,
,,,,,,4.993333333,3.298,space,1.04,0,46,46,20,1,21,image/21.jpg,0,0,,R_31BwcmFMmY8Wg3q,2,2024-05-03_17h48.26.392,face trait task,2021.2.3,MacIntel,30.3030303,120315,,,,,,,
,,,,,,4,3.48,space,1.187,0,47,47,35,1,36,image/36.jpg,0,0,,R_31BwcmFMmY8Wg3q,2,2024-05-03_17h48.26.392,face trait task,2021.2.3,MacIntel,30.3030303,120315,,,,,,,
,,,,,,6.706666667,2.331,space,0.78,0,48,48,18,1,19,image/19.jpg,0,0,,R_31BwcmFMmY8Wg3q,2,2024-05-03_17h48.26.392,face trait task,2021.2.3,MacIntel,30.3030303,120315,,,,,,,
,,,,,,1.153333333,2.849,space,1.258,0,49,49,46,1,47,image/47.jpg,0,0,,R_31BwcmFMmY8Wg3q,2,2024-05-03_17h48.26.392,face trait task,2021.2.3,MacIntel,30.3030303,120315,,,,,,,
,,,,,,2.006666667,5.632,space,2.036,0,50,50,48,1,49,image/49.jpg,0,0,,R_31BwcmFMmY8Wg3q,2,2024-05-03_17h48.26.392,face trait task,2021.2.3,MacIntel,30.3030303,120315,,,,,,,
,,,,,,1.673333333,2.061,space,0.49,0,51,51,42,1,43,image/43.jpg,0,0,,R_31BwcmFMmY8Wg3q,2,2024-05-03_17h48.26.392,face trait task,2021.2.3,MacIntel,30.3030303,120315,,,,,,,
,,,,,,6.52,2.596,space,0.79,0,52,52,12,1,13,image/13.jpg,0,0,,R_31BwcmFMmY8Wg3q,2,2024-05-03_17h48.26.392,face trait task,2021.2.3,MacIntel,30.3030303,120315,,,,,,,
,,,,,,,,,,,,,,,,,,,,R_31BwcmFMmY8Wg3q,2,2024-05-03_17h48.26.392,face trait task,2021.2.3,MacIntel,30.3030303,120315,0,3,3,0,1,0,critical.png
