choose_trial,key_resp.keys,key_resp.rt,key_resp_4.keys,key_resp_4.rt,session_trait,slider_face_judge.response,slider_face_judge.rt,key_resp_3.keys,key_resp_3.rt,face_loop.thisRepN,face_loop.thisTrialN,face_loop.thisN,face_loop.thisIndex,face_loop.ran,face_serial,image_name,isCheck,answer,check_question,participant,session,date,expName,psychopyVersion,OS,frameRate,SONAid,session.thisRepN,session.thisTrialN,session.thisN,session.thisIndex,session.ran,session_serial,slider_judge_img
"[0,1,2,3,4,5,6,7,8,9,10,11,12,13,14,15,16,17,18,19,20,21,22,23,24,25,26,27,28,29,30,31,32,33,34,35,36,37,38,39,40,41,42,43,44,45,46,47,48,49,56,53,53]",space,9.1043,space,29.3102,friendly,4.716666667,8.2947,space,0.7389,0,0,0,17,1,18,image/18.jpg,0,0,,R_3WksQ064xj6JYYN,2,2024-05-05_13h48.14.470,face trait task,2021.2.3,Win32,59.88023952,120834,,,,,,,
,,,,,,5,10.2823,space,0.9785,0,1,1,38,1,39,image/39.jpg,0,0,,R_3WksQ064xj6JYYN,2,2024-05-05_13h48.14.470,face trait task,2021.2.3,Win32,59.88023952,120834,,,,,,,
,,,,,,3.21111145,5.6299,space,2.7135,0,2,2,26,1,27,image/27.jpg,0,0,,R_3WksQ064xj6JYYN,2,2024-05-05_13h48.14.470,face trait task,2021.2.3,Win32,59.88023952,120834,,,,,,,
,,,,,,4.833333333,7.6021,space,0.6082,0,3,3,16,1,17,image/17.jpg,0,0,,R_3WksQ064xj6JYYN,2,2024-05-05_13h48.14.470,face trait task,2021.2.3,Win32,59.88023952,120834,,,,,,,
,,,,,,2.65,6.2731,space,1.1646,0,4,4,13,1,14,image/14.jpg,0,0,,R_3WksQ064xj6JYYN,2,2024-05-05_13h48.14.470,face trait task,2021.2.3,Win32,59.88023952,120834,,,,,,,
,,,,,,5.177778117,5.2959,space,2.3546,0,5,5,2,1,3,image/3.jpg,0,0,,R_3WksQ064xj6JYYN,2,2024-05-05_13h48.14.470,face trait task,2021.2.3,Win32,59.88023952,120834,,,,,,,
,,,,,,4.75,3.631,space,2.069,0,6,6,14,1,15,image/15.jpg,0,0,,R_3WksQ064xj6JYYN,2,2024-05-05_13h48.14.470,face trait task,2021.2.3,Win32,59.88023952,120834,,,,,,,
,,,,,,5,2.4045,space,0.7191,0,7,7,40,1,41,image/41.jpg,0,0,,R_3WksQ064xj6JYYN,2,2024-05-05_13h48.14.470,face trait task,2021.2.3,Win32,59.88023952,120834,,,,,,,
,,,,,,3.51111145,5.0648,space,0.5691,0,8,8,37,1,38,image/38.jpg,0,0,,R_3WksQ064xj6JYYN,2,2024-05-05_13h48.14.470,face trait task,2021.2.3,Win32,59.88023952,120834,,,,,,,
,,,,,,4.994444784,5.1958,space,0.2952,0,9,9,36,1,37,image/37.jpg,0,0,,R_3WksQ064xj6JYYN,2,2024-05-05_13h48.14.470,face trait task,2021.2.3,Win32,59.88023952,120834,,,,,,,
,,,,,,6.994444784,3.8471,space,0.3684,0,10,10,50,1,57,image/fill_img.png,1,7,Please move the slider all the way to the RIGHT to show that you are paying attention.,R_3WksQ064xj6JYYN,2,2024-05-05_13h48.14.470,face trait task,2021.2.3,Win32,59.88023952,120834,,,,,,,
,,,,,,3.466666667,31.6365,space,0.1972,0,11,11,19,1,20,image/20.jpg,0,0,,R_3WksQ064xj6JYYN,2,2024-05-05_13h48.14.470,face trait task,2021.2.3,Win32,59.88023952,120834,,,,,,,
,,,,,,2.255555725,6.2585,space,0.5287,0,12,12,10,1,11,image/11.jpg,0,0,,R_3WksQ064xj6JYYN,2,2024-05-05_13h48.14.470,face trait task,2021.2.3,Win32,59.88023952,120834,,,,,,,
,,,,,,4.783333333,6.7816,space,3.6676,0,13,13,48,1,49,image/49.jpg,0,0,,R_3WksQ064xj6JYYN,2,2024-05-05_13h48.14.470,face trait task,2021.2.3,Win32,59.88023952,120834,,,,,,,
,,,,,,4.51111145,3.8466,space,0.4382,0,14,14,1,1,2,image/2.jpg,0,0,,R_3WksQ064xj6JYYN,2,2024-05-05_13h48.14.470,face trait task,2021.2.3,Win32,59.88023952,120834,,,,,,,
,,,,,,2.977778117,6.3995,space,3.1942,0,15,15,21,1,22,image/22.jpg,0,0,,R_3WksQ064xj6JYYN,2,2024-05-05_13h48.14.470,face trait task,2021.2.3,Win32,59.88023952,120834,,,,,,,
,,,,,,3.805555725,7.8723,space,4.7355,0,16,16,18,1,19,image/19.jpg,0,0,,R_3WksQ064xj6JYYN,2,2024-05-05_13h48.14.470,face trait task,2021.2.3,Win32,59.88023952,120834,,,,,,,
,,,,,,4.25,2.7941,space,0.3902,0,17,17,9,1,10,image/10.jpg,0,0,,R_3WksQ064xj6JYYN,2,2024-05-05_13h48.14.470,face trait task,2021.2.3,Win32,59.88023952,120834,,,,,,,
,,,,,,5.383333333,2.8117,space,0.6516,0,18,18,22,1,23,image/23.jpg,0,0,,R_3WksQ064xj6JYYN,2,2024-05-05_13h48.14.470,face trait task,2021.2.3,Win32,59.88023952,120834,,,,,,,
,,,,,,3.5,10.9559,space,10.3432,0,19,19,47,1,48,image/48.jpg,0,0,,R_3WksQ064xj6JYYN,2,2024-05-05_13h48.14.470,face trait task,2021.2.3,Win32,59.88023952,120834,,,,,,,
,,,,,,2.238889058,5.922,space,0.2342,0,20,20,15,1,16,image/16.jpg,0,0,,R_3WksQ064xj6JYYN,2,2024-05-05_13h48.14.470,face trait task,2021.2.3,Win32,59.88023952,120834,,,,,,,
,,,,,,1.005555725,2.4702,space,0.3364,0,21,21,52,1,54,image/fill_img.png,1,1,Please move the slider all the way to the LEFT to show that you are paying attention.,R_3WksQ064xj6JYYN,2,2024-05-05_13h48.14.470,face trait task,2021.2.3,Win32,59.88023952,120834,,,,,,,
,,,,,,3.155555725,7.2071,space,0.2679,0,22,22,24,1,25,image/25.jpg,0,0,,R_3WksQ064xj6JYYN,2,2024-05-05_13h48.14.470,face trait task,2021.2.3,Win32,59.88023952,120834,,,,,,,
,,,,,,2.977778117,2.1127,space,0.7187,0,23,23,41,1,42,image/42.jpg,0,0,,R_3WksQ064xj6JYYN,2,2024-05-05_13h48.14.470,face trait task,2021.2.3,Win32,59.88023952,120834,,,,,,,
,,,,,,5.488889058,4.9118,space,0.6235,0,24,24,34,1,35,image/35.jpg,0,0,,R_3WksQ064xj6JYYN,2,2024-05-05_13h48.14.470,face trait task,2021.2.3,Win32,59.88023952,120834,,,,,,,
,,,,,,2.077777863,5.4415,space,1.7134,0,25,25,42,1,43,image/43.jpg,0,0,,R_3WksQ064xj6JYYN,2,2024-05-05_13h48.14.470,face trait task,2021.2.3,Win32,59.88023952,120834,,,,,,,
,,,,,,2.983333333,3.2716,space,0.2515,0,26,26,45,1,46,image/46.jpg,0,0,,R_3WksQ064xj6JYYN,2,2024-05-05_13h48.14.470,face trait task,2021.2.3,Win32,59.88023952,120834,,,,,,,
,,,,,,5.316666667,3.1806,space,2.6623,0,27,27,3,1,4,image/4.jpg,0,0,,R_3WksQ064xj6JYYN,2,2024-05-05_13h48.14.470,face trait task,2021.2.3,Win32,59.88023952,120834,,,,,,,
,,,,,,3.988889058,3.4755,space,0.4044,0,28,28,32,1,33,image/33.jpg,0,0,,R_3WksQ064xj6JYYN,2,2024-05-05_13h48.14.470,face trait task,2021.2.3,Win32,59.88023952,120834,,,,,,,
,,,,,,4.333333333,4.7965,space,1.7105,0,29,29,31,1,32,image/32.jpg,0,0,,R_3WksQ064xj6JYYN,2,2024-05-05_13h48.14.470,face trait task,2021.2.3,Win32,59.88023952,120834,,,,,,,
,,,,,,3,6.0191,space,3.053,0,30,30,30,1,31,image/31.jpg,0,0,,R_3WksQ064xj6JYYN,2,2024-05-05_13h48.14.470,face trait task,2021.2.3,Win32,59.88023952,120834,,,,,,,
,,,,,,4.477778117,5.1197,space,0.4638,0,31,31,4,1,5,image/5.jpg,0,0,,R_3WksQ064xj6JYYN,2,2024-05-05_13h48.14.470,face trait task,2021.2.3,Win32,59.88023952,120834,,,,,,,
,,,,,,1.844444529,3.3461,space,0.4763,0,32,32,29,1,30,image/30.jpg,0,0,,R_3WksQ064xj6JYYN,2,2024-05-05_13h48.14.470,face trait task,2021.2.3,Win32,59.88023952,120834,,,,,,,
,,,,,,4.516666667,2.9042,space,0.4029,0,33,33,20,1,21,image/21.jpg,0,0,,R_3WksQ064xj6JYYN,2,2024-05-05_13h48.14.470,face trait task,2021.2.3,Win32,59.88023952,120834,,,,,,,
,,,,,,3.727778117,2.8254,space,0.4726,0,34,34,23,1,24,image/24.jpg,0,0,,R_3WksQ064xj6JYYN,2,2024-05-05_13h48.14.470,face trait task,2021.2.3,Win32,59.88023952,120834,,,,,,,
,,,,,,3.988889058,2.8811,space,0.2533,0,35,35,33,1,34,image/34.jpg,0,0,,R_3WksQ064xj6JYYN,2,2024-05-05_13h48.14.470,face trait task,2021.2.3,Win32,59.88023952,120834,,,,,,,
,,,,,,4.472222392,4.5797,space,0.2754,0,36,36,25,1,26,image/26.jpg,0,0,,R_3WksQ064xj6JYYN,2,2024-05-05_13h48.14.470,face trait task,2021.2.3,Win32,59.88023952,120834,,,,,,,
,,,,,,2.977778117,6.1452,space,0.2166,0,37,37,28,1,29,image/29.jpg,0,0,,R_3WksQ064xj6JYYN,2,2024-05-05_13h48.14.470,face trait task,2021.2.3,Win32,59.88023952,120834,,,,,,,
,,,,,,5.344444784,3.2637,space,0.2779,0,38,38,43,1,44,image/44.jpg,0,0,,R_3WksQ064xj6JYYN,2,2024-05-05_13h48.14.470,face trait task,2021.2.3,Win32,59.88023952,120834,,,,,,,
,,,,,,1.555555725,2.4025,space,0.5866,0,39,39,8,1,9,image/9.jpg,0,0,,R_3WksQ064xj6JYYN,2,2024-05-05_13h48.14.470,face trait task,2021.2.3,Win32,59.88023952,120834,,,,,,,
,,,,,,5.922222392,4.8529,space,0.8402,0,40,40,11,1,12,image/12.jpg,0,0,,R_3WksQ064xj6JYYN,2,2024-05-05_13h48.14.470,face trait task,2021.2.3,Win32,59.88023952,120834,,,,,,,
,,,,,,2.8,3.0463,space,0.3522,0,41,41,39,1,40,image/40.jpg,0,0,,R_3WksQ064xj6JYYN,2,2024-05-05_13h48.14.470,face trait task,2021.2.3,Win32,59.88023952,120834,,,,,,,
,,,,,,1.994444529,2.4706,space,0.3027,0,42,42,5,1,6,image/6.jpg,0,0,,R_3WksQ064xj6JYYN,2,2024-05-05_13h48.14.470,face trait task,2021.2.3,Win32,59.88023952,120834,,,,,,,
,,,,,,4.966666667,5.1472,space,1.4727,0,43,43,7,1,8,image/8.jpg,0,0,,R_3WksQ064xj6JYYN,2,2024-05-05_13h48.14.470,face trait task,2021.2.3,Win32,59.88023952,120834,,,,,,,
,,,,,,5.4,2.3057,space,0.2726,0,44,44,12,1,13,image/13.jpg,0,0,,R_3WksQ064xj6JYYN,2,2024-05-05_13h48.14.470,face trait task,2021.2.3,Win32,59.88023952,120834,,,,,,,
,,,,,,2.483333333,4.1363,space,0.2696,0,45,45,0,1,1,image/1.jpg,0,0,,R_3WksQ064xj6JYYN,2,2024-05-05_13h48.14.470,face trait task,2021.2.3,Win32,59.88023952,120834,,,,,,,
,,,,,,2.577777863,5.6689,space,3.2527,0,46,46,44,1,45,image/45.jpg,0,0,,R_3WksQ064xj6JYYN,2,2024-05-05_13h48.14.470,face trait task,2021.2.3,Win32,59.88023952,120834,,,,,,,
,,,,,,1.916666667,2.0721,space,0.3006,0,47,47,6,1,7,image/7.jpg,0,0,,R_3WksQ064xj6JYYN,2,2024-05-05_13h48.14.470,face trait task,2021.2.3,Win32,59.88023952,120834,,,,,,,
,,,,,,5.544444784,6.8491,space,0.0684,0,48,48,46,1,47,image/47.jpg,0,0,,R_3WksQ064xj6JYYN,2,2024-05-05_13h48.14.470,face trait task,2021.2.3,Win32,59.88023952,120834,,,,,,,
,,,,,,3.977778117,9.3948,space,0.2321,0,49,49,49,1,50,image/50.jpg,0,0,,R_3WksQ064xj6JYYN,2,2024-05-05_13h48.14.470,face trait task,2021.2.3,Win32,59.88023952,120834,,,,,,,
,,,,,,1.005555725,4.7686,space,0.934,0,50,50,51,1,54,image/fill_img.png,1,1,Please move the slider all the way to the LEFT to show that you are paying attention.,R_3WksQ064xj6JYYN,2,2024-05-05_13h48.14.470,face trait task,2021.2.3,Win32,59.88023952,120834,,,,,,,
,,,,,,4.46111145,8.7193,space,0.4692,0,51,51,35,1,36,image/36.jpg,0,0,,R_3WksQ064xj6JYYN,2,2024-05-05_13h48.14.470,face trait task,2021.2.3,Win32,59.88023952,120834,,,,,,,
,,,,,,2.494444529,4.8102,space,2.2565,0,52,52,27,1,28,image/28.jpg,0,0,,R_3WksQ064xj6JYYN,2,2024-05-05_13h48.14.470,face trait task,2021.2.3,Win32,59.88023952,120834,,,,,,,
,,,,,,,,,,,,,,,,,,,,R_3WksQ064xj6JYYN,2,2024-05-05_13h48.14.470,face trait task,2021.2.3,Win32,59.88023952,120834,0,0,0,3,1,3,friendly.png
,,,,,trustworthy,6.472222392,14.193,space,0.2812,0,0,0,14,1,15,image/15.jpg,0,0,,R_3WksQ064xj6JYYN,2,2024-05-05_13h48.14.470,face trait task,2021.2.3,Win32,59.88023952,120834,,,,,,,
,,,,,,3.01111145,8.1304,space,0.3502,0,1,1,27,1,28,image/28.jpg,0,0,,R_3WksQ064xj6JYYN,2,2024-05-05_13h48.14.470,face trait task,2021.2.3,Win32,59.88023952,120834,,,,,,,
,,,,,,3.977778117,3.0454,space,0.4843,0,2,2,28,1,29,image/29.jpg,0,0,,R_3WksQ064xj6JYYN,2,2024-05-05_13h48.14.470,face trait task,2021.2.3,Win32,59.88023952,120834,,,,,,,
,,,,,,4.46111145,4.8117,space,0.4532,0,3,3,48,1,49,image/49.jpg,0,0,,R_3WksQ064xj6JYYN,2,2024-05-05_13h48.14.470,face trait task,2021.2.3,Win32,59.88023952,120834,,,,,,,
,,,,,,1.538889058,3.4863,space,0.4375,0,4,4,30,1,31,image/31.jpg,0,0,,R_3WksQ064xj6JYYN,2,2024-05-05_13h48.14.470,face trait task,2021.2.3,Win32,59.88023952,120834,,,,,,,
,,,,,,2.527777863,3.1948,space,0.5667,0,5,5,6,1,7,image/7.jpg,0,0,,R_3WksQ064xj6JYYN,2,2024-05-05_13h48.14.470,face trait task,2021.2.3,Win32,59.88023952,120834,,,,,,,
,,,,,,1.988889058,3.3982,space,0.4106,0,6,6,10,1,11,image/11.jpg,0,0,,R_3WksQ064xj6JYYN,2,2024-05-05_13h48.14.470,face trait task,2021.2.3,Win32,59.88023952,120834,,,,,,,
,,,,,,3.588889058,9.2692,space,4.07,0,7,7,41,1,42,image/42.jpg,0,0,,R_3WksQ064xj6JYYN,2,2024-05-05_13h48.14.470,face trait task,2021.2.3,Win32,59.88023952,120834,,,,,,,
,,,,,,5.75,6.1896,space,2.1481,0,8,8,35,1,36,image/36.jpg,0,0,,R_3WksQ064xj6JYYN,2,2024-05-05_13h48.14.470,face trait task,2021.2.3,Win32,59.88023952,120834,,,,,,,
,,,,,,3.988889058,3.487,space,0.5118,0,9,9,42,1,43,image/43.jpg,0,0,,R_3WksQ064xj6JYYN,2,2024-05-05_13h48.14.470,face trait task,2021.2.3,Win32,59.88023952,120834,,,,,,,
,,,,,,4.3,5.2923,space,0.4226,0,10,10,40,1,41,image/41.jpg,0,0,,R_3WksQ064xj6JYYN,2,2024-05-05_13h48.14.470,face trait task,2021.2.3,Win32,59.88023952,120834,,,,,,,
,,,,,,4.7,4.825,space,2.2563,0,11,11,19,1,20,image/20.jpg,0,0,,R_3WksQ064xj6JYYN,2,2024-05-05_13h48.14.470,face trait task,2021.2.3,Win32,59.88023952,120834,,,,,,,
,,,,,,3.366666667,2.8165,space,0.3586,0,12,12,15,1,16,image/16.jpg,0,0,,R_3WksQ064xj6JYYN,2,2024-05-05_13h48.14.470,face trait task,2021.2.3,Win32,59.88023952,120834,,,,,,,
,,,,,,3.994444784,5.1027,space,11.9047,0,13,13,26,1,27,image/27.jpg,0,0,,R_3WksQ064xj6JYYN,2,2024-05-05_13h48.14.470,face trait task,2021.2.3,Win32,59.88023952,120834,,,,,,,
,,,,,,1.016666667,3.642,space,0.3687,0,14,14,51,1,54,image/fill_img.png,1,1,Please move the slider all the way to the LEFT to show that you are paying attention.,R_3WksQ064xj6JYYN,2,2024-05-05_13h48.14.470,face trait task,2021.2.3,Win32,59.88023952,120834,,,,,,,
,,,,,,3.983333333,4.4693,space,0.2735,0,15,15,9,1,10,image/10.jpg,0,0,,R_3WksQ064xj6JYYN,2,2024-05-05_13h48.14.470,face trait task,2021.2.3,Win32,59.88023952,120834,,,,,,,
,,,,,,2.988889058,3.7239,space,0.3416,0,16,16,3,1,4,image/4.jpg,0,0,,R_3WksQ064xj6JYYN,2,2024-05-05_13h48.14.470,face trait task,2021.2.3,Win32,59.88023952,120834,,,,,,,
,,,,,,4.5,6.1011,space,1.2864,0,17,17,25,1,26,image/26.jpg,0,0,,R_3WksQ064xj6JYYN,2,2024-05-05_13h48.14.470,face trait task,2021.2.3,Win32,59.88023952,120834,,,,,,,
,,,,,,3.472222392,7.8312,space,0.8183,0,18,18,18,1,19,image/19.jpg,0,0,,R_3WksQ064xj6JYYN,2,2024-05-05_13h48.14.470,face trait task,2021.2.3,Win32,59.88023952,120834,,,,,,,
,,,,,,4.994444784,5.5689,space,0.4841,0,19,19,49,1,50,image/50.jpg,0,0,,R_3WksQ064xj6JYYN,2,2024-05-05_13h48.14.470,face trait task,2021.2.3,Win32,59.88023952,120834,,,,,,,
,,,,,,1,2.6209,space,0.336,0,20,20,52,1,54,image/fill_img.png,1,1,Please move the slider all the way to the LEFT to show that you are paying attention.,R_3WksQ064xj6JYYN,2,2024-05-05_13h48.14.470,face trait task,2021.2.3,Win32,59.88023952,120834,,,,,,,
,,,,,,5.022222392,6.5202,space,0.3389,0,21,21,33,1,34,image/34.jpg,0,0,,R_3WksQ064xj6JYYN,2,2024-05-05_13h48.14.470,face trait task,2021.2.3,Win32,59.88023952,120834,,,,,,,
,,,,,,4.488889058,7.0889,space,0.3673,0,22,22,31,1,32,image/32.jpg,0,0,,R_3WksQ064xj6JYYN,2,2024-05-05_13h48.14.470,face trait task,2021.2.3,Win32,59.88023952,120834,,,,,,,
,,,,,,3.466666667,4.1029,space,0.3409,0,23,23,36,1,37,image/37.jpg,0,0,,R_3WksQ064xj6JYYN,2,2024-05-05_13h48.14.470,face trait task,2021.2.3,Win32,59.88023952,120834,,,,,,,
,,,,,,2.488889058,2.8479,space,0.5008,0,24,24,5,1,6,image/6.jpg,0,0,,R_3WksQ064xj6JYYN,2,2024-05-05_13h48.14.470,face trait task,2021.2.3,Win32,59.88023952,120834,,,,,,,
,,,,,,5.988889058,6.2876,space,5.7887,0,25,25,22,1,23,image/23.jpg,0,0,,R_3WksQ064xj6JYYN,2,2024-05-05_13h48.14.470,face trait task,2021.2.3,Win32,59.88023952,120834,,,,,,,
,,,,,,4.977778117,6.2724,space,0.2848,0,26,26,32,1,33,image/33.jpg,0,0,,R_3WksQ064xj6JYYN,2,2024-05-05_13h48.14.470,face trait task,2021.2.3,Win32,59.88023952,120834,,,,,,,
,,,,,,4.988889058,4.4548,space,0.4482,0,27,27,7,1,8,image/8.jpg,0,0,,R_3WksQ064xj6JYYN,2,2024-05-05_13h48.14.470,face trait task,2021.2.3,Win32,59.88023952,120834,,,,,,,
,,,,,,5.305555725,5.8737,space,0.4501,0,28,28,12,1,13,image/13.jpg,0,0,,R_3WksQ064xj6JYYN,2,2024-05-05_13h48.14.470,face trait task,2021.2.3,Win32,59.88023952,120834,,,,,,,
,,,,,,5.483333333,5.1209,space,0.2812,0,29,29,1,1,2,image/2.jpg,0,0,,R_3WksQ064xj6JYYN,2,2024-05-05_13h48.14.470,face trait task,2021.2.3,Win32,59.88023952,120834,,,,,,,
,,,,,,3.005555725,5.746,space,1.1609,0,30,30,46,1,47,image/47.jpg,0,0,,R_3WksQ064xj6JYYN,2,2024-05-05_13h48.14.470,face trait task,2021.2.3,Win32,59.88023952,120834,,,,,,,
,,,,,,3.977778117,3.7701,space,0.3077,0,31,31,4,1,5,image/5.jpg,0,0,,R_3WksQ064xj6JYYN,2,2024-05-05_13h48.14.470,face trait task,2021.2.3,Win32,59.88023952,120834,,,,,,,
,,,,,,2.977778117,5.864,space,2.8533,0,32,32,43,1,44,image/44.jpg,0,0,,R_3WksQ064xj6JYYN,2,2024-05-05_13h48.14.470,face trait task,2021.2.3,Win32,59.88023952,120834,,,,,,,
,,,,,,3.988889058,6.0776,space,0.8078,0,33,33,23,1,24,image/24.jpg,0,0,,R_3WksQ064xj6JYYN,2,2024-05-05_13h48.14.470,face trait task,2021.2.3,Win32,59.88023952,120834,,,,,,,
,,,,,,3.988889058,3.5558,space,2.0397,0,34,34,0,1,1,image/1.jpg,0,0,,R_3WksQ064xj6JYYN,2,2024-05-05_13h48.14.470,face trait task,2021.2.3,Win32,59.88023952,120834,,,,,,,
,,,,,,2.616666667,3.5264,space,0.9426,0,35,35,34,1,35,image/35.jpg,0,0,,R_3WksQ064xj6JYYN,2,2024-05-05_13h48.14.470,face trait task,2021.2.3,Win32,59.88023952,120834,,,,,,,
,,,,,,3.522222392,3.0337,space,0.3588,0,36,36,8,1,9,image/9.jpg,0,0,,R_3WksQ064xj6JYYN,2,2024-05-05_13h48.14.470,face trait task,2021.2.3,Win32,59.88023952,120834,,,,,,,
,,,,,,4.983333333,7.1219,space,3.9374,0,37,37,2,1,3,image/3.jpg,0,0,,R_3WksQ064xj6JYYN,2,2024-05-05_13h48.14.470,face trait task,2021.2.3,Win32,59.88023952,120834,,,,,,,
,,,,,,2.538889058,12.203,space,1.9678,0,38,38,39,1,40,image/40.jpg,0,0,,R_3WksQ064xj6JYYN,2,2024-05-05_13h48.14.470,face trait task,2021.2.3,Win32,59.88023952,120834,,,,,,,
,,,,,,4.01111145,11.7405,space,0.1469,0,39,39,44,1,45,image/45.jpg,0,0,,R_3WksQ064xj6JYYN,2,2024-05-05_13h48.14.470,face trait task,2021.2.3,Win32,59.88023952,120834,,,,,,,
,,,,,,1.822222392,6.848,space,0.2668,0,40,40,45,1,46,image/46.jpg,0,0,,R_3WksQ064xj6JYYN,2,2024-05-05_13h48.14.470,face trait task,2021.2.3,Win32,59.88023952,120834,,,,,,,
,,,,,,2.977778117,3.0079,space,0.3343,0,41,41,29,1,30,image/30.jpg,0,0,,R_3WksQ064xj6JYYN,2,2024-05-05_13h48.14.470,face trait task,2021.2.3,Win32,59.88023952,120834,,,,,,,
,,,,,,2.466666667,2.4383,space,0.3349,0,42,42,13,1,14,image/14.jpg,0,0,,R_3WksQ064xj6JYYN,2,2024-05-05_13h48.14.470,face trait task,2021.2.3,Win32,59.88023952,120834,,,,,,,
,,,,,,6.972222392,3.5085,space,0.301,0,43,43,50,1,57,image/fill_img.png,1,7,Please move the slider all the way to the RIGHT to show that you are paying attention.,R_3WksQ064xj6JYYN,2,2024-05-05_13h48.14.470,face trait task,2021.2.3,Win32,59.88023952,120834,,,,,,,
,,,,,,6.477778117,3.3856,space,0.5429,0,44,44,17,1,18,image/18.jpg,0,0,,R_3WksQ064xj6JYYN,2,2024-05-05_13h48.14.470,face trait task,2021.2.3,Win32,59.88023952,120834,,,,,,,
,,,,,,2.533333333,4.5416,space,0.4254,0,45,45,37,1,38,image/38.jpg,0,0,,R_3WksQ064xj6JYYN,2,2024-05-05_13h48.14.470,face trait task,2021.2.3,Win32,59.88023952,120834,,,,,,,
,,,,,,5.194444784,6.7051,space,1.1509,0,46,46,16,1,17,image/17.jpg,0,0,,R_3WksQ064xj6JYYN,2,2024-05-05_13h48.14.470,face trait task,2021.2.3,Win32,59.88023952,120834,,,,,,,
,,,,,,2.983333333,5.1293,space,0.3081,0,47,47,38,1,39,image/39.jpg,0,0,,R_3WksQ064xj6JYYN,2,2024-05-05_13h48.14.470,face trait task,2021.2.3,Win32,59.88023952,120834,,,,,,,
,,,,,,4,4.9092,space,0.3344,0,48,48,24,1,25,image/25.jpg,0,0,,R_3WksQ064xj6JYYN,2,2024-05-05_13h48.14.470,face trait task,2021.2.3,Win32,59.88023952,120834,,,,,,,
,,,,,,3.494444784,2.5875,space,0.2694,0,49,49,21,1,22,image/22.jpg,0,0,,R_3WksQ064xj6JYYN,2,2024-05-05_13h48.14.470,face trait task,2021.2.3,Win32,59.88023952,120834,,,,,,,
,,,,,,5.383333333,4.7797,space,0.2846,0,50,50,20,1,21,image/21.jpg,0,0,,R_3WksQ064xj6JYYN,2,2024-05-05_13h48.14.470,face trait task,2021.2.3,Win32,59.88023952,120834,,,,,,,
,,,,,,2.872222392,5.8976,space,0.2085,0,51,51,47,1,48,image/48.jpg,0,0,,R_3WksQ064xj6JYYN,2,2024-05-05_13h48.14.470,face trait task,2021.2.3,Win32,59.88023952,120834,,,,,,,
,,,,,,5.51111145,3.7438,space,0.2959,0,52,52,11,1,12,image/12.jpg,0,0,,R_3WksQ064xj6JYYN,2,2024-05-05_13h48.14.470,face trait task,2021.2.3,Win32,59.88023952,120834,,,,,,,
,,,,,,,,,,,,,,,,,,,,R_3WksQ064xj6JYYN,2,2024-05-05_13h48.14.470,face trait task,2021.2.3,Win32,59.88023952,120834,0,1,1,2,1,2,trustworthy.png
,,,,,competent,5.477778117,6.0874,space,1.4675,0,0,0,34,1,35,image/35.jpg,0,0,,R_3WksQ064xj6JYYN,2,2024-05-05_13h48.14.470,face trait task,2021.2.3,Win32,59.88023952,120834,,,,,,,
,,,,,,5,3.7976,space,0.3524,0,1,1,29,1,30,image/30.jpg,0,0,,R_3WksQ064xj6JYYN,2,2024-05-05_13h48.14.470,face trait task,2021.2.3,Win32,59.88023952,120834,,,,,,,
,,,,,,4.983333333,17.402,space,0.142,0,2,2,37,1,38,image/38.jpg,0,0,,R_3WksQ064xj6JYYN,2,2024-05-05_13h48.14.470,face trait task,2021.2.3,Win32,59.88023952,120834,,,,,,,
,,,,,,3.533333333,4.2387,space,2.0693,0,3,3,9,1,10,image/10.jpg,0,0,,R_3WksQ064xj6JYYN,2,2024-05-05_13h48.14.470,face trait task,2021.2.3,Win32,59.88023952,120834,,,,,,,
,,,,,,5.983333333,2.9874,space,1.8658,0,4,4,19,1,20,image/20.jpg,0,0,,R_3WksQ064xj6JYYN,2,2024-05-05_13h48.14.470,face trait task,2021.2.3,Win32,59.88023952,120834,,,,,,,
,,,,,,2.5,3.9648,space,0.5776,0,5,5,0,1,1,image/1.jpg,0,0,,R_3WksQ064xj6JYYN,2,2024-05-05_13h48.14.470,face trait task,2021.2.3,Win32,59.88023952,120834,,,,,,,
,,,,,,4.472222392,5.3852,space,0.2998,0,6,6,26,1,27,image/27.jpg,0,0,,R_3WksQ064xj6JYYN,2,2024-05-05_13h48.14.470,face trait task,2021.2.3,Win32,59.88023952,120834,,,,,,,
,,,,,,3.505555725,3.6577,space,0.378,0,7,7,32,1,33,image/33.jpg,0,0,,R_3WksQ064xj6JYYN,2,2024-05-05_13h48.14.470,face trait task,2021.2.3,Win32,59.88023952,120834,,,,,,,
,,,,,,6.194444784,3.4218,space,0.5022,0,8,8,4,1,5,image/5.jpg,0,0,,R_3WksQ064xj6JYYN,2,2024-05-05_13h48.14.470,face trait task,2021.2.3,Win32,59.88023952,120834,,,,,,,
,,,,,,5.977778117,2.6385,space,0.4196,0,9,9,11,1,12,image/12.jpg,0,0,,R_3WksQ064xj6JYYN,2,2024-05-05_13h48.14.470,face trait task,2021.2.3,Win32,59.88023952,120834,,,,,,,
,,,,,,3.983333333,3.1376,space,0.5365,0,10,10,46,1,47,image/47.jpg,0,0,,R_3WksQ064xj6JYYN,2,2024-05-05_13h48.14.470,face trait task,2021.2.3,Win32,59.88023952,120834,,,,,,,
,,,,,,4.477778117,5.3655,space,0.4225,0,11,11,39,1,40,image/40.jpg,0,0,,R_3WksQ064xj6JYYN,2,2024-05-05_13h48.14.470,face trait task,2021.2.3,Win32,59.88023952,120834,,,,,,,
,,,,,,2.277777863,7.0414,space,0.3577,0,12,12,42,1,43,image/43.jpg,0,0,,R_3WksQ064xj6JYYN,2,2024-05-05_13h48.14.470,face trait task,2021.2.3,Win32,59.88023952,120834,,,,,,,
,,,,,,4.483333333,7.0732,space,4.7552,0,13,13,49,1,50,image/50.jpg,0,0,,R_3WksQ064xj6JYYN,2,2024-05-05_13h48.14.470,face trait task,2021.2.3,Win32,59.88023952,120834,,,,,,,
,,,,,,1.005555725,2.6204,space,0.3025,0,14,14,52,1,54,image/fill_img.png,1,1,Please move the slider all the way to the LEFT to show that you are paying attention.,R_3WksQ064xj6JYYN,2,2024-05-05_13h48.14.470,face trait task,2021.2.3,Win32,59.88023952,120834,,,,,,,
,,,,,,6.672222392,3.8332,space,0.9181,0,15,15,25,1,26,image/26.jpg,0,0,,R_3WksQ064xj6JYYN,2,2024-05-05_13h48.14.470,face trait task,2021.2.3,Win32,59.88023952,120834,,,,,,,
,,,,,,5.01111145,4.853,space,2.037,0,16,16,45,1,46,image/46.jpg,0,0,,R_3WksQ064xj6JYYN,2,2024-05-05_13h48.14.470,face trait task,2021.2.3,Win32,59.88023952,120834,,,,,,,
,,,,,,3.994444784,5.4035,space,0.2361,0,17,17,12,1,13,image/13.jpg,0,0,,R_3WksQ064xj6JYYN,2,2024-05-05_13h48.14.470,face trait task,2021.2.3,Win32,59.88023952,120834,,,,,,,
,,,,,,4.477778117,2.6006,space,0.585,0,18,18,21,1,22,image/22.jpg,0,0,,R_3WksQ064xj6JYYN,2,2024-05-05_13h48.14.470,face trait task,2021.2.3,Win32,59.88023952,120834,,,,,,,
,,,,,,4.988889058,3.6624,space,0.2065,0,19,19,33,1,34,image/34.jpg,0,0,,R_3WksQ064xj6JYYN,2,2024-05-05_13h48.14.470,face trait task,2021.2.3,Win32,59.88023952,120834,,,,,,,
,,,,,,2.994444784,4.52,space,0.3846,0,20,20,43,1,44,image/44.jpg,0,0,,R_3WksQ064xj6JYYN,2,2024-05-05_13h48.14.470,face trait task,2021.2.3,Win32,59.88023952,120834,,,,,,,
,,,,,,4.977778117,4.0764,space,0.3833,0,21,21,22,1,23,image/23.jpg,0,0,,R_3WksQ064xj6JYYN,2,2024-05-05_13h48.14.470,face trait task,2021.2.3,Win32,59.88023952,120834,,,,,,,
,,,,,,6.41111145,5.195,space,0.2851,0,22,22,35,1,36,image/36.jpg,0,0,,R_3WksQ064xj6JYYN,2,2024-05-05_13h48.14.470,face trait task,2021.2.3,Win32,59.88023952,120834,,,,,,,
,,,,,,6.788889058,3.617,space,0.4842,0,23,23,17,1,18,image/18.jpg,0,0,,R_3WksQ064xj6JYYN,2,2024-05-05_13h48.14.470,face trait task,2021.2.3,Win32,59.88023952,120834,,,,,,,
,,,,,,2.083333333,4.8298,space,2.4199,0,24,24,38,1,39,image/39.jpg,0,0,,R_3WksQ064xj6JYYN,2,2024-05-05_13h48.14.470,face trait task,2021.2.3,Win32,59.88023952,120834,,,,,,,
,,,,,,5.472222392,4.0062,space,2.685,0,25,25,23,1,24,image/24.jpg,0,0,,R_3WksQ064xj6JYYN,2,2024-05-05_13h48.14.470,face trait task,2021.2.3,Win32,59.88023952,120834,,,,,,,
,,,,,,1.044444529,2.5547,space,0.3664,0,26,26,51,1,54,image/fill_img.png,1,1,Please move the slider all the way to the LEFT to show that you are paying attention.,R_3WksQ064xj6JYYN,2,2024-05-05_13h48.14.470,face trait task,2021.2.3,Win32,59.88023952,120834,,,,,,,
,,,,,,3.233333333,4.1396,space,0.3521,0,27,27,24,1,25,image/25.jpg,0,0,,R_3WksQ064xj6JYYN,2,2024-05-05_13h48.14.470,face trait task,2021.2.3,Win32,59.88023952,120834,,,,,,,
,,,,,,3.983333333,3.7599,space,0.41,0,28,28,47,1,48,image/48.jpg,0,0,,R_3WksQ064xj6JYYN,2,2024-05-05_13h48.14.470,face trait task,2021.2.3,Win32,59.88023952,120834,,,,,,,
,,,,,,4.288889058,3.4875,space,0.3873,0,29,29,6,1,7,image/7.jpg,0,0,,R_3WksQ064xj6JYYN,2,2024-05-05_13h48.14.470,face trait task,2021.2.3,Win32,59.88023952,120834,,,,,,,
,,,,,,2.783333333,3.9785,space,0.4422,0,30,30,30,1,31,image/31.jpg,0,0,,R_3WksQ064xj6JYYN,2,2024-05-05_13h48.14.470,face trait task,2021.2.3,Win32,59.88023952,120834,,,,,,,
,,,,,,5.888889058,4.5441,space,0.4092,0,31,31,15,1,16,image/16.jpg,0,0,,R_3WksQ064xj6JYYN,2,2024-05-05_13h48.14.470,face trait task,2021.2.3,Win32,59.88023952,120834,,,,,,,
,,,,,,2.211111196,5.6887,space,2.6182,0,32,32,40,1,41,image/41.jpg,0,0,,R_3WksQ064xj6JYYN,2,2024-05-05_13h48.14.470,face trait task,2021.2.3,Win32,59.88023952,120834,,,,,,,
,,,,,,3.994444784,4.2544,space,0.2566,0,33,33,13,1,14,image/14.jpg,0,0,,R_3WksQ064xj6JYYN,2,2024-05-05_13h48.14.470,face trait task,2021.2.3,Win32,59.88023952,120834,,,,,,,
,,,,,,5,4.4797,space,0.2939,0,34,34,41,1,42,image/42.jpg,0,0,,R_3WksQ064xj6JYYN,2,2024-05-05_13h48.14.470,face trait task,2021.2.3,Win32,59.88023952,120834,,,,,,,
,,,,,,5.177778117,5.8403,space,0.4781,0,35,35,2,1,3,image/3.jpg,0,0,,R_3WksQ064xj6JYYN,2,2024-05-05_13h48.14.470,face trait task,2021.2.3,Win32,59.88023952,120834,,,,,,,
,,,,,,4.738889058,2.5874,space,0.4417,0,36,36,36,1,37,image/37.jpg,0,0,,R_3WksQ064xj6JYYN,2,2024-05-05_13h48.14.470,face trait task,2021.2.3,Win32,59.88023952,120834,,,,,,,
,,,,,,5.772222392,4.1208,space,0.326,0,37,37,20,1,21,image/21.jpg,0,0,,R_3WksQ064xj6JYYN,2,2024-05-05_13h48.14.470,face trait task,2021.2.3,Win32,59.88023952,120834,,,,,,,
,,,,,,3.983333333,3.104,space,0.2907,0,38,38,8,1,9,image/9.jpg,0,0,,R_3WksQ064xj6JYYN,2,2024-05-05_13h48.14.470,face trait task,2021.2.3,Win32,59.88023952,120834,,,,,,,
,,,,,,2.994444784,3.2355,space,0.3587,0,39,39,16,1,17,image/17.jpg,0,0,,R_3WksQ064xj6JYYN,2,2024-05-05_13h48.14.470,face trait task,2021.2.3,Win32,59.88023952,120834,,,,,,,
,,,,,,4.477778117,4.6861,space,0.4153,0,40,40,28,1,29,image/29.jpg,0,0,,R_3WksQ064xj6JYYN,2,2024-05-05_13h48.14.470,face trait task,2021.2.3,Win32,59.88023952,120834,,,,,,,
,,,,,,4.838889058,3.9668,space,0.3163,0,41,41,10,1,11,image/11.jpg,0,0,,R_3WksQ064xj6JYYN,2,2024-05-05_13h48.14.470,face trait task,2021.2.3,Win32,59.88023952,120834,,,,,,,
,,,,,,2.783333333,3.1408,space,2.0946,0,42,42,14,1,15,image/15.jpg,0,0,,R_3WksQ064xj6JYYN,2,2024-05-05_13h48.14.470,face trait task,2021.2.3,Win32,59.88023952,120834,,,,,,,
,,,,,,4.988889058,5.8238,space,0.3888,0,43,43,3,1,4,image/4.jpg,0,0,,R_3WksQ064xj6JYYN,2,2024-05-05_13h48.14.470,face trait task,2021.2.3,Win32,59.88023952,120834,,,,,,,
,,,,,,4.533333333,3.1669,space,0.5952,0,44,44,18,1,19,image/19.jpg,0,0,,R_3WksQ064xj6JYYN,2,2024-05-05_13h48.14.470,face trait task,2021.2.3,Win32,59.88023952,120834,,,,,,,
,,,,,,2.5,5.4455,space,0.4789,0,45,45,1,1,2,image/2.jpg,0,0,,R_3WksQ064xj6JYYN,2,2024-05-05_13h48.14.470,face trait task,2021.2.3,Win32,59.88023952,120834,,,,,,,
,,,,,,3.505555725,3.5379,space,0.3097,0,46,46,44,1,45,image/45.jpg,0,0,,R_3WksQ064xj6JYYN,2,2024-05-05_13h48.14.470,face trait task,2021.2.3,Win32,59.88023952,120834,,,,,,,
,,,,,,3,3.1485,space,0.3719,0,47,47,7,1,8,image/8.jpg,0,0,,R_3WksQ064xj6JYYN,2,2024-05-05_13h48.14.470,face trait task,2021.2.3,Win32,59.88023952,120834,,,,,,,
,,,,,,4.516666667,5.6902,space,0.3506,0,48,48,31,1,32,image/32.jpg,0,0,,R_3WksQ064xj6JYYN,2,2024-05-05_13h48.14.470,face trait task,2021.2.3,Win32,59.88023952,120834,,,,,,,
,,,,,,6.972222392,2.4609,space,0.4177,0,49,49,50,1,57,image/fill_img.png,1,7,Please move the slider all the way to the RIGHT to show that you are paying attention.,R_3WksQ064xj6JYYN,2,2024-05-05_13h48.14.470,face trait task,2021.2.3,Win32,59.88023952,120834,,,,,,,
,,,,,,4.016666667,21.1095,space,0.308,0,50,50,5,1,6,image/6.jpg,0,0,,R_3WksQ064xj6JYYN,2,2024-05-05_13h48.14.470,face trait task,2021.2.3,Win32,59.88023952,120834,,,,,,,
,,,,,,3.805555725,4.5253,space,0.313,0,51,51,27,1,28,image/28.jpg,0,0,,R_3WksQ064xj6JYYN,2,2024-05-05_13h48.14.470,face trait task,2021.2.3,Win32,59.88023952,120834,,,,,,,
,,,,,,2.594444529,2.974,space,0.5333,0,52,52,48,1,49,image/49.jpg,0,0,,R_3WksQ064xj6JYYN,2,2024-05-05_13h48.14.470,face trait task,2021.2.3,Win32,59.88023952,120834,,,,,,,
,,,,,,,,,,,,,,,,,,,,R_3WksQ064xj6JYYN,2,2024-05-05_13h48.14.470,face trait task,2021.2.3,Win32,59.88023952,120834,0,2,2,1,1,1,competent.png
,,,,,critical,1.544444529,6.2788,space,0.5774,0,0,0,17,1,18,image/18.jpg,0,0,,R_3WksQ064xj6JYYN,2,2024-05-05_13h48.14.470,face trait task,2021.2.3,Win32,59.88023952,120834,,,,,,,
,,,,,,5.5,3.3709,space,3.1122,0,1,1,28,1,29,image/29.jpg,0,0,,R_3WksQ064xj6JYYN,2,2024-05-05_13h48.14.470,face trait task,2021.2.3,Win32,59.88023952,120834,,,,,,,
,,,,,,5.994444784,6.5236,space,0.5361,0,2,2,36,1,37,image/37.jpg,0,0,,R_3WksQ064xj6JYYN,2,2024-05-05_13h48.14.470,face trait task,2021.2.3,Win32,59.88023952,120834,,,,,,,
,,,,,,6.516666667,2.8036,space,0.3688,0,3,3,30,1,31,image/31.jpg,0,0,,R_3WksQ064xj6JYYN,2,2024-05-05_13h48.14.470,face trait task,2021.2.3,Win32,59.88023952,120834,,,,,,,
,,,,,,6.805555725,2.0896,space,0.5544,0,4,4,45,1,46,image/46.jpg,0,0,,R_3WksQ064xj6JYYN,2,2024-05-05_13h48.14.470,face trait task,2021.2.3,Win32,59.88023952,120834,,,,,,,
,,,,,,1.022222392,2.7187,space,0.253,0,5,5,51,1,54,image/fill_img.png,1,1,Please move the slider all the way to the LEFT to show that you are paying attention.,R_3WksQ064xj6JYYN,2,2024-05-05_13h48.14.470,face trait task,2021.2.3,Win32,59.88023952,120834,,,,,,,
,,,,,,2.511111196,3.3094,space,0.3448,0,6,6,16,1,17,image/17.jpg,0,0,,R_3WksQ064xj6JYYN,2,2024-05-05_13h48.14.470,face trait task,2021.2.3,Win32,59.88023952,120834,,,,,,,
,,,,,,2.211111196,3.1375,space,5.7142,0,7,7,7,1,8,image/8.jpg,0,0,,R_3WksQ064xj6JYYN,2,2024-05-05_13h48.14.470,face trait task,2021.2.3,Win32,59.88023952,120834,,,,,,,
,,,,,,5.5,9.5992,space,6.3444,0,8,8,19,1,20,image/20.jpg,0,0,,R_3WksQ064xj6JYYN,2,2024-05-05_13h48.14.470,face trait task,2021.2.3,Win32,59.88023952,120834,,,,,,,
,,,,,,5.838889058,2.2972,space,1.1903,0,9,9,21,1,22,image/22.jpg,0,0,,R_3WksQ064xj6JYYN,2,2024-05-05_13h48.14.470,face trait task,2021.2.3,Win32,59.88023952,120834,,,,,,,
,,,,,,6.5,1.9729,space,0.8168,0,10,10,13,1,14,image/14.jpg,0,0,,R_3WksQ064xj6JYYN,2,2024-05-05_13h48.14.470,face trait task,2021.2.3,Win32,59.88023952,120834,,,,,,,
,,,,,,1.194444529,4.1523,space,1.1556,0,11,11,2,1,3,image/3.jpg,0,0,,R_3WksQ064xj6JYYN,2,2024-05-05_13h48.14.470,face trait task,2021.2.3,Win32,59.88023952,120834,,,,,,,
,,,,,,2.983333333,3.2693,space,1.1778,0,12,12,9,1,10,image/10.jpg,0,0,,R_3WksQ064xj6JYYN,2,2024-05-05_13h48.14.470,face trait task,2021.2.3,Win32,59.88023952,120834,,,,,,,
,,,,,,5.505555725,3.3341,space,0.2967,0,13,13,6,1,7,image/7.jpg,0,0,,R_3WksQ064xj6JYYN,2,2024-05-05_13h48.14.470,face trait task,2021.2.3,Win32,59.88023952,120834,,,,,,,
,,,,,,2.8,4.2019,space,0.3331,0,14,14,41,1,42,image/42.jpg,0,0,,R_3WksQ064xj6JYYN,2,2024-05-05_13h48.14.470,face trait task,2021.2.3,Win32,59.88023952,120834,,,,,,,
,,,,,,3.538889058,3.5348,space,0.4287,0,15,15,23,1,24,image/24.jpg,0,0,,R_3WksQ064xj6JYYN,2,2024-05-05_13h48.14.470,face trait task,2021.2.3,Win32,59.88023952,120834,,,,,,,
,,,,,,2.744444529,2.994,space,0.307,0,16,16,40,1,41,image/41.jpg,0,0,,R_3WksQ064xj6JYYN,2,2024-05-05_13h48.14.470,face trait task,2021.2.3,Win32,59.88023952,120834,,,,,,,
,,,,,,3.133333333,4.8962,space,0.3056,0,17,17,14,1,15,image/15.jpg,0,0,,R_3WksQ064xj6JYYN,2,2024-05-05_13h48.14.470,face trait task,2021.2.3,Win32,59.88023952,120834,,,,,,,
,,,,,,3.466666667,3.1911,space,0.5048,0,18,18,24,1,25,image/25.jpg,0,0,,R_3WksQ064xj6JYYN,2,2024-05-05_13h48.14.470,face trait task,2021.2.3,Win32,59.88023952,120834,,,,,,,
,,,,,,1.022222392,3.5867,space,0.3225,0,19,19,52,1,54,image/fill_img.png,1,1,Please move the slider all the way to the LEFT to show that you are paying attention.,R_3WksQ064xj6JYYN,2,2024-05-05_13h48.14.470,face trait task,2021.2.3,Win32,59.88023952,120834,,,,,,,
,,,,,,5.46111145,3.8162,space,0.1942,0,20,20,10,1,11,image/11.jpg,0,0,,R_3WksQ064xj6JYYN,2,2024-05-05_13h48.14.470,face trait task,2021.2.3,Win32,59.88023952,120834,,,,,,,
,,,,,,4.994444784,3.4044,space,1.0677,0,21,21,5,1,6,image/6.jpg,0,0,,R_3WksQ064xj6JYYN,2,2024-05-05_13h48.14.470,face trait task,2021.2.3,Win32,59.88023952,120834,,,,,,,
,,,,,,6.944444784,2.1859,space,0.3301,0,22,22,50,1,57,image/fill_img.png,1,7,Please move the slider all the way to the RIGHT to show that you are paying attention.,R_3WksQ064xj6JYYN,2,2024-05-05_13h48.14.470,face trait task,2021.2.3,Win32,59.88023952,120834,,,,,,,
,,,,,,6.527778117,2.7354,space,0.8352,0,23,23,29,1,30,image/30.jpg,0,0,,R_3WksQ064xj6JYYN,2,2024-05-05_13h48.14.470,face trait task,2021.2.3,Win32,59.88023952,120834,,,,,,,
,,,,,,5.5,2.3849,space,0.2998,0,24,24,0,1,1,image/1.jpg,0,0,,R_3WksQ064xj6JYYN,2,2024-05-05_13h48.14.470,face trait task,2021.2.3,Win32,59.88023952,120834,,,,,,,
,,,,,,2.977778117,6.7594,space,0.4847,0,25,25,22,1,23,image/23.jpg,0,0,,R_3WksQ064xj6JYYN,2,2024-05-05_13h48.14.470,face trait task,2021.2.3,Win32,59.88023952,120834,,,,,,,
,,,,,,2.5,3.1686,space,0.6671,0,26,26,49,1,50,image/50.jpg,0,0,,R_3WksQ064xj6JYYN,2,2024-05-05_13h48.14.470,face trait task,2021.2.3,Win32,59.88023952,120834,,,,,,,
,,,,,,5.622222392,4.9377,space,1.4767,0,27,27,39,1,40,image/40.jpg,0,0,,R_3WksQ064xj6JYYN,2,2024-05-05_13h48.14.470,face trait task,2021.2.3,Win32,59.88023952,120834,,,,,,,
,,,,,,5.988889058,1.9365,space,0.6854,0,28,28,15,1,16,image/16.jpg,0,0,,R_3WksQ064xj6JYYN,2,2024-05-05_13h48.14.470,face trait task,2021.2.3,Win32,59.88023952,120834,,,,,,,
,,,,,,3.988889058,3.4634,space,0.2586,0,29,29,34,1,35,image/35.jpg,0,0,,R_3WksQ064xj6JYYN,2,2024-05-05_13h48.14.470,face trait task,2021.2.3,Win32,59.88023952,120834,,,,,,,
,,,,,,4.483333333,2.5953,space,1.3358,0,30,30,26,1,27,image/27.jpg,0,0,,R_3WksQ064xj6JYYN,2,2024-05-05_13h48.14.470,face trait task,2021.2.3,Win32,59.88023952,120834,,,,,,,
,,,,,,3.516666667,3.0654,space,0.373,0,31,31,42,1,43,image/43.jpg,0,0,,R_3WksQ064xj6JYYN,2,2024-05-05_13h48.14.470,face trait task,2021.2.3,Win32,59.88023952,120834,,,,,,,
,,,,,,2.838889058,4.8535,space,0.3393,0,32,32,12,1,13,image/13.jpg,0,0,,R_3WksQ064xj6JYYN,2,2024-05-05_13h48.14.470,face trait task,2021.2.3,Win32,59.88023952,120834,,,,,,,
,,,,,,3.51111145,3.7198,space,0.5019,0,33,33,33,1,34,image/34.jpg,0,0,,R_3WksQ064xj6JYYN,2,2024-05-05_13h48.14.470,face trait task,2021.2.3,Win32,59.88023952,120834,,,,,,,
,,,,,,2.438889058,4.6127,space,0.3423,0,34,34,35,1,36,image/36.jpg,0,0,,R_3WksQ064xj6JYYN,2,2024-05-05_13h48.14.470,face trait task,2021.2.3,Win32,59.88023952,120834,,,,,,,
,,,,,,5.505555725,2.584,space,0.3744,0,35,35,37,1,38,image/38.jpg,0,0,,R_3WksQ064xj6JYYN,2,2024-05-05_13h48.14.470,face trait task,2021.2.3,Win32,59.88023952,120834,,,,,,,
,,,,,,4.027778117,3.6472,space,0.7518,0,36,36,18,1,19,image/19.jpg,0,0,,R_3WksQ064xj6JYYN,2,2024-05-05_13h48.14.470,face trait task,2021.2.3,Win32,59.88023952,120834,,,,,,,
,,,,,,4.422222392,4.2374,space,0.5424,0,37,37,38,1,39,image/39.jpg,0,0,,R_3WksQ064xj6JYYN,2,2024-05-05_13h48.14.470,face trait task,2021.2.3,Win32,59.88023952,120834,,,,,,,
,,,,,,2.983333333,4.486,space,0.3354,0,38,38,44,1,45,image/45.jpg,0,0,,R_3WksQ064xj6JYYN,2,2024-05-05_13h48.14.470,face trait task,2021.2.3,Win32,59.88023952,120834,,,,,,,
,,,,,,6.077778117,3.7804,space,0.2721,0,39,39,3,1,4,image/4.jpg,0,0,,R_3WksQ064xj6JYYN,2,2024-05-05_13h48.14.470,face trait task,2021.2.3,Win32,59.88023952,120834,,,,,,,
,,,,,,3.988889058,2.6713,space,0.3192,0,40,40,32,1,33,image/33.jpg,0,0,,R_3WksQ064xj6JYYN,2,2024-05-05_13h48.14.470,face trait task,2021.2.3,Win32,59.88023952,120834,,,,,,,
,,,,,,1.994444529,4.1585,space,0.3831,0,41,41,11,1,12,image/12.jpg,0,0,,R_3WksQ064xj6JYYN,2,2024-05-05_13h48.14.470,face trait task,2021.2.3,Win32,59.88023952,120834,,,,,,,
,,,,,,4.75,4.0555,space,0.313,0,42,42,4,1,5,image/5.jpg,0,0,,R_3WksQ064xj6JYYN,2,2024-05-05_13h48.14.470,face trait task,2021.2.3,Win32,59.88023952,120834,,,,,,,
,,,,,,4.005555725,3.0947,space,0.4189,0,43,43,43,1,44,image/44.jpg,0,0,,R_3WksQ064xj6JYYN,2,2024-05-05_13h48.14.470,face trait task,2021.2.3,Win32,59.88023952,120834,,,,,,,
,,,,,,5.833333333,3.0138,space,0.4907,0,44,44,31,1,32,image/32.jpg,0,0,,R_3WksQ064xj6JYYN,2,2024-05-05_13h48.14.470,face trait task,2021.2.3,Win32,59.88023952,120834,,,,,,,
,,,,,,2.855555725,3.0458,space,0.3857,0,45,45,48,1,49,image/49.jpg,0,0,,R_3WksQ064xj6JYYN,2,2024-05-05_13h48.14.470,face trait task,2021.2.3,Win32,59.88023952,120834,,,,,,,
,,,,,,6.516666667,3.1174,space,0.579,0,46,46,8,1,9,image/9.jpg,0,0,,R_3WksQ064xj6JYYN,2,2024-05-05_13h48.14.470,face trait task,2021.2.3,Win32,59.88023952,120834,,,,,,,
,,,,,,5.194444784,6.6343,space,0.3866,0,47,47,20,1,21,image/21.jpg,0,0,,R_3WksQ064xj6JYYN,2,2024-05-05_13h48.14.470,face trait task,2021.2.3,Win32,59.88023952,120834,,,,,,,
,,,,,,4.66111145,5.1737,space,0.4779,0,48,48,47,1,48,image/48.jpg,0,0,,R_3WksQ064xj6JYYN,2,2024-05-05_13h48.14.470,face trait task,2021.2.3,Win32,59.88023952,120834,,,,,,,
,,,,,,5.255555725,3.2504,space,0.3087,0,49,49,27,1,28,image/28.jpg,0,0,,R_3WksQ064xj6JYYN,2,2024-05-05_13h48.14.470,face trait task,2021.2.3,Win32,59.88023952,120834,,,,,,,
,,,,,,3.966666667,3.0136,space,0.5657,0,50,50,46,1,47,image/47.jpg,0,0,,R_3WksQ064xj6JYYN,2,2024-05-05_13h48.14.470,face trait task,2021.2.3,Win32,59.88023952,120834,,,,,,,
,,,,,,4.438889058,4.2105,space,0.5693,0,51,51,25,1,26,image/26.jpg,0,0,,R_3WksQ064xj6JYYN,2,2024-05-05_13h48.14.470,face trait task,2021.2.3,Win32,59.88023952,120834,,,,,,,
,,,,,,3.005555725,3.7233,space,0.4425,0,52,52,1,1,2,image/2.jpg,0,0,,R_3WksQ064xj6JYYN,2,2024-05-05_13h48.14.470,face trait task,2021.2.3,Win32,59.88023952,120834,,,,,,,
,,,,,,,,,,,,,,,,,,,,R_3WksQ064xj6JYYN,2,2024-05-05_13h48.14.470,face trait task,2021.2.3,Win32,59.88023952,120834,0,3,3,0,1,0,critical.png
