chooserow,ParID,pre_instru_resp_2.keys,pre_instru_resp_2.rt,pre_instru_resp_3.keys,pre_instru_resp_3.rt,pre_instru_resp_9.keys,pre_instru_resp_9.rt,pre_instru_resp_8.keys,pre_instru_resp_8.rt,pre_instru_resp_4.keys,pre_instru_resp_4.rt,pre_instru_resp_5.keys,pre_instru_resp_5.rt,pre_instru_resp_6.keys,pre_instru_resp_6.rt,key_resp_3.keys,key_resp_3.rt,key_resp_4.keys,key_resp_4.rt,key_resp_5.keys,key_resp_5.rt,key_resp_6.keys,key_resp_6.rt,key_resp_7.keys,key_resp_7.rt,trials_2.thisRepN,trials_2.thisTrialN,trials_2.thisN,trials_2.thisIndex,trials_2.ran,participant,session,date,expName,psychopyVersion,OS,frameRate,SONAid,pre_instru_resp.keys,pre_instru_resp.rt,clicked,judge_2.x,judge_2.y,judge_2.leftButton,judge_2.midButton,judge_2.rightButton,judge_2.clicked_name,trials.thisRepN,trials.thisTrialN,trials.thisN,trials.thisIndex,trials.ran,prac_answer,prac_dot_sti,dotlefttext,dotrighttext,prac_acc,judge.x,judge.y,judge.leftButton,judge.midButton,judge.rightButton,judge.clicked_name,clicked_guilt,slider_guilt.response,slider_guilt.rt,key_guilt.keys,share_slider.response,share_slider.rt,key_share.keys,key_share.rt,slider_apology.response,slider_apology.rt,key_apology.keys,slider_hide.response,slider_hide.rt,slider_forgiveness.response,slider_forgiveness.rt,key_forgiveness.keys,slider_mad.response,slider_mad.rt,trialseq.thisRepN,trialseq.thisTrialN,trialseq.thisN,trialseq.thisIndex,trialseq.ran,type_trial,stipic,DV,picture,answer,number,key_guilt.rt,key_forgiveness.rt,key_apology.rt
"[71,105,3,181,103,51,116,95,62,89,49,178,107,164,202,183,41,130,137,25,76,117,87,56,170,78,145,123,115,61,134,194,144,135,172,163,80,187,131,156,14,151]",R_1WtVKNu6flh5Sp7,space,1.2112,space,2.7676,space,16.0329,space,17.4277,space,25.5897,space,4.0915,space,1.3676,2,8.5111,3,10.0406,3,8.4425,1,7.7345,3,9.0621,0,0,0,0,1,R_1WtVKNu6flh5Sp7,1,2024-04-29_16h54.58.573,interaction task,2021.2.3,Win32,59.52380952,120967,,,,,,,,,,,,,,,,,,,,,,,,,,,,,,,,,,,,,,,,,,,,,,,,,,,,,,,,,
,,,,space,1.1855,space,8.4637,space,12.9054,space,27.4734,space,6.133,space,2.2043,4,2.9075,3,11.2827,3,9.5667,2,1.6166,2,5.7104,1,0,1,0,1,R_1WtVKNu6flh5Sp7,1,2024-04-29_16h54.58.573,interaction task,2021.2.3,Win32,59.52380952,120967,,,,,,,,,,,,,,,,,,,,,,,,,,,,,,,,,,,,,,,,,,,,,,,,,,,,,,,,,
,,,,space,0.9769,space,11.0359,space,1.3999,space,0.6072,space,0.6248,space,0.5908,3,4.7503,1,4.5339,3,2.3272,2,2.3106,2,0.5837,2,0,2,0,1,R_1WtVKNu6flh5Sp7,1,2024-04-29_16h54.58.573,interaction task,2021.2.3,Win32,59.52380952,120967,,,,,,,,,,,,,,,,,,,,,,,,,,,,,,,,,,,,,,,,,,,,,,,,,,,,,,,,,
,,,,,,,,,,,,,,,,,,,,,,,,,,,,,,,R_1WtVKNu6flh5Sp7,1,2024-04-29_16h54.58.573,interaction task,2021.2.3,Win32,59.52380952,120967,space,3.5227,"[""LeftButton_2""]",-0.246874968,-0.33148151,1,0,0,LeftButton_2,0,0,0,1,1,RightButton_2,11dot2.png,Smaller,Greater,,,,,,,,,,,,,,,,,,,,,,,,,,,,,,,,,,,,,,,
,,,,,,,,,,,,,,,,,,,,,,,,,,,,,,,R_1WtVKNu6flh5Sp7,1,2024-04-29_16h54.58.573,interaction task,2021.2.3,Win32,59.52380952,120967,,,"[""LeftButton_2""]",-0.257291635,-0.268518519,1,0,0,LeftButton_2,0,1,1,0,1,LeftButton_2,9dot1.png,Smaller,Greater,,,,,,,,,,,,,,,,,,,,,,,,,,,,,,,,,,,,,,,
,,,,,,,,,,,,,,,,,,,,,,,,,,,,,,,R_1WtVKNu6flh5Sp7,1,2024-04-29_16h54.58.573,interaction task,2021.2.3,Win32,59.52380952,120967,,,"[""LeftButton_2""]",-0.204166651,-0.327777863,1,0,0,LeftButton_2,0,2,2,2,1,LeftButton_2,11dot1.png,Greater,Smaller,,,,,,,,,,,,,,,,,,,,,,,,,,,,,,,,,,,,,,,
,,,,,,,,,,,,,,,,,,,,,,,,,,,,,,,R_1WtVKNu6flh5Sp7,1,2024-04-29_16h54.58.573,interaction task,2021.2.3,Win32,59.52380952,120967,,,,,,,,,,,,,,,,,Smaller,Greater,0.4,0.258333365,-0.477777834,1,0,0,RightButton,"[""RightButton""]",,,,2.567708492,16.2677,space,2.4658,,,,,,,,,,,0,0,0,0,1,1,both_wrong.png,1,RandomDot14.png,No answer,20,,,
,,,,,,,,,,,,,,,,,,,,,,,,,,,,,,,R_1WtVKNu6flh5Sp7,1,2024-04-29_16h54.58.573,interaction task,2021.2.3,Win32,59.52380952,120967,,,,,,,,,,,,,,,,,Smaller,Greater,,-0.21875,-0.503703788,1,0,0,LeftButton,"[""LeftButton""]",1,3.6642,space,,,,,,,,,,,,,,,0,1,1,1,1,2,only_sub_right.png,0,RandomDot17.png,No answer,20,1.2401,,
,,,,,,,,,,,,,,,,,,,,,,,,,,,,,,,R_1WtVKNu6flh5Sp7,1,2024-04-29_16h54.58.573,interaction task,2021.2.3,Win32,59.52380952,120967,,,,,,,,,,,,,,,,,Greater,Smaller,,0.203125,-0.535185213,1,0,0,RightButton,"[""RightButton""]",,,,,,,,,,,,,,,,,,0,2,2,2,1,0,both_right.png,0,RandomDot22.png,No answer,21,,,
,,,,,,,,,,,,,,,,,,,,,,,,,,,,,,,R_1WtVKNu6flh5Sp7,1,2024-04-29_16h54.58.573,interaction task,2021.2.3,Win32,59.52380952,120967,,,,,,,,,,,,,,,,,Greater,Smaller,,0.266666651,-0.524074131,1,0,0,RightButton,"[""RightButton""]",,,,,,,,,,,,,98.29546418,5.7324,space,9.806396504,8.7932,0,3,3,3,1,3,only_sub_wrong.png,3,RandomDot3.png,No answer,19,,1.0721,
,,,,,,,,,,,,,,,,,,,,,,,,,,,,,,,R_1WtVKNu6flh5Sp7,1,2024-04-29_16h54.58.573,interaction task,2021.2.3,Win32,59.52380952,120967,,,,,,,,,,,,,,,,,Smaller,Greater,,-0.222916683,-0.518518519,1,0,0,LeftButton,"[""LeftButton""]",0,4.686,space,,,,,,,,,,,,,,,0,4,4,4,1,2,only_sub_right.png,0,RandomDot21.png,No answer,21,4.2881,,
,,,,,,,,,,,,,,,,,,,,,,,,,,,,,,,R_1WtVKNu6flh5Sp7,1,2024-04-29_16h54.58.573,interaction task,2021.2.3,Win32,59.52380952,120967,,,,,,,,,,,,,,,,,Greater,Smaller,,0.201041698,-0.529629601,1,0,0,RightButton,"[""RightButton""]",0,2.0019,space,,,,,,,,,,,,,,,0,5,5,5,1,1,both_wrong.png,0,RandomDot14.png,No answer,19,1.1284,,
,,,,,,,,,,,,,,,,,,,,,,,,,,,,,,,R_1WtVKNu6flh5Sp7,1,2024-04-29_16h54.58.573,interaction task,2021.2.3,Win32,59.52380952,120967,,,,,,,,,,,,,,,,,Smaller,Greater,,-0.260416667,-0.512963048,1,0,0,LeftButton,"[""LeftButton""]",,,,2.437500159,9.4576,space,2.0375,,,,,,,,,,,0,6,6,6,1,2,only_sub_right.png,1,RandomDot25.png,No answer,19,,,
,,,,,,,,,,,,,,,,,,,,,,,,,,,,,,,R_1WtVKNu6flh5Sp7,1,2024-04-29_16h54.58.573,interaction task,2021.2.3,Win32,59.52380952,120967,,,,,,,,,,,,,,,,,Smaller,Greater,,-0.255208333,-0.522222307,1,0,0,LeftButton,"[""LeftButton""]",,,,,,,,,,,,,99.87374701,5.3753,space,0.021043771,8.0837,0,7,7,7,1,1,both_wrong.png,3,RandomDot12.png,No answer,19,,2.5196,
,,,,,,,,,,,,,,,,,,,,,,,,,,,,,,,R_1WtVKNu6flh5Sp7,1,2024-04-29_16h54.58.573,interaction task,2021.2.3,Win32,59.52380952,120967,,,,,,,,,,,,,,,,,Greater,Smaller,,-0.267708302,-0.520370342,1,0,0,LeftButton,"[""LeftButton""]",,,,0.01562496,2.3535,space,1.7869,,,,,,,,,,,0,8,8,8,1,1,both_wrong.png,1,RandomDot28.png,No answer,21,,,
,,,,,,,,,,,,,,,,,,,,,,,,,,,,,,,R_1WtVKNu6flh5Sp7,1,2024-04-29_16h54.58.573,interaction task,2021.2.3,Win32,59.52380952,120967,,,,,,,,,,,,,,,,,Greater,Smaller,,0.310416698,-0.540740826,1,0,0,RightButton,"[""RightButton""]",,,,,,,,,,,,,99.55808723,6.2328,space,0,3.4187,0,9,9,9,1,1,both_wrong.png,3,RandomDot6.png,No answer,21,,1.1703,
,,,,,,,,,,,,,,,,,,,,,,,,,,,,,,,R_1WtVKNu6flh5Sp7,1,2024-04-29_16h54.58.573,interaction task,2021.2.3,Win32,59.52380952,120967,,,,,,,,,,,,,,,,,Greater,Smaller,,0.305208365,-0.524074131,1,0,0,RightButton,"[""RightButton""]",0,2.9657,space,,,,,,,,,,,,,,,0,10,10,10,1,1,both_wrong.png,0,RandomDot16.png,No answer,19,1.4184,,
,,,,,,,,,,,,,,,,,,,,,,,,,,,,,,,R_1WtVKNu6flh5Sp7,1,2024-04-29_16h54.58.573,interaction task,2021.2.3,Win32,59.52380952,120967,,,,,,,,,,,,,,,,,Smaller,Greater,,0.239583333,-0.525925954,1,0,0,RightButton,"[""RightButton""]",,,,,,,,49,15.1062,space,0,19.5358,,,,,,0,11,11,11,1,3,only_sub_wrong.png,2,RandomDot22.png,No answer,19,,,2.3603
,,,,,,,,,,,,,,,,,,,,,,,,,,,,,,,R_1WtVKNu6flh5Sp7,1,2024-04-29_16h54.58.573,interaction task,2021.2.3,Win32,59.52380952,120967,,,,,,,,,,,,,,,,,Smaller,Greater,,-0.273958286,-0.470370399,1,0,0,LeftButton,"[""LeftButton""]",0,1.8953,space,,,,,,,,,,,,,,,0,12,12,12,1,2,only_sub_right.png,0,RandomDot37.png,No answer,21,0.7235,,
,,,,,,,,,,,,,,,,,,,,,,,,,,,,,,,R_1WtVKNu6flh5Sp7,1,2024-04-29_16h54.58.573,interaction task,2021.2.3,Win32,59.52380952,120967,,,,,,,,,,,,,,,,,Smaller,Greater,,0.273958365,-0.474074046,1,0,0,RightButton,"[""RightButton""]",,,,2.510416905,5.8775,space,2.017,,,,,,,,,,,0,13,13,13,1,3,only_sub_wrong.png,1,RandomDot40.png,No answer,19,,,
,,,,,,,,,,,,,,,,,,,,,,,,,,,,,,,R_1WtVKNu6flh5Sp7,1,2024-04-29_16h54.58.573,interaction task,2021.2.3,Win32,59.52380952,120967,,,,,,,,,,,,,,,,,Smaller,Greater,,-0.277083317,-0.524074131,1,0,0,LeftButton,"[""LeftButton""]",,,,,,,,,,,,,,,,,,0,14,14,14,1,5,both_right.png,10,RandomDot42.png,LeftButton,21,,,
,,,,,,,,,,,,,,,,,,,,,,,,,,,,,,,R_1WtVKNu6flh5Sp7,1,2024-04-29_16h54.58.573,interaction task,2021.2.3,Win32,59.52380952,120967,,,,,,,,,,,,,,,,,Greater,Smaller,,-0.305208286,-0.507407436,1,0,0,LeftButton,"[""LeftButton""]",,,,,,,,,,,,,70.51767677,4.6001,space,29.90320026,6.8565,0,15,15,15,1,3,only_sub_wrong.png,3,RandomDot17.png,No answer,19,,0.8297,
,,,,,,,,,,,,,,,,,,,,,,,,,,,,,,,R_1WtVKNu6flh5Sp7,1,2024-04-29_16h54.58.573,interaction task,2021.2.3,Win32,59.52380952,120967,,,,,,,,,,,,,,,,,Greater,Smaller,,-0.337499976,-0.522222307,1,0,0,LeftButton,"[""LeftButton""]",,,,,,,,,,,,,,,,,,0,16,16,16,1,0,both_right.png,3,RandomDot30.png,No answer,19,,,
,,,,,,,,,,,,,,,,,,,,,,,,,,,,,,,R_1WtVKNu6flh5Sp7,1,2024-04-29_16h54.58.573,interaction task,2021.2.3,Win32,59.52380952,120967,,,,,,,,,,,,,,,,,Smaller,Greater,,0.308333317,-0.524074131,1,0,0,RightButton,"[""RightButton""]",,,,,,,,0,3.8378,space,0,5.9865,,,,,,0,17,17,17,1,2,only_sub_right.png,2,RandomDot8.png,No answer,21,,,1.1507
,,,,,,,,,,,,,,,,,,,,,,,,,,,,,,,R_1WtVKNu6flh5Sp7,1,2024-04-29_16h54.58.573,interaction task,2021.2.3,Win32,59.52380952,120967,,,,,,,,,,,,,,,,,Greater,Smaller,,0.295833349,-0.538888861,1,0,0,RightButton,"[""RightButton""]",,,,,,,,,,,,,0,14.0139,space,0.441920797,2.8079,0,18,18,18,1,2,only_sub_right.png,3,RandomDot23.png,No answer,20,,9.6625,
,,,,,,,,,,,,,,,,,,,,,,,,,,,,,,,R_1WtVKNu6flh5Sp7,1,2024-04-29_16h54.58.573,interaction task,2021.2.3,Win32,59.52380952,120967,,,,,,,,,,,,,,,,,Greater,Smaller,,0.252083381,-0.514814871,1,0,0,RightButton,"[""RightButton""]",,,,,,,,,,,,,,,,,,0,19,19,19,1,0,both_right.png,2,RandomDot39.png,No answer,20,,,
,,,,,,,,,,,,,,,,,,,,,,,,,,,,,,,R_1WtVKNu6flh5Sp7,1,2024-04-29_16h54.58.573,interaction task,2021.2.3,Win32,59.52380952,120967,,,,,,,,,,,,,,,,,Greater,Smaller,,-0.345833341,-0.492592564,1,0,0,LeftButton,"[""LeftButton""]",,,,,,,,0,3.2388,space,0,5.4382,,,,,,0,20,20,20,1,1,both_wrong.png,2,RandomDot9.png,No answer,21,,,1.0402
,,,,,,,,,,,,,,,,,,,,,,,,,,,,,,,R_1WtVKNu6flh5Sp7,1,2024-04-29_16h54.58.573,interaction task,2021.2.3,Win32,59.52380952,120967,,,,,,,,,,,,,,,,,Smaller,Greater,,-0.361458341,-0.516666695,1,0,0,LeftButton,"[""LeftButton""]",,,,0,2.1219,space,1.5133,,,,,,,,,,,0,21,21,21,1,2,only_sub_right.png,1,RandomDot27.png,No answer,21,,,
,,,,,,,,,,,,,,,,,,,,,,,,,,,,,,,R_1WtVKNu6flh5Sp7,1,2024-04-29_16h54.58.573,interaction task,2021.2.3,Win32,59.52380952,120967,,,,,,,,,,,,,,,,,Greater,Smaller,,0.305208365,-0.505555612,1,0,0,RightButton,"[""RightButton""]",,,,,,,,,,,,,100,5.1735,space,0,7.661,0,22,22,22,1,1,both_wrong.png,3,RandomDot17.png,No answer,21,,0.4694,
,,,,,,,,,,,,,,,,,,,,,,,,,,,,,,,R_1WtVKNu6flh5Sp7,1,2024-04-29_16h54.58.573,interaction task,2021.2.3,Win32,59.52380952,120967,,,,,,,,,,,,,,,,,Smaller,Greater,,0.275000016,-0.472222222,1,0,0,RightButton,"[""RightButton""]",0,6.0812,space,,,,,,,,,,,,,,,0,23,23,23,1,1,both_wrong.png,0,RandomDot39.png,No answer,21,3.1143,,
,,,,,,,,,,,,,,,,,,,,,,,,,,,,,,,R_1WtVKNu6flh5Sp7,1,2024-04-29_16h54.58.573,interaction task,2021.2.3,Win32,59.52380952,120967,,,,,,,,,,,,,,,,,Greater,Smaller,,-0.258333286,-0.527777778,1,0,0,LeftButton,"[""LeftButton""]",,,,,,,,71,3.9441,space,10,7.3612,,,,,,0,24,24,24,1,3,only_sub_wrong.png,2,RandomDot39.png,No answer,20,,,1.9457
,,,,,,,,,,,,,,,,,,,,,,,,,,,,,,,R_1WtVKNu6flh5Sp7,1,2024-04-29_16h54.58.573,interaction task,2021.2.3,Win32,59.52380952,120967,,,,,,,,,,,,,,,,,Smaller,Greater,,0.342708429,-0.505555612,1,0,0,RightButton,"[""RightButton""]",,,,,,,,0,7.1671,space,0,5.9903,,,,,,0,25,25,25,1,1,both_wrong.png,2,RandomDot19.png,No answer,19,,,0.5032
,,,,,,,,,,,,,,,,,,,,,,,,,,,,,,,R_1WtVKNu6flh5Sp7,1,2024-04-29_16h54.58.573,interaction task,2021.2.3,Win32,59.52380952,120967,,,,,,,,,,,,,,,,,Greater,Smaller,,-0.321875016,-0.498148176,1,0,0,LeftButton,"[""LeftButton""]",70,2.8106,space,,,,,,,,,,,,,,,0,26,26,26,1,3,only_sub_wrong.png,0,RandomDot15.png,No answer,20,0.6577,,
,,,,,,,,,,,,,,,,,,,,,,,,,,,,,,,R_1WtVKNu6flh5Sp7,1,2024-04-29_16h54.58.573,interaction task,2021.2.3,Win32,59.52380952,120967,,,,,,,,,,,,,,,,,Greater,Smaller,,-0.253124952,-0.540740826,1,0,0,LeftButton,"[""LeftButton""]",,,,,,,,1,3.3959,space,0,5.1963,,,,,,0,27,27,27,1,2,only_sub_right.png,2,RandomDot16.png,No answer,20,,,1.0684
,,,,,,,,,,,,,,,,,,,,,,,,,,,,,,,R_1WtVKNu6flh5Sp7,1,2024-04-29_16h54.58.573,interaction task,2021.2.3,Win32,59.52380952,120967,,,,,,,,,,,,,,,,,Smaller,Greater,,-0.280208349,-0.498148176,1,0,0,LeftButton,"[""LeftButton""]",,,,0.01562496,1.8371,space,0.6389,,,,,,,,,,,0,28,28,28,1,2,only_sub_right.png,1,RandomDot14.png,No answer,20,,,
,,,,,,,,,,,,,,,,,,,,,,,,,,,,,,,R_1WtVKNu6flh5Sp7,1,2024-04-29_16h54.58.573,interaction task,2021.2.3,Win32,59.52380952,120967,,,,,,,,,,,,,,,,,Greater,Smaller,,-0.322916667,-0.537037037,1,0,0,LeftButton,"[""LeftButton""]",,,,2.458333572,4.9815,space,3.896,,,,,,,,,,,0,29,29,29,1,1,both_wrong.png,1,RandomDot23.png,No answer,21,,,
,,,,,,,,,,,,,,,,,,,,,,,,,,,,,,,R_1WtVKNu6flh5Sp7,1,2024-04-29_16h54.58.573,interaction task,2021.2.3,Win32,59.52380952,120967,,,,,,,,,,,,,,,,,Greater,Smaller,,-0.245833317,-0.518518519,1,0,0,LeftButton,"[""LeftButton""]",,,,,,,,,,,,,100,6.4238,space,0,2.3362,0,30,30,30,1,2,only_sub_right.png,3,RandomDot22.png,No answer,20,,0.5759,
,,,,,,,,,,,,,,,,,,,,,,,,,,,,,,,R_1WtVKNu6flh5Sp7,1,2024-04-29_16h54.58.573,interaction task,2021.2.3,Win32,59.52380952,120967,,,,,,,,,,,,,,,,,Greater,Smaller,,-0.270833333,-0.505555612,1,0,0,LeftButton,"[""LeftButton""]",,,,,,,,,,,,,,,,,,0,31,31,31,1,4,both_right.png,10,RandomDot41.png,LeftButton,5,,,
,,,,,,,,,,,,,,,,,,,,,,,,,,,,,,,R_1WtVKNu6flh5Sp7,1,2024-04-29_16h54.58.573,interaction task,2021.2.3,Win32,59.52380952,120967,,,,,,,,,,,,,,,,,Greater,Smaller,,-0.25,-0.459259316,1,0,0,LeftButton,"[""LeftButton""]",80,7.5523,space,,,,,,,,,,,,,,,0,32,32,32,1,3,only_sub_wrong.png,0,RandomDot33.png,No answer,19,4.3006,,
,,,,,,,,,,,,,,,,,,,,,,,,,,,,,,,R_1WtVKNu6flh5Sp7,1,2024-04-29_16h54.58.573,interaction task,2021.2.3,Win32,59.52380952,120967,,,,,,,,,,,,,,,,,Greater,Smaller,,0.323958317,-0.520370342,1,0,0,RightButton,"[""RightButton""]",,,,,,,,,,,,,99.45286195,3.3059,space,0.231482284,2.0788,0,33,33,33,1,2,only_sub_right.png,3,RandomDot26.png,No answer,20,,0.4502,
,,,,,,,,,,,,,,,,,,,,,,,,,,,,,,,R_1WtVKNu6flh5Sp7,1,2024-04-29_16h54.58.573,interaction task,2021.2.3,Win32,59.52380952,120967,,,,,,,,,,,,,,,,,Greater,Smaller,,0.307291667,-0.511111083,1,0,0,RightButton,"[""RightButton""]",,,,,,,,31,3.9332,space,0,6.8315,,,,,,0,34,34,34,1,3,only_sub_wrong.png,2,RandomDot38.png,No answer,21,,,1.0676
,,,,,,,,,,,,,,,,,,,,,,,,,,,,,,,R_1WtVKNu6flh5Sp7,1,2024-04-29_16h54.58.573,interaction task,2021.2.3,Win32,59.52380952,120967,,,,,,,,,,,,,,,,,Smaller,Greater,,0.205208381,-0.535185213,1,0,0,RightButton,"[""RightButton""]",,,,2.489583492,3.731,space,2.4833,,,,,,,,,,,0,35,35,35,1,3,only_sub_wrong.png,1,RandomDot6.png,No answer,20,,,
,,,,,,,,,,,,,,,,,,,,,,,,,,,,,,,R_1WtVKNu6flh5Sp7,1,2024-04-29_16h54.58.573,interaction task,2021.2.3,Win32,59.52380952,120967,,,,,,,,,,,,,,,,,Smaller,Greater,,-0.258333286,-0.537037037,1,0,0,LeftButton,"[""LeftButton""]",,,,,,,,4,3.781,space,1,1.9627,,,,,,0,36,36,36,1,1,both_wrong.png,2,RandomDot8.png,No answer,20,,,0.5917
,,,,,,,,,,,,,,,,,,,,,,,,,,,,,,,R_1WtVKNu6flh5Sp7,1,2024-04-29_16h54.58.573,interaction task,2021.2.3,Win32,59.52380952,120967,,,,,,,,,,,,,,,,,Smaller,Greater,,0.332291683,-0.505555612,1,0,0,RightButton,"[""RightButton""]",,,,,,,,,,,,,54.41919674,2.2428,space,34.53283149,3.9558,0,37,37,37,1,3,only_sub_wrong.png,3,RandomDot18.png,No answer,21,,0.6727,
,,,,,,,,,,,,,,,,,,,,,,,,,,,,,,,R_1WtVKNu6flh5Sp7,1,2024-04-29_16h54.58.573,interaction task,2021.2.3,Win32,59.52380952,120967,,,,,,,,,,,,,,,,,Smaller,Greater,,-0.251041651,-0.490740741,1,0,0,LeftButton,"[""LeftButton""]",,,,,,,,0,2.8395,space,0,4.2367,,,,,,0,38,38,38,1,2,only_sub_right.png,2,RandomDot5.png,No answer,21,,,0.2353
,,,,,,,,,,,,,,,,,,,,,,,,,,,,,,,R_1WtVKNu6flh5Sp7,1,2024-04-29_16h54.58.573,interaction task,2021.2.3,Win32,59.52380952,120967,,,,,,,,,,,,,,,,,Greater,Smaller,,0.309375048,-0.529629601,1,0,0,RightButton,"[""RightButton""]",,,,4.880208174,2.6801,space,1.2201,,,,,,,,,,,0,39,39,39,1,3,only_sub_wrong.png,1,RandomDot4.png,No answer,20,,,
,,,,,,,,,,,,,,,,,,,,,,,,,,,,,,,R_1WtVKNu6flh5Sp7,1,2024-04-29_16h54.58.573,interaction task,2021.2.3,Win32,59.52380952,120967,,,,,,,,,,,,,,,,,Greater,Smaller,,0.309375048,-0.483333305,1,0,0,RightButton,"[""RightButton""]",,,,,,,,,,,,,,,,,,0,40,40,40,1,0,both_right.png,1,RandomDot29.png,No answer,21,,,
,,,,,,,,,,,,,,,,,,,,,,,,,,,,,,,R_1WtVKNu6flh5Sp7,1,2024-04-29_16h54.58.573,interaction task,2021.2.3,Win32,59.52380952,120967,,,,,,,,,,,,,,,,,Smaller,Greater,,0.280208349,-0.474074046,1,0,0,RightButton,"[""RightButton""]",70,3.7883,space,,,,,,,,,,,,,,,0,41,41,41,1,3,only_sub_wrong.png,0,RandomDot26.png,No answer,19,1.1139,,
