chooserow,ParID,pre_instru_resp_2.keys,pre_instru_resp_2.rt,pre_instru_resp_3.keys,pre_instru_resp_3.rt,pre_instru_resp_9.keys,pre_instru_resp_9.rt,pre_instru_resp_8.keys,pre_instru_resp_8.rt,pre_instru_resp_4.keys,pre_instru_resp_4.rt,pre_instru_resp_5.keys,pre_instru_resp_5.rt,pre_instru_resp_6.keys,pre_instru_resp_6.rt,key_resp_3.keys,key_resp_3.rt,key_resp_4.keys,key_resp_4.rt,key_resp_5.keys,key_resp_5.rt,key_resp_6.keys,key_resp_6.rt,key_resp_7.keys,key_resp_7.rt,trials_2.thisRepN,trials_2.thisTrialN,trials_2.thisN,trials_2.thisIndex,trials_2.ran,participant,session,date,expName,psychopyVersion,OS,frameRate,SONAid,pre_instru_resp.keys,pre_instru_resp.rt,clicked,judge_2.x,judge_2.y,judge_2.leftButton,judge_2.midButton,judge_2.rightButton,judge_2.clicked_name,trials.thisRepN,trials.thisTrialN,trials.thisN,trials.thisIndex,trials.ran,prac_answer,prac_dot_sti,dotlefttext,dotrighttext,prac_acc,judge.x,judge.y,judge.leftButton,judge.midButton,judge.rightButton,judge.clicked_name,clicked_guilt,slider_guilt.response,slider_guilt.rt,key_guilt.keys,share_slider.response,share_slider.rt,key_share.keys,slider_apology.response,slider_apology.rt,key_apology.keys,slider_hide.response,slider_hide.rt,slider_forgiveness.response,slider_forgiveness.rt,key_forgiveness.keys,slider_mad.response,slider_mad.rt,trialseq.thisRepN,trialseq.thisTrialN,trialseq.thisN,trialseq.thisIndex,trialseq.ran,type_trial,stipic,DV,picture,answer,number,key_apology.rt,key_share.rt,key_guilt.rt,key_forgiveness.rt
"[16,130,124,40,113,68,25,51,7,187,129,75,50,62,86,118,55,172,167,79,180,158,140,89,105,190,135,179,147,84,60,96,194,111,154,83,201,177,163,136,155,99]",R_31BwcmFMmY8Wg3q,space,2.817,space,4.774,space,23.275,space,21.156,space,44.806,space,18.34,space,7.603,3,7.292,1,9.018,3,6.917,2,8.401,2,4.285,0,0,0,0,1,R_31BwcmFMmY8Wg3q,1,2024-05-03_17h33.09.978,interaction task,2021.2.3,MacIntel,30.3030303,120315,,,,,,,,,,,,,,,,,,,,,,,,,,,,,,,,,,,,,,,,,,,,,,,,,,,,,,,,,
,,,,,,,,,,,,,,,,,,,,,,,,,,,,,,,R_31BwcmFMmY8Wg3q,1,2024-05-03_17h33.09.978,interaction task,2021.2.3,MacIntel,30.3030303,120315,space,3.331,"[""RightButton_2""]",0.280555556,-0.284444444,1,0,0,RightButton_2,0,0,0,2,1,RightButton_2,11dot1.png,Smaller,Greater,,,,,,,,,,,,,,,,,,,,,,,,,,,,,,,,,,,,,,,
,,,,,,,,,,,,,,,,,,,,,,,,,,,,,,,R_31BwcmFMmY8Wg3q,1,2024-05-03_17h33.09.978,interaction task,2021.2.3,MacIntel,30.3030303,120315,,,"[""LeftButton_2""]",-0.316666667,-0.317777778,1,0,0,LeftButton_2,0,1,1,0,1,RightButton_2,9dot2.png,Greater,Smaller,,,,,,,,,,,,,,,,,,,,,,,,,,,,,,,,,,,,,,,
,,,,,,,,,,,,,,,,,,,,,,,,,,,,,,,R_31BwcmFMmY8Wg3q,1,2024-05-03_17h33.09.978,interaction task,2021.2.3,MacIntel,30.3030303,120315,,,"[""LeftButton_2""]",-0.330555556,-0.322222222,1,0,0,LeftButton_2,0,2,2,1,1,LeftButton_2,9dot2.png,Smaller,Greater,,,,,,,,,,,,,,,,,,,,,,,,,,,,,,,,,,,,,,,
,,,,,,,,,,,,,,,,,,,,,,,,,,,,,,,R_31BwcmFMmY8Wg3q,1,2024-05-03_17h33.09.978,interaction task,2021.2.3,MacIntel,30.3030303,120315,,,,,,,,,,,,,,,,,Greater,Smaller,0.4,-0.298611111,-0.504444444,1,0,0,LeftButton,"[""LeftButton""]",,,,,,,,,,,,,,,,,0,0,0,0,1,0,both_right.png,1,RandomDot12.png,No answer,21,,,,
,,,,,,,,,,,,,,,,,,,,,,,,,,,,,,,R_31BwcmFMmY8Wg3q,1,2024-05-03_17h33.09.978,interaction task,2021.2.3,MacIntel,30.3030303,120315,,,,,,,,,,,,,,,,,Smaller,Greater,,0.338888889,-0.522222222,1,0,0,RightButton,"[""RightButton""]",,,,,,,0,13.047,space,0,16.549,,,,,,0,1,1,1,1,2,only_sub_right.png,2,RandomDot8.png,No answer,21,1.534,,,
,,,,,,,,,,,,,,,,,,,,,,,,,,,,,,,R_31BwcmFMmY8Wg3q,1,2024-05-03_17h33.09.978,interaction task,2021.2.3,MacIntel,30.3030303,120315,,,,,,,,,,,,,,,,,Greater,Smaller,,-0.341666667,-0.482222222,1,0,0,LeftButton,"[""LeftButton""]",,,,,,,0,2.172,space,0,3.949,,,,,,0,2,2,2,1,2,only_sub_right.png,2,RandomDot20.png,No answer,20,2.1,,,
,,,,,,,,,,,,,,,,,,,,,,,,,,,,,,,R_31BwcmFMmY8Wg3q,1,2024-05-03_17h33.09.978,interaction task,2021.2.3,MacIntel,30.3030303,120315,,,,,,,,,,,,,,,,,Greater,Smaller,,-0.348611111,-0.493333333,1,0,0,LeftButton,"[""LeftButton""]",,,,,,,,,,,,,,,,,0,3,3,3,1,0,both_right.png,3,RandomDot36.png,No answer,20,,,,
,,,,,,,,,,,,,,,,,,,,,,,,,,,,,,,R_31BwcmFMmY8Wg3q,1,2024-05-03_17h33.09.978,interaction task,2021.2.3,MacIntel,30.3030303,120315,,,,,,,,,,,,,,,,,Greater,Smaller,,0.277777778,-0.475555556,1,0,0,RightButton,"[""RightButton""]",,,,4.993055556,20.249,space,,,,,,,,,,,0,4,4,4,1,2,only_sub_right.png,1,RandomDot3.png,No answer,20,,0.942,,
,,,,,,,,,,,,,,,,,,,,,,,,,,,,,,,R_31BwcmFMmY8Wg3q,1,2024-05-03_17h33.09.978,interaction task,2021.2.3,MacIntel,30.3030303,120315,,,,,,,,,,,,,,,,,Smaller,Greater,,0.348611111,-0.482222222,1,0,0,RightButton,"[""RightButton""]",,,,4.972222222,2.852,space,,,,,,,,,,,0,5,5,5,1,1,both_wrong.png,1,RandomDot8.png,No answer,21,,1.033,,
,,,,,,,,,,,,,,,,,,,,,,,,,,,,,,,R_31BwcmFMmY8Wg3q,1,2024-05-03_17h33.09.978,interaction task,2021.2.3,MacIntel,30.3030303,120315,,,,,,,,,,,,,,,,,Greater,Smaller,,-0.244444444,-0.495555556,1,0,0,LeftButton,"[""LeftButton""]",,,,,,,,,,,,,,,,,0,6,6,6,1,0,both_right.png,2,RandomDot39.png,No answer,20,,,,
,,,,,,,,,,,,,,,,,,,,,,,,,,,,,,,R_31BwcmFMmY8Wg3q,1,2024-05-03_17h33.09.978,interaction task,2021.2.3,MacIntel,30.3030303,120315,,,,,,,,,,,,,,,,,Greater,Smaller,,-0.348611111,-0.502222222,1,0,0,LeftButton,"[""LeftButton""]",0,2.688,space,,,,,,,,,,,,,,0,7,7,7,1,1,both_wrong.png,0,RandomDot14.png,No answer,19,,,1.033,
,,,,,,,,,,,,,,,,,,,,,,,,,,,,,,,R_31BwcmFMmY8Wg3q,1,2024-05-03_17h33.09.978,interaction task,2021.2.3,MacIntel,30.3030303,120315,,,,,,,,,,,,,,,,,Smaller,Greater,,0.243055556,-0.466666667,1,0,0,RightButton,"[""RightButton""]",,,,,,,,,,,,,,,,,0,8,8,8,1,0,both_right.png,0,RandomDot27.png,No answer,19,,,,
,,,,,,,,,,,,,,,,,,,,,,,,,,,,,,,R_31BwcmFMmY8Wg3q,1,2024-05-03_17h33.09.978,interaction task,2021.2.3,MacIntel,30.3030303,120315,,,,,,,,,,,,,,,,,Smaller,Greater,,-0.304166667,-0.495555556,1,0,0,LeftButton,"[""LeftButton""]",,,,,,,,,,,,99.80359147,3.182,space,0.056116723,5.349,0,9,9,9,1,3,only_sub_wrong.png,3,RandomDot18.png,No answer,21,,,,0.603
,,,,,,,,,,,,,,,,,,,,,,,,,,,,,,,R_31BwcmFMmY8Wg3q,1,2024-05-03_17h33.09.978,interaction task,2021.2.3,MacIntel,30.3030303,120315,,,,,,,,,,,,,,,,,Smaller,Greater,,-0.254166667,-0.517777778,1,0,0,LeftButton,"[""LeftButton""]",,,,,,,0,2.45,space,0,3.814,,,,,,0,10,10,10,1,2,only_sub_right.png,2,RandomDot37.png,No answer,19,0.367,,,
,,,,,,,,,,,,,,,,,,,,,,,,,,,,,,,R_31BwcmFMmY8Wg3q,1,2024-05-03_17h33.09.978,interaction task,2021.2.3,MacIntel,30.3030303,120315,,,,,,,,,,,,,,,,,Greater,Smaller,,-0.361111111,-0.535555556,1,0,0,LeftButton,"[""LeftButton""]",,,,,,,0,1.653,space,0,2.882,,,,,,0,11,11,11,1,1,both_wrong.png,2,RandomDot10.png,No answer,20,0.668,,,
,,,,,,,,,,,,,,,,,,,,,,,,,,,,,,,R_31BwcmFMmY8Wg3q,1,2024-05-03_17h33.09.978,interaction task,2021.2.3,MacIntel,30.3030303,120315,,,,,,,,,,,,,,,,,Greater,Smaller,,0.302777778,-0.504444444,1,0,0,RightButton,"[""RightButton""]",0,1.854,space,,,,,,,,,,,,,,0,12,12,12,1,1,both_wrong.png,0,RandomDot12.png,No answer,21,,,0.967,
,,,,,,,,,,,,,,,,,,,,,,,,,,,,,,,R_31BwcmFMmY8Wg3q,1,2024-05-03_17h33.09.978,interaction task,2021.2.3,MacIntel,30.3030303,120315,,,,,,,,,,,,,,,,,Greater,Smaller,,-0.248611111,-0.542222222,1,0,0,LeftButton,"[""LeftButton""]",,,,4.993055556,4.314,space,,,,,,,,,,,0,13,13,13,1,1,both_wrong.png,1,RandomDot28.png,No answer,21,,1.28,,
,,,,,,,,,,,,,,,,,,,,,,,,,,,,,,,R_31BwcmFMmY8Wg3q,1,2024-05-03_17h33.09.978,interaction task,2021.2.3,MacIntel,30.3030303,120315,,,,,,,,,,,,,,,,,Greater,Smaller,,0.325,-0.54,1,0,0,RightButton,"[""RightButton""]",,,,,,,,,,,,99.80359147,2.277,space,0,3.899,0,14,14,14,1,1,both_wrong.png,3,RandomDot13.png,No answer,21,,,,0.733
,,,,,,,,,,,,,,,,,,,,,,,,,,,,,,,R_31BwcmFMmY8Wg3q,1,2024-05-03_17h33.09.978,interaction task,2021.2.3,MacIntel,30.3030303,120315,,,,,,,,,,,,,,,,,Smaller,Greater,,-0.230555556,-0.502222222,1,0,0,LeftButton,"[""LeftButton""]",,,,3,6.955,space,,,,,,,,,,,0,15,15,15,1,2,only_sub_right.png,1,RandomDot34.png,No answer,19,,0.671,,
,,,,,,,,,,,,,,,,,,,,,,,,,,,,,,,R_31BwcmFMmY8Wg3q,1,2024-05-03_17h33.09.978,interaction task,2021.2.3,MacIntel,30.3030303,120315,,,,,,,,,,,,,,,,,Smaller,Greater,,0.341666667,-0.491111111,1,0,0,RightButton,"[""RightButton""]",0,2.356,space,,,,,,,,,,,,,,0,16,16,16,1,1,both_wrong.png,0,RandomDot28.png,No answer,19,,,0.7,
,,,,,,,,,,,,,,,,,,,,,,,,,,,,,,,R_31BwcmFMmY8Wg3q,1,2024-05-03_17h33.09.978,interaction task,2021.2.3,MacIntel,30.3030303,120315,,,,,,,,,,,,,,,,,Greater,Smaller,,0.306944444,-0.466666667,1,0,0,RightButton,"[""RightButton""]",,,,,,,5,2.981,space,0,5.843,,,,,,0,17,17,17,1,3,only_sub_wrong.png,2,RandomDot38.png,No answer,21,0.572,,,
,,,,,,,,,,,,,,,,,,,,,,,,,,,,,,,R_31BwcmFMmY8Wg3q,1,2024-05-03_17h33.09.978,interaction task,2021.2.3,MacIntel,30.3030303,120315,,,,,,,,,,,,,,,,,Smaller,Greater,,-0.326388889,-0.533333333,1,0,0,LeftButton,"[""LeftButton""]",,,,4.027777778,6.152,space,,,,,,,,,,,0,18,18,18,1,3,only_sub_wrong.png,1,RandomDot22.png,No answer,20,,2.106,,
,,,,,,,,,,,,,,,,,,,,,,,,,,,,,,,R_31BwcmFMmY8Wg3q,1,2024-05-03_17h33.09.978,interaction task,2021.2.3,MacIntel,30.3030303,120315,,,,,,,,,,,,,,,,,Smaller,Greater,,-0.243055556,-0.528888889,1,0,0,LeftButton,"[""LeftButton""]",,,,,,,0,1.68,space,0,3.645,,,,,,0,19,19,19,1,1,both_wrong.png,2,RandomDot24.png,No answer,21,0.867,,,
,,,,,,,,,,,,,,,,,,,,,,,,,,,,,,,R_31BwcmFMmY8Wg3q,1,2024-05-03_17h33.09.978,interaction task,2021.2.3,MacIntel,30.3030303,120315,,,,,,,,,,,,,,,,,Greater,Smaller,,-0.286111111,-0.522222222,1,0,0,LeftButton,"[""LeftButton""]",,,,,,,,,,,,99.80359147,3.608,space,0,5.971,0,20,20,20,1,3,only_sub_wrong.png,3,RandomDot20.png,No answer,19,,,,1.167
,,,,,,,,,,,,,,,,,,,,,,,,,,,,,,,R_31BwcmFMmY8Wg3q,1,2024-05-03_17h33.09.978,interaction task,2021.2.3,MacIntel,30.3030303,120315,,,,,,,,,,,,,,,,,Greater,Smaller,,-0.291666667,-0.484444444,1,0,0,LeftButton,"[""LeftButton""]",,,,4.986111111,4.316,space,,,,,,,,,,,0,21,21,21,1,3,only_sub_wrong.png,1,RandomDot1.png,No answer,19,,0.537,,
,,,,,,,,,,,,,,,,,,,,,,,,,,,,,,,R_31BwcmFMmY8Wg3q,1,2024-05-03_17h33.09.978,interaction task,2021.2.3,MacIntel,30.3030303,120315,,,,,,,,,,,,,,,,,Smaller,Greater,,0.351388889,-0.484444444,1,0,0,RightButton,"[""RightButton""]",,,,,,,,,,,,100,3.443,space,0.336700337,4.747,0,22,22,22,1,2,only_sub_right.png,3,RandomDot8.png,No answer,19,,,,0.514
,,,,,,,,,,,,,,,,,,,,,,,,,,,,,,,R_31BwcmFMmY8Wg3q,1,2024-05-03_17h33.09.978,interaction task,2021.2.3,MacIntel,30.3030303,120315,,,,,,,,,,,,,,,,,Greater,Smaller,,-0.322222222,-0.524444444,1,0,0,LeftButton,"[""LeftButton""]",,,,,,,,,,,,99.94388328,2.647,space,0.19640853,4.246,0,23,23,23,1,1,both_wrong.png,3,RandomDot6.png,No answer,21,,,,0.434
,,,,,,,,,,,,,,,,,,,,,,,,,,,,,,,R_31BwcmFMmY8Wg3q,1,2024-05-03_17h33.09.978,interaction task,2021.2.3,MacIntel,30.3030303,120315,,,,,,,,,,,,,,,,,Smaller,Greater,,0.330555556,-0.491111111,1,0,0,RightButton,"[""RightButton""]",0,2.157,space,,,,,,,,,,,,,,0,24,24,24,1,2,only_sub_right.png,0,RandomDot17.png,No answer,20,,,0.65,
,,,,,,,,,,,,,,,,,,,,,,,,,,,,,,,R_31BwcmFMmY8Wg3q,1,2024-05-03_17h33.09.978,interaction task,2021.2.3,MacIntel,30.3030303,120315,,,,,,,,,,,,,,,,,Smaller,Greater,,0.280555556,-0.504444444,1,0,0,RightButton,"[""RightButton""]",,,,,,,,,,,,100,5.31,space,0,7.542,0,25,25,25,1,3,only_sub_wrong.png,3,RandomDot7.png,No answer,19,,,,1.034
,,,,,,,,,,,,,,,,,,,,,,,,,,,,,,,R_31BwcmFMmY8Wg3q,1,2024-05-03_17h33.09.978,interaction task,2021.2.3,MacIntel,30.3030303,120315,,,,,,,,,,,,,,,,,Greater,Smaller,,0.384722222,-0.493333333,1,0,0,RightButton,"[""RightButton""]",,,,,,,,,,,,100,4.611,space,0.056116723,5.914,0,26,26,26,1,2,only_sub_right.png,3,RandomDot26.png,No answer,20,,,,0.5
,,,,,,,,,,,,,,,,,,,,,,,,,,,,,,,R_31BwcmFMmY8Wg3q,1,2024-05-03_17h33.09.978,interaction task,2021.2.3,MacIntel,30.3030303,120315,,,,,,,,,,,,,,,,,Smaller,Greater,,-0.305555556,-0.495555556,1,0,0,LeftButton,"[""LeftButton""]",,,,,,,5,3.551,space,0,6.45,,,,,,0,27,27,27,1,3,only_sub_wrong.png,2,RandomDot15.png,No answer,20,0.271,,,
,,,,,,,,,,,,,,,,,,,,,,,,,,,,,,,R_31BwcmFMmY8Wg3q,1,2024-05-03_17h33.09.978,interaction task,2021.2.3,MacIntel,30.3030303,120315,,,,,,,,,,,,,,,,,Greater,Smaller,,-0.222222222,-0.497777778,1,0,0,LeftButton,"[""LeftButton""]",1,7.622,space,,,,,,,,,,,,,,0,28,28,28,1,3,only_sub_wrong.png,0,RandomDot5.png,No answer,20,,,4.325,
,,,,,,,,,,,,,,,,,,,,,,,,,,,,,,,R_31BwcmFMmY8Wg3q,1,2024-05-03_17h33.09.978,interaction task,2021.2.3,MacIntel,30.3030303,120315,,,,,,,,,,,,,,,,,Greater,Smaller,,-0.293055556,-0.48,1,0,0,LeftButton,"[""LeftButton""]",,,,,,,,,,,,100,2.396,space,0.336700337,3.963,0,29,29,29,1,1,both_wrong.png,3,RandomDot6.png,No answer,20,,,,0.611
,,,,,,,,,,,,,,,,,,,,,,,,,,,,,,,R_31BwcmFMmY8Wg3q,1,2024-05-03_17h33.09.978,interaction task,2021.2.3,MacIntel,30.3030303,120315,,,,,,,,,,,,,,,,,Greater,Smaller,,-0.297222222,-0.482222222,1,0,0,LeftButton,"[""LeftButton""]",,,,4.951388889,3.552,space,,,,,,,,,,,0,30,30,30,1,1,both_wrong.png,1,RandomDot13.png,No answer,19,,0.722,,
,,,,,,,,,,,,,,,,,,,,,,,,,,,,,,,R_31BwcmFMmY8Wg3q,1,2024-05-03_17h33.09.978,interaction task,2021.2.3,MacIntel,30.3030303,120315,,,,,,,,,,,,,,,,,Greater,Smaller,,0.2625,-0.497777778,1,0,0,RightButton,"[""RightButton""]",0,4.951,space,,,,,,,,,,,,,,0,31,31,31,1,2,only_sub_right.png,0,RandomDot26.png,No answer,19,,,0.383,
,,,,,,,,,,,,,,,,,,,,,,,,,,,,,,,R_31BwcmFMmY8Wg3q,1,2024-05-03_17h33.09.978,interaction task,2021.2.3,MacIntel,30.3030303,120315,,,,,,,,,,,,,,,,,Greater,Smaller,,-0.322222222,-0.488888889,1,0,0,LeftButton,"[""LeftButton""]",,,,,,,,,,,,,,,,,0,32,32,32,1,4,both_right.png,10,RandomDot41.png,LeftButton,5,,,,
,,,,,,,,,,,,,,,,,,,,,,,,,,,,,,,R_31BwcmFMmY8Wg3q,1,2024-05-03_17h33.09.978,interaction task,2021.2.3,MacIntel,30.3030303,120315,,,,,,,,,,,,,,,,,Greater,Smaller,,0.244444444,-0.471111111,1,0,0,RightButton,"[""RightButton""]",,,,2.986111111,6.119,space,,,,,,,,,,,0,33,33,33,1,2,only_sub_right.png,1,RandomDot4.png,No answer,19,,1.876,,
,,,,,,,,,,,,,,,,,,,,,,,,,,,,,,,R_31BwcmFMmY8Wg3q,1,2024-05-03_17h33.09.978,interaction task,2021.2.3,MacIntel,30.3030303,120315,,,,,,,,,,,,,,,,,Smaller,Greater,,-0.391666667,-0.517777778,1,0,0,LeftButton,"[""LeftButton""]",4,2.942,space,,,,,,,,,,,,,,0,34,34,34,1,3,only_sub_wrong.png,0,RandomDot25.png,No answer,21,,,0.742,
,,,,,,,,,,,,,,,,,,,,,,,,,,,,,,,R_31BwcmFMmY8Wg3q,1,2024-05-03_17h33.09.978,interaction task,2021.2.3,MacIntel,30.3030303,120315,,,,,,,,,,,,,,,,,Smaller,Greater,,-0.338888889,-0.495555556,1,0,0,LeftButton,"[""LeftButton""]",,,,,,,0,2.582,space,0,4.704,,,,,,0,35,35,35,1,1,both_wrong.png,2,RandomDot8.png,No answer,20,0.482,,,
,,,,,,,,,,,,,,,,,,,,,,,,,,,,,,,R_31BwcmFMmY8Wg3q,1,2024-05-03_17h33.09.978,interaction task,2021.2.3,MacIntel,30.3030303,120315,,,,,,,,,,,,,,,,,Smaller,Greater,,-0.259722222,-0.515555556,1,0,0,LeftButton,"[""LeftButton""]",,,,,,,,,,,,,,,,,0,36,36,36,1,5,both_right.png,10,RandomDot42.png,LeftButton,19,,,,
,,,,,,,,,,,,,,,,,,,,,,,,,,,,,,,R_31BwcmFMmY8Wg3q,1,2024-05-03_17h33.09.978,interaction task,2021.2.3,MacIntel,30.3030303,120315,,,,,,,,,,,,,,,,,Smaller,Greater,,0.270833333,-0.491111111,1,0,0,RightButton,"[""RightButton""]",,,,,,,3,3.848,space,0,5.781,,,,,,0,37,37,37,1,3,only_sub_wrong.png,2,RandomDot31.png,No answer,19,0.445,,,
,,,,,,,,,,,,,,,,,,,,,,,,,,,,,,,R_31BwcmFMmY8Wg3q,1,2024-05-03_17h33.09.978,interaction task,2021.2.3,MacIntel,30.3030303,120315,,,,,,,,,,,,,,,,,Smaller,Greater,,0.268055556,-0.524444444,1,0,0,RightButton,"[""RightButton""]",,,,2.993055556,3.651,space,,,,,,,,,,,0,38,38,38,1,3,only_sub_wrong.png,1,RandomDot6.png,No answer,20,,0.44,,
,,,,,,,,,,,,,,,,,,,,,,,,,,,,,,,R_31BwcmFMmY8Wg3q,1,2024-05-03_17h33.09.978,interaction task,2021.2.3,MacIntel,30.3030303,120315,,,,,,,,,,,,,,,,,Greater,Smaller,,-0.295833333,-0.493333333,1,0,0,LeftButton,"[""LeftButton""]",,,,,,,,,,,,100,2.899,space,0,4.545,0,39,39,39,1,2,only_sub_right.png,3,RandomDot10.png,No answer,19,,,,0.467
,,,,,,,,,,,,,,,,,,,,,,,,,,,,,,,R_31BwcmFMmY8Wg3q,1,2024-05-03_17h33.09.978,interaction task,2021.2.3,MacIntel,30.3030303,120315,,,,,,,,,,,,,,,,,Smaller,Greater,,0.256944444,-0.464444444,1,0,0,RightButton,"[""RightButton""]",1,2.487,space,,,,,,,,,,,,,,0,40,40,40,1,3,only_sub_wrong.png,0,RandomDot2.png,No answer,20,,,0.801,
,,,,,,,,,,,,,,,,,,,,,,,,,,,,,,,R_31BwcmFMmY8Wg3q,1,2024-05-03_17h33.09.978,interaction task,2021.2.3,MacIntel,30.3030303,120315,,,,,,,,,,,,,,,,,Greater,Smaller,,0.268055556,-0.497777778,1,0,0,RightButton,"[""RightButton""]",0,2.31,space,,,,,,,,,,,,,,0,41,41,41,1,2,only_sub_right.png,0,RandomDot21.png,No answer,19,,,0.407,
