choose_trial,key_resp.keys,key_resp.rt,key_resp_4.keys,key_resp_4.rt,session_trait,slider_face_judge.response,slider_face_judge.rt,key_resp_3.keys,key_resp_3.rt,face_loop.thisRepN,face_loop.thisTrialN,face_loop.thisN,face_loop.thisIndex,face_loop.ran,face_serial,image_name,isCheck,answer,check_question,participant,session,date,expName,psychopyVersion,OS,frameRate,SONAid,session.thisRepN,session.thisTrialN,session.thisN,session.thisIndex,session.ran,session_serial,slider_judge_img
"[0,1,2,3,4,5,6,7,8,9,10,11,12,13,14,15,16,17,18,19,20,21,22,23,24,25,26,27,28,29,30,31,32,33,34,35,36,37,38,39,40,41,42,43,44,45,46,47,48,49,52,54,53]",space,6.384,space,18.409,friendly,3.973913043,2.955,space,5.47,0,0,0,24,1,25,image/25.jpg,0,0,,R_10kpEEzjRy8xPwe,2,2024-05-22_11h07.19.222,face trait task,2021.2.3,MacIntel,58.82352941,120226,,,,,,,
,,,,,,3.295652174,6.634,space,0.868,0,1,1,5,1,6,image/6.jpg,0,0,,R_10kpEEzjRy8xPwe,2,2024-05-22_11h07.19.222,face trait task,2021.2.3,MacIntel,58.82352941,120226,,,,,,,
,,,,,,4.958695652,3.258,space,0.705,0,2,2,1,1,2,image/2.jpg,0,0,,R_10kpEEzjRy8xPwe,2,2024-05-22_11h07.19.222,face trait task,2021.2.3,MacIntel,58.82352941,120226,,,,,,,
,,,,,,5.343478261,2.311,space,0.633,0,3,3,37,1,38,image/38.jpg,0,0,,R_10kpEEzjRy8xPwe,2,2024-05-22_11h07.19.222,face trait task,2021.2.3,MacIntel,58.82352941,120226,,,,,,,
,,,,,,2.636956522,2.226,space,0.454,0,4,4,28,1,29,image/29.jpg,0,0,,R_10kpEEzjRy8xPwe,2,2024-05-22_11h07.19.222,face trait task,2021.2.3,MacIntel,58.82352941,120226,,,,,,,
,,,,,,6.223913043,2.28,space,0.49,0,5,5,43,1,44,image/44.jpg,0,0,,R_10kpEEzjRy8xPwe,2,2024-05-22_11h07.19.222,face trait task,2021.2.3,MacIntel,58.82352941,120226,,,,,,,
,,,,,,5.036956522,2.125,space,0.383,0,6,6,32,1,33,image/33.jpg,0,0,,R_10kpEEzjRy8xPwe,2,2024-05-22_11h07.19.222,face trait task,2021.2.3,MacIntel,58.82352941,120226,,,,,,,
,,,,,,4.554347826,2.892,space,0.234,0,7,7,46,1,47,image/47.jpg,0,0,,R_10kpEEzjRy8xPwe,2,2024-05-22_11h07.19.222,face trait task,2021.2.3,MacIntel,58.82352941,120226,,,,,,,
,,,,,,5.786956522,2.309,space,0.517,0,8,8,3,1,4,image/4.jpg,0,0,,R_10kpEEzjRy8xPwe,2,2024-05-22_11h07.19.222,face trait task,2021.2.3,MacIntel,58.82352941,120226,,,,,,,
,,,,,,3.263043478,2.502,space,0.293,0,9,9,9,1,10,image/10.jpg,0,0,,R_10kpEEzjRy8xPwe,2,2024-05-22_11h07.19.222,face trait task,2021.2.3,MacIntel,58.82352941,120226,,,,,,,
,,,,,,6.165217391,2.646,space,0.361,0,10,10,20,1,21,image/21.jpg,0,0,,R_10kpEEzjRy8xPwe,2,2024-05-22_11h07.19.222,face trait task,2021.2.3,MacIntel,58.82352941,120226,,,,,,,
,,,,,,5.219565217,5.795,space,0.234,0,11,11,41,1,42,image/42.jpg,0,0,,R_10kpEEzjRy8xPwe,2,2024-05-22_11h07.19.222,face trait task,2021.2.3,MacIntel,58.82352941,120226,,,,,,,
,,,,,,3.863043478,2.07,space,0.677,0,12,12,47,1,48,image/48.jpg,0,0,,R_10kpEEzjRy8xPwe,2,2024-05-22_11h07.19.222,face trait task,2021.2.3,MacIntel,58.82352941,120226,,,,,,,
,,,,,,3.445652174,1.72,space,0.635,0,13,13,38,1,39,image/39.jpg,0,0,,R_10kpEEzjRy8xPwe,2,2024-05-22_11h07.19.222,face trait task,2021.2.3,MacIntel,58.82352941,120226,,,,,,,
,,,,,,2.186956522,2.243,space,0.259,0,14,14,16,1,17,image/17.jpg,0,0,,R_10kpEEzjRy8xPwe,2,2024-05-22_11h07.19.222,face trait task,2021.2.3,MacIntel,58.82352941,120226,,,,,,,
,,,,,,1,4.851,space,1.316,0,15,15,50,1,53,image/fill_img.png,1,1,Please move the slider all the way to the LEFT to show that you are paying attention.,R_10kpEEzjRy8xPwe,2,2024-05-22_11h07.19.222,face trait task,2021.2.3,MacIntel,58.82352941,120226,,,,,,,
,,,,,,5.402173913,4.674,space,0.317,0,16,16,31,1,32,image/32.jpg,0,0,,R_10kpEEzjRy8xPwe,2,2024-05-22_11h07.19.222,face trait task,2021.2.3,MacIntel,58.82352941,120226,,,,,,,
,,,,,,6.739130435,2.478,space,0.339,0,17,17,4,1,5,image/5.jpg,0,0,,R_10kpEEzjRy8xPwe,2,2024-05-22_11h07.19.222,face trait task,2021.2.3,MacIntel,58.82352941,120226,,,,,,,
,,,,,,3.002173913,3.387,space,0.255,0,18,18,44,1,45,image/45.jpg,0,0,,R_10kpEEzjRy8xPwe,2,2024-05-22_11h07.19.222,face trait task,2021.2.3,MacIntel,58.82352941,120226,,,,,,,
,,,,,,6.015217391,2.62,space,0.421,0,19,19,48,1,49,image/49.jpg,0,0,,R_10kpEEzjRy8xPwe,2,2024-05-22_11h07.19.222,face trait task,2021.2.3,MacIntel,58.82352941,120226,,,,,,,
,,,,,,4.019565217,5.153,space,0.476,0,20,20,0,1,1,image/1.jpg,0,0,,R_10kpEEzjRy8xPwe,2,2024-05-22_11h07.19.222,face trait task,2021.2.3,MacIntel,58.82352941,120226,,,,,,,
,,,,,,4.019565217,1.323,space,0.287,0,21,21,42,1,43,image/43.jpg,0,0,,R_10kpEEzjRy8xPwe,2,2024-05-22_11h07.19.222,face trait task,2021.2.3,MacIntel,58.82352941,120226,,,,,,,
,,,,,,3.002173913,2.503,space,0.174,0,22,22,8,1,9,image/9.jpg,0,0,,R_10kpEEzjRy8xPwe,2,2024-05-22_11h07.19.222,face trait task,2021.2.3,MacIntel,58.82352941,120226,,,,,,,
,,,,,,1.97826087,3.82,space,0.459,0,23,23,7,1,8,image/8.jpg,0,0,,R_10kpEEzjRy8xPwe,2,2024-05-22_11h07.19.222,face trait task,2021.2.3,MacIntel,58.82352941,120226,,,,,,,
,,,,,,5.982608696,2.559,space,1.52,0,24,24,17,1,18,image/18.jpg,0,0,,R_10kpEEzjRy8xPwe,2,2024-05-22_11h07.19.222,face trait task,2021.2.3,MacIntel,58.82352941,120226,,,,,,,
,,,,,,4.991304348,3.603,space,0.352,0,25,25,27,1,28,image/28.jpg,0,0,,R_10kpEEzjRy8xPwe,2,2024-05-22_11h07.19.222,face trait task,2021.2.3,MacIntel,58.82352941,120226,,,,,,,
,,,,,,4.97826087,2.202,space,0.568,0,26,26,6,1,7,image/7.jpg,0,0,,R_10kpEEzjRy8xPwe,2,2024-05-22_11h07.19.222,face trait task,2021.2.3,MacIntel,58.82352941,120226,,,,,,,
,,,,,,4.006521739,2.437,space,0.501,0,27,27,23,1,24,image/24.jpg,0,0,,R_10kpEEzjRy8xPwe,2,2024-05-22_11h07.19.222,face trait task,2021.2.3,MacIntel,58.82352941,120226,,,,,,,
,,,,,,5.982608696,3.111,space,0.351,0,28,28,36,1,37,image/37.jpg,0,0,,R_10kpEEzjRy8xPwe,2,2024-05-22_11h07.19.222,face trait task,2021.2.3,MacIntel,58.82352941,120226,,,,,,,
,,,,,,4.984782609,6.852,space,2.484,0,29,29,2,1,3,image/3.jpg,0,0,,R_10kpEEzjRy8xPwe,2,2024-05-22_11h07.19.222,face trait task,2021.2.3,MacIntel,58.82352941,120226,,,,,,,
,,,,,,3.008695652,4.378,space,0.533,0,30,30,12,1,13,image/13.jpg,0,0,,R_10kpEEzjRy8xPwe,2,2024-05-22_11h07.19.222,face trait task,2021.2.3,MacIntel,58.82352941,120226,,,,,,,
,,,,,,6.993478261,3.436,space,0.584,0,31,31,11,1,12,image/12.jpg,0,0,,R_10kpEEzjRy8xPwe,2,2024-05-22_11h07.19.222,face trait task,2021.2.3,MacIntel,58.82352941,120226,,,,,,,
,,,,,,3.008695652,2.879,space,0.571,0,32,32,15,1,16,image/16.jpg,0,0,,R_10kpEEzjRy8xPwe,2,2024-05-22_11h07.19.222,face trait task,2021.2.3,MacIntel,58.82352941,120226,,,,,,,
,,,,,,1.006521739,4.578,space,1.443,0,33,33,52,1,54,image/fill_img.png,1,1,Please move the slider all the way to the LEFT to show that you are paying attention.,R_10kpEEzjRy8xPwe,2,2024-05-22_11h07.19.222,face trait task,2021.2.3,MacIntel,58.82352941,120226,,,,,,,
,,,,,,3.002173913,3.356,space,0.71,0,34,34,45,1,46,image/46.jpg,0,0,,R_10kpEEzjRy8xPwe,2,2024-05-22_11h07.19.222,face trait task,2021.2.3,MacIntel,58.82352941,120226,,,,,,,
,,,,,,4.026086957,3.223,space,0.834,0,35,35,40,1,41,image/41.jpg,0,0,,R_10kpEEzjRy8xPwe,2,2024-05-22_11h07.19.222,face trait task,2021.2.3,MacIntel,58.82352941,120226,,,,,,,
,,,,,,2.010869565,4.162,space,0.352,0,36,36,34,1,35,image/35.jpg,0,0,,R_10kpEEzjRy8xPwe,2,2024-05-22_11h07.19.222,face trait task,2021.2.3,MacIntel,58.82352941,120226,,,,,,,
,,,,,,4.997826087,3.24,space,0.867,0,37,37,14,1,15,image/15.jpg,0,0,,R_10kpEEzjRy8xPwe,2,2024-05-22_11h07.19.222,face trait task,2021.2.3,MacIntel,58.82352941,120226,,,,,,,
,,,,,,6.002173913,2.353,space,0.768,0,38,38,49,1,50,image/50.jpg,0,0,,R_10kpEEzjRy8xPwe,2,2024-05-22_11h07.19.222,face trait task,2021.2.3,MacIntel,58.82352941,120226,,,,,,,
,,,,,,4,2.553,space,0.451,0,39,39,18,1,19,image/19.jpg,0,0,,R_10kpEEzjRy8xPwe,2,2024-05-22_11h07.19.222,face trait task,2021.2.3,MacIntel,58.82352941,120226,,,,,,,
,,,,,,5.982608696,16.395,space,0.683,0,40,40,35,1,36,image/36.jpg,0,0,,R_10kpEEzjRy8xPwe,2,2024-05-22_11h07.19.222,face trait task,2021.2.3,MacIntel,58.82352941,120226,,,,,,,
,,,,,,2.010869565,4.003,space,2.252,0,41,41,25,1,26,image/26.jpg,0,0,,R_10kpEEzjRy8xPwe,2,2024-05-22_11h07.19.222,face trait task,2021.2.3,MacIntel,58.82352941,120226,,,,,,,
,,,,,,2.995652174,11.002,space,0.303,0,42,42,29,1,30,image/30.jpg,0,0,,R_10kpEEzjRy8xPwe,2,2024-05-22_11h07.19.222,face trait task,2021.2.3,MacIntel,58.82352941,120226,,,,,,,
,,,,,,5.036956522,2.009,space,0.475,0,43,43,33,1,34,image/34.jpg,0,0,,R_10kpEEzjRy8xPwe,2,2024-05-22_11h07.19.222,face trait task,2021.2.3,MacIntel,58.82352941,120226,,,,,,,
,,,,,,4.006521739,3.362,space,0.317,0,44,44,13,1,14,image/14.jpg,0,0,,R_10kpEEzjRy8xPwe,2,2024-05-22_11h07.19.222,face trait task,2021.2.3,MacIntel,58.82352941,120226,,,,,,,
,,,,,,3.060869565,2.113,space,0.353,0,45,45,39,1,40,image/40.jpg,0,0,,R_10kpEEzjRy8xPwe,2,2024-05-22_11h07.19.222,face trait task,2021.2.3,MacIntel,58.82352941,120226,,,,,,,
,,,,,,4.013043478,2.942,space,0.368,0,46,46,26,1,27,image/27.jpg,0,0,,R_10kpEEzjRy8xPwe,2,2024-05-22_11h07.19.222,face trait task,2021.2.3,MacIntel,58.82352941,120226,,,,,,,
,,,,,,2.017391304,2.436,space,0.24,0,47,47,19,1,20,image/20.jpg,0,0,,R_10kpEEzjRy8xPwe,2,2024-05-22_11h07.19.222,face trait task,2021.2.3,MacIntel,58.82352941,120226,,,,,,,
,,,,,,1.997826087,1.675,space,1.274,0,48,48,21,1,22,image/22.jpg,0,0,,R_10kpEEzjRy8xPwe,2,2024-05-22_11h07.19.222,face trait task,2021.2.3,MacIntel,58.82352941,120226,,,,,,,
,,,,,,1.443478261,2.347,space,0.434,0,49,49,30,1,31,image/31.jpg,0,0,,R_10kpEEzjRy8xPwe,2,2024-05-22_11h07.19.222,face trait task,2021.2.3,MacIntel,58.82352941,120226,,,,,,,
,,,,,,2.363043478,1.938,space,0.456,0,50,50,10,1,11,image/11.jpg,0,0,,R_10kpEEzjRy8xPwe,2,2024-05-22_11h07.19.222,face trait task,2021.2.3,MacIntel,58.82352941,120226,,,,,,,
,,,,,,5.989130435,2.287,space,0.451,0,51,51,22,1,23,image/23.jpg,0,0,,R_10kpEEzjRy8xPwe,2,2024-05-22_11h07.19.222,face trait task,2021.2.3,MacIntel,58.82352941,120226,,,,,,,
,,,,,,1.006521739,2.946,space,0.842,0,52,52,51,1,55,image/fill_img.png,1,1,Please move the slider all the way to the LEFT to show that you are paying attention.,R_10kpEEzjRy8xPwe,2,2024-05-22_11h07.19.222,face trait task,2021.2.3,MacIntel,58.82352941,120226,,,,,,,
,,,,,,,,,,,,,,,,,,,,R_10kpEEzjRy8xPwe,2,2024-05-22_11h07.19.222,face trait task,2021.2.3,MacIntel,58.82352941,120226,0,0,0,3,1,3,friendly.png
,,,,,competent,5.004347826,5.493,space,0.755,0,0,0,0,1,1,image/1.jpg,0,0,,R_10kpEEzjRy8xPwe,2,2024-05-22_11h07.19.222,face trait task,2021.2.3,MacIntel,58.82352941,120226,,,,,,,
,,,,,,6.015217391,3.707,space,0.601,0,1,1,31,1,32,image/32.jpg,0,0,,R_10kpEEzjRy8xPwe,2,2024-05-22_11h07.19.222,face trait task,2021.2.3,MacIntel,58.82352941,120226,,,,,,,
,,,,,,3.008695652,2.459,space,0.225,0,2,2,42,1,43,image/43.jpg,0,0,,R_10kpEEzjRy8xPwe,2,2024-05-22_11h07.19.222,face trait task,2021.2.3,MacIntel,58.82352941,120226,,,,,,,
,,,,,,2.989130435,2.643,space,0.519,0,3,3,11,1,12,image/12.jpg,0,0,,R_10kpEEzjRy8xPwe,2,2024-05-22_11h07.19.222,face trait task,2021.2.3,MacIntel,58.82352941,120226,,,,,,,
,,,,,,6.002173913,2.446,space,0.39,0,4,4,20,1,21,image/21.jpg,0,0,,R_10kpEEzjRy8xPwe,2,2024-05-22_11h07.19.222,face trait task,2021.2.3,MacIntel,58.82352941,120226,,,,,,,
,,,,,,6.973913043,3.42,space,0.403,0,5,5,39,1,40,image/40.jpg,0,0,,R_10kpEEzjRy8xPwe,2,2024-05-22_11h07.19.222,face trait task,2021.2.3,MacIntel,58.82352941,120226,,,,,,,
,,,,,,5.010869565,1.903,space,0.385,0,6,6,16,1,17,image/17.jpg,0,0,,R_10kpEEzjRy8xPwe,2,2024-05-22_11h07.19.222,face trait task,2021.2.3,MacIntel,58.82352941,120226,,,,,,,
,,,,,,3.02826087,5.385,space,0.375,0,7,7,38,1,39,image/39.jpg,0,0,,R_10kpEEzjRy8xPwe,2,2024-05-22_11h07.19.222,face trait task,2021.2.3,MacIntel,58.82352941,120226,,,,,,,
,,,,,,6.986956522,2.586,space,0.573,0,8,8,27,1,28,image/28.jpg,0,0,,R_10kpEEzjRy8xPwe,2,2024-05-22_11h07.19.222,face trait task,2021.2.3,MacIntel,58.82352941,120226,,,,,,,
,,,,,,4.006521739,2.219,space,0.3,0,9,9,40,1,41,image/41.jpg,0,0,,R_10kpEEzjRy8xPwe,2,2024-05-22_11h07.19.222,face trait task,2021.2.3,MacIntel,58.82352941,120226,,,,,,,
,,,,,,1.006521739,4.554,space,0.786,0,10,10,50,1,53,image/fill_img.png,1,1,Please move the slider all the way to the LEFT to show that you are paying attention.,R_10kpEEzjRy8xPwe,2,2024-05-22_11h07.19.222,face trait task,2021.2.3,MacIntel,58.82352941,120226,,,,,,,
,,,,,,6.02173913,4.863,space,0.326,0,11,11,33,1,34,image/34.jpg,0,0,,R_10kpEEzjRy8xPwe,2,2024-05-22_11h07.19.222,face trait task,2021.2.3,MacIntel,58.82352941,120226,,,,,,,
,,,,,,4.984782609,3.622,space,0.301,0,12,12,14,1,15,image/15.jpg,0,0,,R_10kpEEzjRy8xPwe,2,2024-05-22_11h07.19.222,face trait task,2021.2.3,MacIntel,58.82352941,120226,,,,,,,
,,,,,,6.967391304,3.04,space,0.31,0,13,13,10,1,11,image/11.jpg,0,0,,R_10kpEEzjRy8xPwe,2,2024-05-22_11h07.19.222,face trait task,2021.2.3,MacIntel,58.82352941,120226,,,,,,,
,,,,,,5.023913043,2.02,space,0.351,0,14,14,23,1,24,image/24.jpg,0,0,,R_10kpEEzjRy8xPwe,2,2024-05-22_11h07.19.222,face trait task,2021.2.3,MacIntel,58.82352941,120226,,,,,,,
,,,,,,4.991304348,2.886,space,0.242,0,15,15,7,1,8,image/8.jpg,0,0,,R_10kpEEzjRy8xPwe,2,2024-05-22_11h07.19.222,face trait task,2021.2.3,MacIntel,58.82352941,120226,,,,,,,
,,,,,,4.991304348,0.853,space,0.373,0,16,16,32,1,33,image/33.jpg,0,0,,R_10kpEEzjRy8xPwe,2,2024-05-22_11h07.19.222,face trait task,2021.2.3,MacIntel,58.82352941,120226,,,,,,,
,,,,,,3.993478261,2.053,space,0.258,0,17,17,18,1,19,image/19.jpg,0,0,,R_10kpEEzjRy8xPwe,2,2024-05-22_11h07.19.222,face trait task,2021.2.3,MacIntel,58.82352941,120226,,,,,,,
,,,,,,2.989130435,1.808,space,0.21,0,18,18,28,1,29,image/29.jpg,0,0,,R_10kpEEzjRy8xPwe,2,2024-05-22_11h07.19.222,face trait task,2021.2.3,MacIntel,58.82352941,120226,,,,,,,
,,,,,,4.991304348,2.103,space,0.233,0,19,19,47,1,48,image/48.jpg,0,0,,R_10kpEEzjRy8xPwe,2,2024-05-22_11h07.19.222,face trait task,2021.2.3,MacIntel,58.82352941,120226,,,,,,,
,,,,,,6.02826087,2.041,space,0.503,0,20,20,8,1,9,image/9.jpg,0,0,,R_10kpEEzjRy8xPwe,2,2024-05-22_11h07.19.222,face trait task,2021.2.3,MacIntel,58.82352941,120226,,,,,,,
,,,,,,4.991304348,2.37,space,0.218,0,21,21,17,1,18,image/18.jpg,0,0,,R_10kpEEzjRy8xPwe,2,2024-05-22_11h07.19.222,face trait task,2021.2.3,MacIntel,58.82352941,120226,,,,,,,
,,,,,,4,2.286,space,0.401,0,22,22,22,1,23,image/23.jpg,0,0,,R_10kpEEzjRy8xPwe,2,2024-05-22_11h07.19.222,face trait task,2021.2.3,MacIntel,58.82352941,120226,,,,,,,
,,,,,,6.973913043,6.07,space,0.52,0,23,23,21,1,22,image/22.jpg,0,0,,R_10kpEEzjRy8xPwe,2,2024-05-22_11h07.19.222,face trait task,2021.2.3,MacIntel,58.82352941,120226,,,,,,,
,,,,,,4.417391304,2.46,space,0.241,0,24,24,13,1,14,image/14.jpg,0,0,,R_10kpEEzjRy8xPwe,2,2024-05-22_11h07.19.222,face trait task,2021.2.3,MacIntel,58.82352941,120226,,,,,,,
,,,,,,6.015217391,2.478,space,0.556,0,25,25,4,1,5,image/5.jpg,0,0,,R_10kpEEzjRy8xPwe,2,2024-05-22_11h07.19.222,face trait task,2021.2.3,MacIntel,58.82352941,120226,,,,,,,
,,,,,,5.969565217,3.487,space,0.483,0,26,26,45,1,46,image/46.jpg,0,0,,R_10kpEEzjRy8xPwe,2,2024-05-22_11h07.19.222,face trait task,2021.2.3,MacIntel,58.82352941,120226,,,,,,,
,,,,,,6.62173913,3.086,space,2.867,0,27,27,3,1,4,image/4.jpg,0,0,,R_10kpEEzjRy8xPwe,2,2024-05-22_11h07.19.222,face trait task,2021.2.3,MacIntel,58.82352941,120226,,,,,,,
,,,,,,5.936956522,1.979,space,0.334,0,28,28,44,1,45,image/45.jpg,0,0,,R_10kpEEzjRy8xPwe,2,2024-05-22_11h07.19.222,face trait task,2021.2.3,MacIntel,58.82352941,120226,,,,,,,
,,,,,,6.4,2.069,space,0.488,0,29,29,36,1,37,image/37.jpg,0,0,,R_10kpEEzjRy8xPwe,2,2024-05-22_11h07.19.222,face trait task,2021.2.3,MacIntel,58.82352941,120226,,,,,,,
,,,,,,4.404347826,1.98,space,0.358,0,30,30,41,1,42,image/42.jpg,0,0,,R_10kpEEzjRy8xPwe,2,2024-05-22_11h07.19.222,face trait task,2021.2.3,MacIntel,58.82352941,120226,,,,,,,
,,,,,,5.434782609,1.695,space,0.334,0,31,31,5,1,6,image/6.jpg,0,0,,R_10kpEEzjRy8xPwe,2,2024-05-22_11h07.19.222,face trait task,2021.2.3,MacIntel,58.82352941,120226,,,,,,,
,,,,,,6.008695652,1.535,space,0.301,0,32,32,25,1,26,image/26.jpg,0,0,,R_10kpEEzjRy8xPwe,2,2024-05-22_11h07.19.222,face trait task,2021.2.3,MacIntel,58.82352941,120226,,,,,,,
,,,,,,3.165217391,1.938,space,0.254,0,33,33,15,1,16,image/16.jpg,0,0,,R_10kpEEzjRy8xPwe,2,2024-05-22_11h07.19.222,face trait task,2021.2.3,MacIntel,58.82352941,120226,,,,,,,
,,,,,,5.689130435,1.652,space,0.289,0,34,34,49,1,50,image/50.jpg,0,0,,R_10kpEEzjRy8xPwe,2,2024-05-22_11h07.19.222,face trait task,2021.2.3,MacIntel,58.82352941,120226,,,,,,,
,,,,,,6.256521739,2.342,space,0.273,0,35,35,19,1,20,image/20.jpg,0,0,,R_10kpEEzjRy8xPwe,2,2024-05-22_11h07.19.222,face trait task,2021.2.3,MacIntel,58.82352941,120226,,,,,,,
,,,,,,5.395652174,1.985,space,0.234,0,36,36,34,1,35,image/35.jpg,0,0,,R_10kpEEzjRy8xPwe,2,2024-05-22_11h07.19.222,face trait task,2021.2.3,MacIntel,58.82352941,120226,,,,,,,
,,,,,,2.715217391,2.103,space,0.201,0,37,37,48,1,49,image/49.jpg,0,0,,R_10kpEEzjRy8xPwe,2,2024-05-22_11h07.19.222,face trait task,2021.2.3,MacIntel,58.82352941,120226,,,,,,,
,,,,,,4.704347826,30.603,space,0.424,0,38,38,46,1,47,image/47.jpg,0,0,,R_10kpEEzjRy8xPwe,2,2024-05-22_11h07.19.222,face trait task,2021.2.3,MacIntel,58.82352941,120226,,,,,,,
,,,,,,5.839130435,4.662,space,3.334,0,39,39,26,1,27,image/27.jpg,0,0,,R_10kpEEzjRy8xPwe,2,2024-05-22_11h07.19.222,face trait task,2021.2.3,MacIntel,58.82352941,120226,,,,,,,
,,,,,,6.008695652,2.662,space,0.374,0,40,40,43,1,44,image/44.jpg,0,0,,R_10kpEEzjRy8xPwe,2,2024-05-22_11h07.19.222,face trait task,2021.2.3,MacIntel,58.82352941,120226,,,,,,,
,,,,,,5.239130435,1.818,space,0.422,0,41,41,9,1,10,image/10.jpg,0,0,,R_10kpEEzjRy8xPwe,2,2024-05-22_11h07.19.222,face trait task,2021.2.3,MacIntel,58.82352941,120226,,,,,,,
,,,,,,5.27173913,1.926,space,0.317,0,42,42,2,1,3,image/3.jpg,0,0,,R_10kpEEzjRy8xPwe,2,2024-05-22_11h07.19.222,face trait task,2021.2.3,MacIntel,58.82352941,120226,,,,,,,
,,,,,,1.006521739,2.685,space,0.751,0,43,43,51,1,55,image/fill_img.png,1,1,Please move the slider all the way to the LEFT to show that you are paying attention.,R_10kpEEzjRy8xPwe,2,2024-05-22_11h07.19.222,face trait task,2021.2.3,MacIntel,58.82352941,120226,,,,,,,
,,,,,,5.343478261,1.876,space,0.343,0,44,44,24,1,25,image/25.jpg,0,0,,R_10kpEEzjRy8xPwe,2,2024-05-22_11h07.19.222,face trait task,2021.2.3,MacIntel,58.82352941,120226,,,,,,,
,,,,,,3.908695652,2.737,space,0.183,0,45,45,30,1,31,image/31.jpg,0,0,,R_10kpEEzjRy8xPwe,2,2024-05-22_11h07.19.222,face trait task,2021.2.3,MacIntel,58.82352941,120226,,,,,,,
,,,,,,4.626086957,1.638,space,0.251,0,46,46,1,1,2,image/2.jpg,0,0,,R_10kpEEzjRy8xPwe,2,2024-05-22_11h07.19.222,face trait task,2021.2.3,MacIntel,58.82352941,120226,,,,,,,
,,,,,,1.019565217,2.335,space,0.655,0,47,47,52,1,54,image/fill_img.png,1,1,Please move the slider all the way to the LEFT to show that you are paying attention.,R_10kpEEzjRy8xPwe,2,2024-05-22_11h07.19.222,face trait task,2021.2.3,MacIntel,58.82352941,120226,,,,,,,
,,,,,,4.397826087,3.109,space,0.367,0,48,48,37,1,38,image/38.jpg,0,0,,R_10kpEEzjRy8xPwe,2,2024-05-22_11h07.19.222,face trait task,2021.2.3,MacIntel,58.82352941,120226,,,,,,,
,,,,,,5.076086957,1.97,space,0.304,0,49,49,6,1,7,image/7.jpg,0,0,,R_10kpEEzjRy8xPwe,2,2024-05-22_11h07.19.222,face trait task,2021.2.3,MacIntel,58.82352941,120226,,,,,,,
,,,,,,5.310869565,2.241,space,0.317,0,50,50,29,1,30,image/30.jpg,0,0,,R_10kpEEzjRy8xPwe,2,2024-05-22_11h07.19.222,face trait task,2021.2.3,MacIntel,58.82352941,120226,,,,,,,
,,,,,,5.695652174,12.319,space,1.305,0,51,51,12,1,13,image/13.jpg,0,0,,R_10kpEEzjRy8xPwe,2,2024-05-22_11h07.19.222,face trait task,2021.2.3,MacIntel,58.82352941,120226,,,,,,,
,,,,,,5.689130435,1.786,space,0.89,0,52,52,35,1,36,image/36.jpg,0,0,,R_10kpEEzjRy8xPwe,2,2024-05-22_11h07.19.222,face trait task,2021.2.3,MacIntel,58.82352941,120226,,,,,,,
,,,,,,,,,,,,,,,,,,,,R_10kpEEzjRy8xPwe,2,2024-05-22_11h07.19.222,face trait task,2021.2.3,MacIntel,58.82352941,120226,0,1,1,1,1,1,competent.png
,,,,,trustworthy,5.232608696,3.355,space,0.262,0,0,0,2,1,3,image/3.jpg,0,0,,R_10kpEEzjRy8xPwe,2,2024-05-22_11h07.19.222,face trait task,2021.2.3,MacIntel,58.82352941,120226,,,,,,,
,,,,,,2.597826087,2.111,space,0.586,0,1,1,39,1,40,image/40.jpg,0,0,,R_10kpEEzjRy8xPwe,2,2024-05-22_11h07.19.222,face trait task,2021.2.3,MacIntel,58.82352941,120226,,,,,,,
,,,,,,5.180434783,1.756,space,0.218,0,2,2,32,1,33,image/33.jpg,0,0,,R_10kpEEzjRy8xPwe,2,2024-05-22_11h07.19.222,face trait task,2021.2.3,MacIntel,58.82352941,120226,,,,,,,
,,,,,,4.358695652,1.988,space,0.233,0,3,3,7,1,8,image/8.jpg,0,0,,R_10kpEEzjRy8xPwe,2,2024-05-22_11h07.19.222,face trait task,2021.2.3,MacIntel,58.82352941,120226,,,,,,,
,,,,,,2.336956522,1.972,space,0.336,0,4,4,15,1,16,image/16.jpg,0,0,,R_10kpEEzjRy8xPwe,2,2024-05-22_11h07.19.222,face trait task,2021.2.3,MacIntel,58.82352941,120226,,,,,,,
,,,,,,1.82173913,2.403,space,0.476,0,5,5,45,1,46,image/46.jpg,0,0,,R_10kpEEzjRy8xPwe,2,2024-05-22_11h07.19.222,face trait task,2021.2.3,MacIntel,58.82352941,120226,,,,,,,
,,,,,,2.610869565,24.028,space,0.32,0,6,6,19,1,20,image/20.jpg,0,0,,R_10kpEEzjRy8xPwe,2,2024-05-22_11h07.19.222,face trait task,2021.2.3,MacIntel,58.82352941,120226,,,,,,,
,,,,,,5.57826087,3.637,space,0.354,0,7,7,22,1,23,image/23.jpg,0,0,,R_10kpEEzjRy8xPwe,2,2024-05-22_11h07.19.222,face trait task,2021.2.3,MacIntel,58.82352941,120226,,,,,,,
,,,,,,3.967391304,1.852,space,0.425,0,8,8,16,1,17,image/17.jpg,0,0,,R_10kpEEzjRy8xPwe,2,2024-05-22_11h07.19.222,face trait task,2021.2.3,MacIntel,58.82352941,120226,,,,,,,
,,,,,,4.313043478,2.757,space,0.42,0,9,9,48,1,49,image/49.jpg,0,0,,R_10kpEEzjRy8xPwe,2,2024-05-22_11h07.19.222,face trait task,2021.2.3,MacIntel,58.82352941,120226,,,,,,,
,,,,,,5.343478261,1.791,space,0.201,0,10,10,3,1,4,image/4.jpg,0,0,,R_10kpEEzjRy8xPwe,2,2024-05-22_11h07.19.222,face trait task,2021.2.3,MacIntel,58.82352941,120226,,,,,,,
,,,,,,3.908695652,1.886,space,0.267,0,11,11,29,1,30,image/30.jpg,0,0,,R_10kpEEzjRy8xPwe,2,2024-05-22_11h07.19.222,face trait task,2021.2.3,MacIntel,58.82352941,120226,,,,,,,
,,,,,,6.002173913,2.736,space,0.254,0,12,12,20,1,21,image/21.jpg,0,0,,R_10kpEEzjRy8xPwe,2,2024-05-22_11h07.19.222,face trait task,2021.2.3,MacIntel,58.82352941,120226,,,,,,,
,,,,,,1.97173913,2.503,space,0.274,0,13,13,40,1,41,image/41.jpg,0,0,,R_10kpEEzjRy8xPwe,2,2024-05-22_11h07.19.222,face trait task,2021.2.3,MacIntel,58.82352941,120226,,,,,,,
,,,,,,2.623913043,1.785,space,0.44,0,14,14,30,1,31,image/31.jpg,0,0,,R_10kpEEzjRy8xPwe,2,2024-05-22_11h07.19.222,face trait task,2021.2.3,MacIntel,58.82352941,120226,,,,,,,
,,,,,,5.134782609,1.705,space,0.326,0,15,15,1,1,2,image/2.jpg,0,0,,R_10kpEEzjRy8xPwe,2,2024-05-22_11h07.19.222,face trait task,2021.2.3,MacIntel,58.82352941,120226,,,,,,,
,,,,,,5.884782609,1.624,space,0.304,0,16,16,35,1,36,image/36.jpg,0,0,,R_10kpEEzjRy8xPwe,2,2024-05-22_11h07.19.222,face trait task,2021.2.3,MacIntel,58.82352941,120226,,,,,,,
,,,,,,6.32826087,2.668,space,0.251,0,17,17,33,1,34,image/34.jpg,0,0,,R_10kpEEzjRy8xPwe,2,2024-05-22_11h07.19.222,face trait task,2021.2.3,MacIntel,58.82352941,120226,,,,,,,
,,,,,,3.034782609,4.228,space,0.262,0,18,18,26,1,27,image/27.jpg,0,0,,R_10kpEEzjRy8xPwe,2,2024-05-22_11h07.19.222,face trait task,2021.2.3,MacIntel,58.82352941,120226,,,,,,,
,,,,,,5.232608696,1.856,space,0.467,0,19,19,4,1,5,image/5.jpg,0,0,,R_10kpEEzjRy8xPwe,2,2024-05-22_11h07.19.222,face trait task,2021.2.3,MacIntel,58.82352941,120226,,,,,,,
,,,,,,2.943478261,1.752,space,0.288,0,20,20,37,1,38,image/38.jpg,0,0,,R_10kpEEzjRy8xPwe,2,2024-05-22_11h07.19.222,face trait task,2021.2.3,MacIntel,58.82352941,120226,,,,,,,
,,,,,,3.55,1.575,space,0.401,0,21,21,24,1,25,image/25.jpg,0,0,,R_10kpEEzjRy8xPwe,2,2024-05-22_11h07.19.222,face trait task,2021.2.3,MacIntel,58.82352941,120226,,,,,,,
,,,,,,2.376086957,2.052,space,0.294,0,22,22,44,1,45,image/45.jpg,0,0,,R_10kpEEzjRy8xPwe,2,2024-05-22_11h07.19.222,face trait task,2021.2.3,MacIntel,58.82352941,120226,,,,,,,
,,,,,,4.319565217,4.012,space,0.266,0,23,23,17,1,18,image/18.jpg,0,0,,R_10kpEEzjRy8xPwe,2,2024-05-22_11h07.19.222,face trait task,2021.2.3,MacIntel,58.82352941,120226,,,,,,,
,,,,,,4.326086957,1.997,space,0.794,0,24,24,0,1,1,image/1.jpg,0,0,,R_10kpEEzjRy8xPwe,2,2024-05-22_11h07.19.222,face trait task,2021.2.3,MacIntel,58.82352941,120226,,,,,,,
,,,,,,4.984782609,1.869,space,0.318,0,25,25,34,1,35,image/35.jpg,0,0,,R_10kpEEzjRy8xPwe,2,2024-05-22_11h07.19.222,face trait task,2021.2.3,MacIntel,58.82352941,120226,,,,,,,
,,,,,,1.619565217,3.003,space,0.272,0,26,26,8,1,9,image/9.jpg,0,0,,R_10kpEEzjRy8xPwe,2,2024-05-22_11h07.19.222,face trait task,2021.2.3,MacIntel,58.82352941,120226,,,,,,,
,,,,,,1,4.573,space,0.576,0,27,27,50,1,53,image/fill_img.png,1,1,Please move the slider all the way to the LEFT to show that you are paying attention.,R_10kpEEzjRy8xPwe,2,2024-05-22_11h07.19.222,face trait task,2021.2.3,MacIntel,58.82352941,120226,,,,,,,
,,,,,,2.167391304,1.952,space,0.371,0,28,28,28,1,29,image/29.jpg,0,0,,R_10kpEEzjRy8xPwe,2,2024-05-22_11h07.19.222,face trait task,2021.2.3,MacIntel,58.82352941,120226,,,,,,,
,,,,,,4.123913043,1.796,space,0.475,0,29,29,13,1,14,image/14.jpg,0,0,,R_10kpEEzjRy8xPwe,2,2024-05-22_11h07.19.222,face trait task,2021.2.3,MacIntel,58.82352941,120226,,,,,,,
,,,,,,3.223913043,2.419,space,0.303,0,30,30,36,1,37,image/37.jpg,0,0,,R_10kpEEzjRy8xPwe,2,2024-05-22_11h07.19.222,face trait task,2021.2.3,MacIntel,58.82352941,120226,,,,,,,
,,,,,,4.802173913,7.753,space,0.6,0,31,31,31,1,32,image/32.jpg,0,0,,R_10kpEEzjRy8xPwe,2,2024-05-22_11h07.19.222,face trait task,2021.2.3,MacIntel,58.82352941,120226,,,,,,,
,,,,,,4.789130435,15.455,space,0.525,0,32,32,11,1,12,image/12.jpg,0,0,,R_10kpEEzjRy8xPwe,2,2024-05-22_11h07.19.222,face trait task,2021.2.3,MacIntel,58.82352941,120226,,,,,,,
,,,,,,1.952173913,17.509,space,0.317,0,33,33,27,1,28,image/28.jpg,0,0,,R_10kpEEzjRy8xPwe,2,2024-05-22_11h07.19.222,face trait task,2021.2.3,MacIntel,58.82352941,120226,,,,,,,
,,,,,,5.043478261,1.896,space,0.501,0,34,34,14,1,15,image/15.jpg,0,0,,R_10kpEEzjRy8xPwe,2,2024-05-22_11h07.19.222,face trait task,2021.2.3,MacIntel,58.82352941,120226,,,,,,,
,,,,,,1.013043478,3.378,space,0.484,0,35,35,52,1,54,image/fill_img.png,1,1,Please move the slider all the way to the LEFT to show that you are paying attention.,R_10kpEEzjRy8xPwe,2,2024-05-22_11h07.19.222,face trait task,2021.2.3,MacIntel,58.82352941,120226,,,,,,,
,,,,,,2.023913043,1.519,space,0.384,0,36,36,46,1,47,image/47.jpg,0,0,,R_10kpEEzjRy8xPwe,2,2024-05-22_11h07.19.222,face trait task,2021.2.3,MacIntel,58.82352941,120226,,,,,,,
,,,,,,4.436956522,1.792,space,0.317,0,37,37,12,1,13,image/13.jpg,0,0,,R_10kpEEzjRy8xPwe,2,2024-05-22_11h07.19.222,face trait task,2021.2.3,MacIntel,58.82352941,120226,,,,,,,
,,,,,,2.87173913,3.129,space,0.667,0,38,38,6,1,7,image/7.jpg,0,0,,R_10kpEEzjRy8xPwe,2,2024-05-22_11h07.19.222,face trait task,2021.2.3,MacIntel,58.82352941,120226,,,,,,,
,,,,,,1.013043478,2.304,space,0.509,0,39,39,51,1,55,image/fill_img.png,1,1,Please move the slider all the way to the LEFT to show that you are paying attention.,R_10kpEEzjRy8xPwe,2,2024-05-22_11h07.19.222,face trait task,2021.2.3,MacIntel,58.82352941,120226,,,,,,,
,,,,,,3.243478261,3.97,space,0.387,0,40,40,5,1,6,image/6.jpg,0,0,,R_10kpEEzjRy8xPwe,2,2024-05-22_11h07.19.222,face trait task,2021.2.3,MacIntel,58.82352941,120226,,,,,,,
,,,,,,4.286956522,1.819,space,0.405,0,41,41,21,1,22,image/22.jpg,0,0,,R_10kpEEzjRy8xPwe,2,2024-05-22_11h07.19.222,face trait task,2021.2.3,MacIntel,58.82352941,120226,,,,,,,
,,,,,,2.317391304,4.742,space,1.077,0,42,42,42,1,43,image/43.jpg,0,0,,R_10kpEEzjRy8xPwe,2,2024-05-22_11h07.19.222,face trait task,2021.2.3,MacIntel,58.82352941,120226,,,,,,,
,,,,,,5.226086957,1.777,space,0.276,0,43,43,43,1,44,image/44.jpg,0,0,,R_10kpEEzjRy8xPwe,2,2024-05-22_11h07.19.222,face trait task,2021.2.3,MacIntel,58.82352941,120226,,,,,,,
,,,,,,4.730434783,1.778,space,0.3,0,44,44,25,1,26,image/26.jpg,0,0,,R_10kpEEzjRy8xPwe,2,2024-05-22_11h07.19.222,face trait task,2021.2.3,MacIntel,58.82352941,120226,,,,,,,
,,,,,,3.158695652,1.593,space,0.251,0,45,45,23,1,24,image/24.jpg,0,0,,R_10kpEEzjRy8xPwe,2,2024-05-22_11h07.19.222,face trait task,2021.2.3,MacIntel,58.82352941,120226,,,,,,,
,,,,,,2.441304348,2.442,space,0.291,0,46,46,47,1,48,image/48.jpg,0,0,,R_10kpEEzjRy8xPwe,2,2024-05-22_11h07.19.222,face trait task,2021.2.3,MacIntel,58.82352941,120226,,,,,,,
,,,,,,2.493478261,2.146,space,0.755,0,47,47,10,1,11,image/11.jpg,0,0,,R_10kpEEzjRy8xPwe,2,2024-05-22_11h07.19.222,face trait task,2021.2.3,MacIntel,58.82352941,120226,,,,,,,
,,,,,,1.67826087,2.192,space,0.269,0,48,48,18,1,19,image/19.jpg,0,0,,R_10kpEEzjRy8xPwe,2,2024-05-22_11h07.19.222,face trait task,2021.2.3,MacIntel,58.82352941,120226,,,,,,,
,,,,,,1.717391304,1.991,space,0.301,0,49,49,38,1,39,image/39.jpg,0,0,,R_10kpEEzjRy8xPwe,2,2024-05-22_11h07.19.222,face trait task,2021.2.3,MacIntel,58.82352941,120226,,,,,,,
,,,,,,5.102173913,2.594,space,0.288,0,50,50,49,1,50,image/50.jpg,0,0,,R_10kpEEzjRy8xPwe,2,2024-05-22_11h07.19.222,face trait task,2021.2.3,MacIntel,58.82352941,120226,,,,,,,
,,,,,,4.717391304,2.17,space,1.083,0,51,51,41,1,42,image/42.jpg,0,0,,R_10kpEEzjRy8xPwe,2,2024-05-22_11h07.19.222,face trait task,2021.2.3,MacIntel,58.82352941,120226,,,,,,,
,,,,,,2.780434783,1.636,space,0.468,0,52,52,9,1,10,image/10.jpg,0,0,,R_10kpEEzjRy8xPwe,2,2024-05-22_11h07.19.222,face trait task,2021.2.3,MacIntel,58.82352941,120226,,,,,,,
,,,,,,,,,,,,,,,,,,,,R_10kpEEzjRy8xPwe,2,2024-05-22_11h07.19.222,face trait task,2021.2.3,MacIntel,58.82352941,120226,0,2,2,2,1,2,trustworthy.png
,,,,,critical,1.795652174,3.642,space,0.471,0,0,0,2,1,3,image/3.jpg,0,0,,R_10kpEEzjRy8xPwe,2,2024-05-22_11h07.19.222,face trait task,2021.2.3,MacIntel,58.82352941,120226,,,,,,,
,,,,,,5.239130435,1.919,space,0.604,0,1,1,13,1,14,image/14.jpg,0,0,,R_10kpEEzjRy8xPwe,2,2024-05-22_11h07.19.222,face trait task,2021.2.3,MacIntel,58.82352941,120226,,,,,,,
,,,,,,5.408695652,1.486,space,0.34,0,2,2,31,1,32,image/32.jpg,0,0,,R_10kpEEzjRy8xPwe,2,2024-05-22_11h07.19.222,face trait task,2021.2.3,MacIntel,58.82352941,120226,,,,,,,
,,,,,,4.893478261,1.87,space,0.283,0,3,3,5,1,6,image/6.jpg,0,0,,R_10kpEEzjRy8xPwe,2,2024-05-22_11h07.19.222,face trait task,2021.2.3,MacIntel,58.82352941,120226,,,,,,,
,,,,,,1.006521739,3.77,space,0.917,0,4,4,52,1,54,image/fill_img.png,1,1,Please move the slider all the way to the LEFT to show that you are paying attention.,R_10kpEEzjRy8xPwe,2,2024-05-22_11h07.19.222,face trait task,2021.2.3,MacIntel,58.82352941,120226,,,,,,,
,,,,,,4.195652174,2.535,space,0.341,0,5,5,9,1,10,image/10.jpg,0,0,,R_10kpEEzjRy8xPwe,2,2024-05-22_11h07.19.222,face trait task,2021.2.3,MacIntel,58.82352941,120226,,,,,,,
,,,,,,5.010869565,17.108,space,1.352,0,6,6,12,1,13,image/13.jpg,0,0,,R_10kpEEzjRy8xPwe,2,2024-05-22_11h07.19.222,face trait task,2021.2.3,MacIntel,58.82352941,120226,,,,,,,
,,,,,,3.62173913,2.908,space,0.684,0,7,7,1,1,2,image/2.jpg,0,0,,R_10kpEEzjRy8xPwe,2,2024-05-22_11h07.19.222,face trait task,2021.2.3,MacIntel,58.82352941,120226,,,,,,,
,,,,,,2.793478261,1.802,space,0.239,0,8,8,46,1,47,image/47.jpg,0,0,,R_10kpEEzjRy8xPwe,2,2024-05-22_11h07.19.222,face trait task,2021.2.3,MacIntel,58.82352941,120226,,,,,,,
,,,,,,4.469565217,1.787,space,0.303,0,9,9,36,1,37,image/37.jpg,0,0,,R_10kpEEzjRy8xPwe,2,2024-05-22_11h07.19.222,face trait task,2021.2.3,MacIntel,58.82352941,120226,,,,,,,
,,,,,,3.876086957,1.686,space,0.285,0,10,10,40,1,41,image/41.jpg,0,0,,R_10kpEEzjRy8xPwe,2,2024-05-22_11h07.19.222,face trait task,2021.2.3,MacIntel,58.82352941,120226,,,,,,,
,,,,,,5.323913043,2.24,space,0.441,0,11,11,47,1,48,image/48.jpg,0,0,,R_10kpEEzjRy8xPwe,2,2024-05-22_11h07.19.222,face trait task,2021.2.3,MacIntel,58.82352941,120226,,,,,,,
,,,,,,4.3,2.587,space,0.616,0,12,12,8,1,9,image/9.jpg,0,0,,R_10kpEEzjRy8xPwe,2,2024-05-22_11h07.19.222,face trait task,2021.2.3,MacIntel,58.82352941,120226,,,,,,,
,,,,,,5.969565217,2.359,space,0.305,0,13,13,15,1,16,image/16.jpg,0,0,,R_10kpEEzjRy8xPwe,2,2024-05-22_11h07.19.222,face trait task,2021.2.3,MacIntel,58.82352941,120226,,,,,,,
,,,,,,5.239130435,1.675,space,0.304,0,14,14,19,1,20,image/20.jpg,0,0,,R_10kpEEzjRy8xPwe,2,2024-05-22_11h07.19.222,face trait task,2021.2.3,MacIntel,58.82352941,120226,,,,,,,
,,,,,,4.808695652,3.408,space,1.625,0,15,15,41,1,42,image/42.jpg,0,0,,R_10kpEEzjRy8xPwe,2,2024-05-22_11h07.19.222,face trait task,2021.2.3,MacIntel,58.82352941,120226,,,,,,,
,,,,,,5.702173913,1.821,space,0.308,0,16,16,0,1,1,image/1.jpg,0,0,,R_10kpEEzjRy8xPwe,2,2024-05-22_11h07.19.222,face trait task,2021.2.3,MacIntel,58.82352941,120226,,,,,,,
,,,,,,5.05,2.869,space,0.304,0,17,17,3,1,4,image/4.jpg,0,0,,R_10kpEEzjRy8xPwe,2,2024-05-22_11h07.19.222,face trait task,2021.2.3,MacIntel,58.82352941,120226,,,,,,,
,,,,,,4.52173913,2.274,space,0.333,0,18,18,42,1,43,image/43.jpg,0,0,,R_10kpEEzjRy8xPwe,2,2024-05-22_11h07.19.222,face trait task,2021.2.3,MacIntel,58.82352941,120226,,,,,,,
,,,,,,1.997826087,2.204,space,0.267,0,19,19,49,1,50,image/50.jpg,0,0,,R_10kpEEzjRy8xPwe,2,2024-05-22_11h07.19.222,face trait task,2021.2.3,MacIntel,58.82352941,120226,,,,,,,
,,,,,,4.984782609,10.72,space,0.668,0,20,20,37,1,38,image/38.jpg,0,0,,R_10kpEEzjRy8xPwe,2,2024-05-22_11h07.19.222,face trait task,2021.2.3,MacIntel,58.82352941,120226,,,,,,,
,,,,,,3.060869565,1.853,space,0.333,0,21,21,32,1,33,image/33.jpg,0,0,,R_10kpEEzjRy8xPwe,2,2024-05-22_11h07.19.222,face trait task,2021.2.3,MacIntel,58.82352941,120226,,,,,,,
,,,,,,1.006521739,4.078,space,1.136,0,22,22,51,1,55,image/fill_img.png,1,1,Please move the slider all the way to the LEFT to show that you are paying attention.,R_10kpEEzjRy8xPwe,2,2024-05-22_11h07.19.222,face trait task,2021.2.3,MacIntel,58.82352941,120226,,,,,,,
,,,,,,4.958695652,2.334,space,0.286,0,23,23,44,1,45,image/45.jpg,0,0,,R_10kpEEzjRy8xPwe,2,2024-05-22_11h07.19.222,face trait task,2021.2.3,MacIntel,58.82352941,120226,,,,,,,
,,,,,,3.367391304,1.719,space,0.3,0,24,24,38,1,39,image/39.jpg,0,0,,R_10kpEEzjRy8xPwe,2,2024-05-22_11h07.19.222,face trait task,2021.2.3,MacIntel,58.82352941,120226,,,,,,,
,,,,,,2.584782609,4.469,space,0.245,0,25,25,34,1,35,image/35.jpg,0,0,,R_10kpEEzjRy8xPwe,2,2024-05-22_11h07.19.222,face trait task,2021.2.3,MacIntel,58.82352941,120226,,,,,,,
,,,,,,3.126086957,11.702,space,1.184,0,26,26,43,1,44,image/44.jpg,0,0,,R_10kpEEzjRy8xPwe,2,2024-05-22_11h07.19.222,face trait task,2021.2.3,MacIntel,58.82352941,120226,,,,,,,
,,,,,,4.991304348,1.968,space,0.909,0,27,27,33,1,34,image/34.jpg,0,0,,R_10kpEEzjRy8xPwe,2,2024-05-22_11h07.19.222,face trait task,2021.2.3,MacIntel,58.82352941,120226,,,,,,,
,,,,,,4.945652174,3.703,space,0.275,0,28,28,45,1,46,image/46.jpg,0,0,,R_10kpEEzjRy8xPwe,2,2024-05-22_11h07.19.222,face trait task,2021.2.3,MacIntel,58.82352941,120226,,,,,,,
,,,,,,4.52826087,14.047,space,3.383,0,29,29,6,1,7,image/7.jpg,0,0,,R_10kpEEzjRy8xPwe,2,2024-05-22_11h07.19.222,face trait task,2021.2.3,MacIntel,58.82352941,120226,,,,,,,
,,,,,,5.793478261,1.62,space,0.234,0,30,30,10,1,11,image/11.jpg,0,0,,R_10kpEEzjRy8xPwe,2,2024-05-22_11h07.19.222,face trait task,2021.2.3,MacIntel,58.82352941,120226,,,,,,,
,,,,,,5.910869565,1.22,space,0.349,0,31,31,17,1,18,image/18.jpg,0,0,,R_10kpEEzjRy8xPwe,2,2024-05-22_11h07.19.222,face trait task,2021.2.3,MacIntel,58.82352941,120226,,,,,,,
,,,,,,5.689130435,1.777,space,0.701,0,32,32,18,1,19,image/19.jpg,0,0,,R_10kpEEzjRy8xPwe,2,2024-05-22_11h07.19.222,face trait task,2021.2.3,MacIntel,58.82352941,120226,,,,,,,
,,,,,,3.197826087,2.003,space,0.267,0,33,33,14,1,15,image/15.jpg,0,0,,R_10kpEEzjRy8xPwe,2,2024-05-22_11h07.19.222,face trait task,2021.2.3,MacIntel,58.82352941,120226,,,,,,,
,,,,,,3.563043478,1.743,space,0.351,0,34,34,48,1,49,image/49.jpg,0,0,,R_10kpEEzjRy8xPwe,2,2024-05-22_11h07.19.222,face trait task,2021.2.3,MacIntel,58.82352941,120226,,,,,,,
,,,,,,5.591304348,2.518,space,0.516,0,35,35,39,1,40,image/40.jpg,0,0,,R_10kpEEzjRy8xPwe,2,2024-05-22_11h07.19.222,face trait task,2021.2.3,MacIntel,58.82352941,120226,,,,,,,
,,,,,,3.439130435,1.486,space,0.253,0,36,36,16,1,17,image/17.jpg,0,0,,R_10kpEEzjRy8xPwe,2,2024-05-22_11h07.19.222,face trait task,2021.2.3,MacIntel,58.82352941,120226,,,,,,,
,,,,,,5.741304348,1.744,space,0.301,0,37,37,29,1,30,image/30.jpg,0,0,,R_10kpEEzjRy8xPwe,2,2024-05-22_11h07.19.222,face trait task,2021.2.3,MacIntel,58.82352941,120226,,,,,,,
,,,,,,1,4.144,space,0.517,0,38,38,50,1,53,image/fill_img.png,1,1,Please move the slider all the way to the LEFT to show that you are paying attention.,R_10kpEEzjRy8xPwe,2,2024-05-22_11h07.19.222,face trait task,2021.2.3,MacIntel,58.82352941,120226,,,,,,,
,,,,,,3.373913043,2.219,space,0.293,0,39,39,23,1,24,image/24.jpg,0,0,,R_10kpEEzjRy8xPwe,2,2024-05-22_11h07.19.222,face trait task,2021.2.3,MacIntel,58.82352941,120226,,,,,,,
,,,,,,2.023913043,2.487,space,0.434,0,40,40,22,1,23,image/23.jpg,0,0,,R_10kpEEzjRy8xPwe,2,2024-05-22_11h07.19.222,face trait task,2021.2.3,MacIntel,58.82352941,120226,,,,,,,
,,,,,,6.973913043,2.853,space,0.433,0,41,41,27,1,28,image/28.jpg,0,0,,R_10kpEEzjRy8xPwe,2,2024-05-22_11h07.19.222,face trait task,2021.2.3,MacIntel,58.82352941,120226,,,,,,,
,,,,,,3.484782609,2.139,space,0.289,0,42,42,35,1,36,image/36.jpg,0,0,,R_10kpEEzjRy8xPwe,2,2024-05-22_11h07.19.222,face trait task,2021.2.3,MacIntel,58.82352941,120226,,,,,,,
,,,,,,2.610869565,2.139,space,0.25,0,43,43,11,1,12,image/12.jpg,0,0,,R_10kpEEzjRy8xPwe,2,2024-05-22_11h07.19.222,face trait task,2021.2.3,MacIntel,58.82352941,120226,,,,,,,
,,,,,,2.793478261,1.725,space,0.235,0,44,44,4,1,5,image/5.jpg,0,0,,R_10kpEEzjRy8xPwe,2,2024-05-22_11h07.19.222,face trait task,2021.2.3,MacIntel,58.82352941,120226,,,,,,,
,,,,,,5.682608696,1.903,space,0.516,0,45,45,25,1,26,image/26.jpg,0,0,,R_10kpEEzjRy8xPwe,2,2024-05-22_11h07.19.222,face trait task,2021.2.3,MacIntel,58.82352941,120226,,,,,,,
,,,,,,5.017391304,1.474,space,0.27,0,46,46,26,1,27,image/27.jpg,0,0,,R_10kpEEzjRy8xPwe,2,2024-05-22_11h07.19.222,face trait task,2021.2.3,MacIntel,58.82352941,120226,,,,,,,
,,,,,,4.176086957,2.258,space,0.238,0,47,47,20,1,21,image/21.jpg,0,0,,R_10kpEEzjRy8xPwe,2,2024-05-22_11h07.19.222,face trait task,2021.2.3,MacIntel,58.82352941,120226,,,,,,,
,,,,,,3.217391304,1.406,space,0.252,0,48,48,24,1,25,image/25.jpg,0,0,,R_10kpEEzjRy8xPwe,2,2024-05-22_11h07.19.222,face trait task,2021.2.3,MacIntel,58.82352941,120226,,,,,,,
,,,,,,2.891304348,2.035,space,0.301,0,49,49,28,1,29,image/29.jpg,0,0,,R_10kpEEzjRy8xPwe,2,2024-05-22_11h07.19.222,face trait task,2021.2.3,MacIntel,58.82352941,120226,,,,,,,
,,,,,,4.658695652,7.378,space,0.274,0,50,50,21,1,22,image/22.jpg,0,0,,R_10kpEEzjRy8xPwe,2,2024-05-22_11h07.19.222,face trait task,2021.2.3,MacIntel,58.82352941,120226,,,,,,,
,,,,,,6.497826087,2.569,space,1.367,0,51,51,30,1,31,image/31.jpg,0,0,,R_10kpEEzjRy8xPwe,2,2024-05-22_11h07.19.222,face trait task,2021.2.3,MacIntel,58.82352941,120226,,,,,,,
,,,,,,2.636956522,1.736,space,0.285,0,52,52,7,1,8,image/8.jpg,0,0,,R_10kpEEzjRy8xPwe,2,2024-05-22_11h07.19.222,face trait task,2021.2.3,MacIntel,58.82352941,120226,,,,,,,
,,,,,,,,,,,,,,,,,,,,R_10kpEEzjRy8xPwe,2,2024-05-22_11h07.19.222,face trait task,2021.2.3,MacIntel,58.82352941,120226,0,3,3,0,1,0,critical.png
