chooserow,ParID,pre_instru_resp_2.keys,pre_instru_resp_2.rt,pre_instru_resp_3.keys,pre_instru_resp_3.rt,pre_instru_resp_9.keys,pre_instru_resp_9.rt,pre_instru_resp_8.keys,pre_instru_resp_8.rt,pre_instru_resp_4.keys,pre_instru_resp_4.rt,pre_instru_resp_5.keys,pre_instru_resp_5.rt,pre_instru_resp_6.keys,pre_instru_resp_6.rt,key_resp_3.keys,key_resp_3.rt,key_resp_4.keys,key_resp_4.rt,key_resp_5.keys,key_resp_5.rt,key_resp_6.keys,key_resp_6.rt,key_resp_7.keys,key_resp_7.rt,trials_2.thisRepN,trials_2.thisTrialN,trials_2.thisN,trials_2.thisIndex,trials_2.ran,participant,session,date,expName,psychopyVersion,OS,frameRate,SONAid,pre_instru_resp.keys,pre_instru_resp.rt,clicked,judge_2.x,judge_2.y,judge_2.leftButton,judge_2.midButton,judge_2.rightButton,judge_2.clicked_name,trials.thisRepN,trials.thisTrialN,trials.thisN,trials.thisIndex,trials.ran,prac_answer,prac_dot_sti,dotlefttext,dotrighttext,prac_acc,judge.x,judge.y,judge.leftButton,judge.midButton,judge.rightButton,judge.clicked_name,clicked_guilt,slider_guilt.response,slider_guilt.rt,key_guilt.keys,share_slider.response,share_slider.rt,key_share.keys,key_share.rt,slider_apology.response,slider_apology.rt,key_apology.keys,slider_hide.response,slider_hide.rt,slider_forgiveness.response,slider_forgiveness.rt,key_forgiveness.keys,slider_mad.response,slider_mad.rt,trialseq.thisRepN,trialseq.thisTrialN,trialseq.thisN,trialseq.thisIndex,trialseq.ran,type_trial,stipic,DV,picture,answer,number,key_guilt.rt,key_forgiveness.rt,key_apology.rt
"[160,59,189,198,27,186,194,122,137,156,178,180,179,171,118,65,135,111,152,134,93,75,90,5,73,98,57,17,157,104,92,123,81,100,144,45,69,50,71,146,126,117]",R_10kpEEzjRy8xPwe,space,1.491,space,2.185,space,10.649,space,14.131,space,22.357,space,4.852,space,2.772,4,8.749,1,7.867,2,6.309,2,8.462,2,3.484,0,0,0,0,1,R_10kpEEzjRy8xPwe,1,2024-05-22_10h51.49.194,interaction task,2021.2.3,MacIntel,58.82352941,120226,,,,,,,,,,,,,,,,,,,,,,,,,,,,,,,,,,,,,,,,,,,,,,,,,,,,,,,,,
,,,,space,2.214,space,6.674,space,3.242,space,1.774,space,2.321,space,0.834,3,3.172,1,5.25,3,5.368,2,4.233,2,0.701,1,0,1,0,1,R_10kpEEzjRy8xPwe,1,2024-05-22_10h51.49.194,interaction task,2021.2.3,MacIntel,58.82352941,120226,,,,,,,,,,,,,,,,,,,,,,,,,,,,,,,,,,,,,,,,,,,,,,,,,,,,,,,,,
,,,,,,,,,,,,,,,,,,,,,,,,,,,,,,,R_10kpEEzjRy8xPwe,1,2024-05-22_10h51.49.194,interaction task,2021.2.3,MacIntel,58.82352941,120226,space,3.067,"[""RightButton_2""]",0.295238095,-0.313043478,1,0,0,RightButton_2,0,0,0,1,1,RightButton_2,11dot1.png,Smaller,Greater,,,,,,,,,,,,,,,,,,,,,,,,,,,,,,,,,,,,,,,
,,,,,,,,,,,,,,,,,,,,,,,,,,,,,,,R_10kpEEzjRy8xPwe,1,2024-05-22_10h51.49.194,interaction task,2021.2.3,MacIntel,58.82352941,120226,,,"[""RightButton_2""]",0.281632653,-0.317391304,1,0,0,RightButton_2,0,1,1,2,1,RightButton_2,9dot1.png,Greater,Smaller,,,,,,,,,,,,,,,,,,,,,,,,,,,,,,,,,,,,,,,
,,,,,,,,,,,,,,,,,,,,,,,,,,,,,,,R_10kpEEzjRy8xPwe,1,2024-05-22_10h51.49.194,interaction task,2021.2.3,MacIntel,58.82352941,120226,,,"[""RightButton_2""]",0.255782313,-0.304347826,1,0,0,RightButton_2,0,2,2,0,1,RightButton_2,11dot1.png,Smaller,Greater,,,,,,,,,,,,,,,,,,,,,,,,,,,,,,,,,,,,,,,
,,,,,,,,,,,,,,,,,,,,,,,,,,,,,,,R_10kpEEzjRy8xPwe,1,2024-05-22_10h51.49.194,interaction task,2021.2.3,MacIntel,58.82352941,120226,,,,,,,,,,,,,,,,,Greater,Smaller,0.6,-0.221768707,-0.476086957,1,0,0,LeftButton,"[""LeftButton""]",,,,2.996598639,9.306,space,1.465,,,,,,,,,,,0,0,0,0,1,3,only_sub_wrong.png,1,RandomDot22.png,No answer,19,,,
,,,,,,,,,,,,,,,,,,,,,,,,,,,,,,,R_10kpEEzjRy8xPwe,1,2024-05-22_10h51.49.194,interaction task,2021.2.3,MacIntel,58.82352941,120226,,,,,,,,,,,,,,,,,Smaller,Greater,,-0.346938776,-0.532608696,1,0,0,LeftButton,"[""LeftButton""]",60,3.452,space,,,,,,,,,,,,,,,0,1,1,1,1,1,both_wrong.png,0,RandomDot14.png,No answer,21,1.602,,
,,,,,,,,,,,,,,,,,,,,,,,,,,,,,,,R_10kpEEzjRy8xPwe,1,2024-05-22_10h51.49.194,interaction task,2021.2.3,MacIntel,58.82352941,120226,,,,,,,,,,,,,,,,,Smaller,Greater,,0.307482993,-0.510869565,1,0,0,RightButton,"[""RightButton""]",,,,,,,,,,,,,49.72514258,4.123,space,50,6.611,0,2,2,2,1,3,only_sub_wrong.png,3,RandomDot38.png,No answer,20,,0.501,
,,,,,,,,,,,,,,,,,,,,,,,,,,,,,,,R_10kpEEzjRy8xPwe,1,2024-05-22_10h51.49.194,interaction task,2021.2.3,MacIntel,58.82352941,120226,,,,,,,,,,,,,,,,,Greater,Smaller,,0.231292517,-0.52173913,1,0,0,RightButton,"[""RightButton""]",,,,,,,,,,,,,,,,,,0,3,3,3,1,5,both_right.png,10,RandomDot42.png,RightButton,20,,,
,,,,,,,,,,,,,,,,,,,,,,,,,,,,,,,R_10kpEEzjRy8xPwe,1,2024-05-22_10h51.49.194,interaction task,2021.2.3,MacIntel,58.82352941,120226,,,,,,,,,,,,,,,,,Greater,Smaller,,-0.246258503,-0.480434783,1,0,0,LeftButton,"[""LeftButton""]",,,,,,,,,,,,,,,,,,0,4,4,4,1,0,both_right.png,2,RandomDot28.png,No answer,21,,,
,,,,,,,,,,,,,,,,,,,,,,,,,,,,,,,R_10kpEEzjRy8xPwe,1,2024-05-22_10h51.49.194,interaction task,2021.2.3,MacIntel,58.82352941,120226,,,,,,,,,,,,,,,,,Smaller,Greater,,0.265306122,-0.543478261,1,0,0,RightButton,"[""RightButton""]",,,,,,,,,,,,,60.44458187,2.995,space,40.10513296,7.278,0,5,5,5,1,3,only_sub_wrong.png,3,RandomDot9.png,No answer,19,,2.918,
,,,,,,,,,,,,,,,,,,,,,,,,,,,,,,,R_10kpEEzjRy8xPwe,1,2024-05-22_10h51.49.194,interaction task,2021.2.3,MacIntel,58.82352941,120226,,,,,,,,,,,,,,,,,Greater,Smaller,,-0.321088435,-0.508695652,1,0,0,LeftButton,"[""LeftButton""]",,,,,,,,,,,,,,,,,,0,6,6,6,1,4,both_right.png,10,RandomDot41.png,LeftButton,5,,,
,,,,,,,,,,,,,,,,,,,,,,,,,,,,,,,R_10kpEEzjRy8xPwe,1,2024-05-22_10h51.49.194,interaction task,2021.2.3,MacIntel,58.82352941,120226,,,,,,,,,,,,,,,,,Greater,Smaller,,0.228571429,-0.5,1,0,0,RightButton,"[""RightButton""]",,,,,,,,50,12.605,space,80,7.591,,,,,,0,7,7,7,1,2,only_sub_right.png,2,RandomDot33.png,No answer,20,,,6.743
,,,,,,,,,,,,,,,,,,,,,,,,,,,,,,,R_10kpEEzjRy8xPwe,1,2024-05-22_10h51.49.194,interaction task,2021.2.3,MacIntel,58.82352941,120226,,,,,,,,,,,,,,,,,Greater,Smaller,,-0.282993197,-0.463043478,1,0,0,LeftButton,"[""LeftButton""]",,,,,,,,,,,,,70.33944891,3.884,space,54.26028997,8.211,0,8,8,8,1,2,only_sub_right.png,3,RandomDot23.png,No answer,20,,0.522,
,,,,,,,,,,,,,,,,,,,,,,,,,,,,,,,R_10kpEEzjRy8xPwe,1,2024-05-22_10h51.49.194,interaction task,2021.2.3,MacIntel,58.82352941,120226,,,,,,,,,,,,,,,,,Greater,Smaller,,0.25170068,-0.489130435,1,0,0,RightButton,"[""RightButton""]",,,,3.003401361,5.722,space,2.417,,,,,,,,,,,0,9,9,9,1,3,only_sub_wrong.png,1,RandomDot4.png,No answer,20,,,
,,,,,,,,,,,,,,,,,,,,,,,,,,,,,,,R_10kpEEzjRy8xPwe,1,2024-05-22_10h51.49.194,interaction task,2021.2.3,MacIntel,58.82352941,120226,,,,,,,,,,,,,,,,,Smaller,Greater,,0.319727891,-0.513043478,1,0,0,RightButton,"[""RightButton""]",,,,,,,,63,5.181,space,92,9.348,,,,,,0,10,10,10,1,3,only_sub_wrong.png,2,RandomDot22.png,No answer,19,,,0.834
,,,,,,,,,,,,,,,,,,,,,,,,,,,,,,,R_10kpEEzjRy8xPwe,1,2024-05-22_10h51.49.194,interaction task,2021.2.3,MacIntel,58.82352941,120226,,,,,,,,,,,,,,,,,Greater,Smaller,,-0.208163265,-0.530434783,1,0,0,LeftButton,"[""LeftButton""]",,,,,,,,,,,,,69.10259053,5.176,space,40.37999038,8.016,0,11,11,11,1,3,only_sub_wrong.png,3,RandomDot20.png,No answer,19,,2.472,
,,,,,,,,,,,,,,,,,,,,,,,,,,,,,,,R_10kpEEzjRy8xPwe,1,2024-05-22_10h51.49.194,interaction task,2021.2.3,MacIntel,58.82352941,120226,,,,,,,,,,,,,,,,,Smaller,Greater,,0.259863946,-0.52173913,1,0,0,RightButton,"[""RightButton""]",,,,,,,,31,3.534,space,89,5.633,,,,,,0,12,12,12,1,3,only_sub_wrong.png,2,RandomDot15.png,No answer,20,,,0.901
,,,,,,,,,,,,,,,,,,,,,,,,,,,,,,,R_10kpEEzjRy8xPwe,1,2024-05-22_10h51.49.194,interaction task,2021.2.3,MacIntel,58.82352941,120226,,,,,,,,,,,,,,,,,Greater,Smaller,,0.229931973,-0.491304348,1,0,0,RightButton,"[""RightButton""]",,,,,,,,19,2.334,space,91,3.56,,,,,,0,13,13,13,1,3,only_sub_wrong.png,2,RandomDot23.png,No answer,20,,,0.45
,,,,,,,,,,,,,,,,,,,,,,,,,,,,,,,R_10kpEEzjRy8xPwe,1,2024-05-22_10h51.49.194,interaction task,2021.2.3,MacIntel,58.82352941,120226,,,,,,,,,,,,,,,,,Smaller,Greater,,-0.281632653,-0.52173913,1,0,0,LeftButton,"[""LeftButton""]",,,,4.914965986,3.135,space,1.068,,,,,,,,,,,0,14,14,14,1,2,only_sub_right.png,1,RandomDot34.png,No answer,19,,,
,,,,,,,,,,,,,,,,,,,,,,,,,,,,,,,R_10kpEEzjRy8xPwe,1,2024-05-22_10h51.49.194,interaction task,2021.2.3,MacIntel,58.82352941,120226,,,,,,,,,,,,,,,,,Greater,Smaller,,-0.273469388,-0.545652174,1,0,0,LeftButton,"[""LeftButton""]",,,,4.942176871,3.587,space,0.901,,,,,,,,,,,0,15,15,15,1,1,both_wrong.png,1,RandomDot26.png,No answer,21,,,
,,,,,,,,,,,,,,,,,,,,,,,,,,,,,,,R_10kpEEzjRy8xPwe,1,2024-05-22_10h51.49.194,interaction task,2021.2.3,MacIntel,58.82352941,120226,,,,,,,,,,,,,,,,,Greater,Smaller,,0.236734694,-0.517391304,1,0,0,RightButton,"[""RightButton""]",,,,,,,,,,,,,70.2020202,5.861,space,50.68714354,8.495,0,16,16,16,1,2,only_sub_right.png,3,RandomDot26.png,No answer,20,,0.868,
,,,,,,,,,,,,,,,,,,,,,,,,,,,,,,,R_10kpEEzjRy8xPwe,1,2024-05-22_10h51.49.194,interaction task,2021.2.3,MacIntel,58.82352941,120226,,,,,,,,,,,,,,,,,Greater,Smaller,,-0.314285714,-0.536956522,1,0,0,LeftButton,"[""LeftButton""]",,,,4.996598639,5.501,space,2.326,,,,,,,,,,,0,17,17,17,1,2,only_sub_right.png,1,RandomDot4.png,No answer,19,,,
,,,,,,,,,,,,,,,,,,,,,,,,,,,,,,,R_10kpEEzjRy8xPwe,1,2024-05-22_10h51.49.194,interaction task,2021.2.3,MacIntel,58.82352941,120226,,,,,,,,,,,,,,,,,Smaller,Greater,,-0.23537415,-0.506521739,1,0,0,LeftButton,"[""LeftButton""]",70,2.904,space,,,,,,,,,,,,,,,0,18,18,18,1,3,only_sub_wrong.png,0,RandomDot9.png,No answer,19,1.817,,
,,,,,,,,,,,,,,,,,,,,,,,,,,,,,,,R_10kpEEzjRy8xPwe,1,2024-05-22_10h51.49.194,interaction task,2021.2.3,MacIntel,58.82352941,120226,,,,,,,,,,,,,,,,,Greater,Smaller,,-0.240816327,-0.510869565,1,0,0,LeftButton,"[""LeftButton""]",,,,,,,,,,,,,60.99429671,3.934,space,49.72514258,2.444,0,19,19,19,1,2,only_sub_right.png,3,RandomDot22.png,No answer,20,,1.451,
,,,,,,,,,,,,,,,,,,,,,,,,,,,,,,,R_10kpEEzjRy8xPwe,1,2024-05-22_10h51.49.194,interaction task,2021.2.3,MacIntel,58.82352941,120226,,,,,,,,,,,,,,,,,Smaller,Greater,,-0.284353741,-0.480434783,1,0,0,LeftButton,"[""LeftButton""]",,,,,,,,,,,,,68.6903044,3.575,space,52.61114547,6.49,0,20,20,20,1,1,both_wrong.png,3,RandomDot12.png,No answer,21,,2.539,
,,,,,,,,,,,,,,,,,,,,,,,,,,,,,,,R_10kpEEzjRy8xPwe,1,2024-05-22_10h51.49.194,interaction task,2021.2.3,MacIntel,58.82352941,120226,,,,,,,,,,,,,,,,,Greater,Smaller,,0.405442177,-0.545652174,1,0,0,RightButton,"[""RightButton""]",,,,,,,,71,3.234,space,50,4.751,,,,,,0,21,21,21,1,1,both_wrong.png,2,RandomDot10.png,No answer,20,,,0.85
,,,,,,,,,,,,,,,,,,,,,,,,,,,,,,,R_10kpEEzjRy8xPwe,1,2024-05-22_10h51.49.194,interaction task,2021.2.3,MacIntel,58.82352941,120226,,,,,,,,,,,,,,,,,Smaller,Greater,,-0.221768707,-0.502173913,1,0,0,LeftButton,"[""LeftButton""]",,,,,,,,,,,,,60.58201058,1.791,space,61.40658284,4.261,0,22,22,22,1,1,both_wrong.png,3,RandomDot29.png,No answer,19,,0.36,
,,,,,,,,,,,,,,,,,,,,,,,,,,,,,,,R_10kpEEzjRy8xPwe,1,2024-05-22_10h51.49.194,interaction task,2021.2.3,MacIntel,58.82352941,120226,,,,,,,,,,,,,,,,,Greater,Smaller,,0.255782313,-0.534782609,1,0,0,RightButton,"[""RightButton""]",,,,,,,,,,,,,,,,,,0,23,23,23,1,0,both_right.png,0,RandomDot2.png,No answer,19,,,
,,,,,,,,,,,,,,,,,,,,,,,,,,,,,,,R_10kpEEzjRy8xPwe,1,2024-05-22_10h51.49.194,interaction task,2021.2.3,MacIntel,58.82352941,120226,,,,,,,,,,,,,,,,,Greater,Smaller,,0.285714286,-0.530434783,1,0,0,RightButton,"[""RightButton""]",,,,,,,,66,1.954,space,65,2.984,,,,,,0,24,24,24,1,1,both_wrong.png,2,RandomDot24.png,No answer,19,,,0.934
,,,,,,,,,,,,,,,,,,,,,,,,,,,,,,,R_10kpEEzjRy8xPwe,1,2024-05-22_10h51.49.194,interaction task,2021.2.3,MacIntel,58.82352941,120226,,,,,,,,,,,,,,,,,Greater,Smaller,,-0.27755102,-0.493478261,1,0,0,LeftButton,"[""LeftButton""]",62,1.779,space,,,,,,,,,,,,,,,0,25,25,25,1,2,only_sub_right.png,0,RandomDot16.png,No answer,20,0.91,,
,,,,,,,,,,,,,,,,,,,,,,,,,,,,,,,R_10kpEEzjRy8xPwe,1,2024-05-22_10h51.49.194,interaction task,2021.2.3,MacIntel,58.82352941,120226,,,,,,,,,,,,,,,,,Smaller,Greater,,0.212244898,-0.539130435,1,0,0,RightButton,"[""RightButton""]",71,3.574,space,,,,,,,,,,,,,,,0,26,26,26,1,1,both_wrong.png,0,RandomDot22.png,No answer,21,0.622,,
,,,,,,,,,,,,,,,,,,,,,,,,,,,,,,,R_10kpEEzjRy8xPwe,1,2024-05-22_10h51.49.194,interaction task,2021.2.3,MacIntel,58.82352941,120226,,,,,,,,,,,,,,,,,Greater,Smaller,,0.26122449,-0.515217391,1,0,0,RightButton,"[""RightButton""]",,,,,,,,,,,,,,,,,,0,27,27,27,1,0,both_right.png,1,RandomDot7.png,No answer,21,,,
,,,,,,,,,,,,,,,,,,,,,,,,,,,,,,,R_10kpEEzjRy8xPwe,1,2024-05-22_10h51.49.194,interaction task,2021.2.3,MacIntel,58.82352941,120226,,,,,,,,,,,,,,,,,Greater,Smaller,,0.28707483,-0.480434783,1,0,0,RightButton,"[""RightButton""]",,,,4.996598639,5.37,space,2.233,,,,,,,,,,,0,28,28,28,1,3,only_sub_wrong.png,1,RandomDot8.png,No answer,21,,,
,,,,,,,,,,,,,,,,,,,,,,,,,,,,,,,R_10kpEEzjRy8xPwe,1,2024-05-22_10h51.49.194,interaction task,2021.2.3,MacIntel,58.82352941,120226,,,,,,,,,,,,,,,,,Smaller,Greater,,-0.23537415,-0.5,1,0,0,LeftButton,"[""LeftButton""]",63,2.57,space,,,,,,,,,,,,,,,0,29,29,29,1,2,only_sub_right.png,0,RandomDot29.png,No answer,20,1.434,,
,,,,,,,,,,,,,,,,,,,,,,,,,,,,,,,R_10kpEEzjRy8xPwe,1,2024-05-22_10h51.49.194,interaction task,2021.2.3,MacIntel,58.82352941,120226,,,,,,,,,,,,,,,,,Smaller,Greater,,-0.325170068,-0.52826087,1,0,0,LeftButton,"[""LeftButton""]",,,,,,,,,,,,,69.92716278,2.281,space,62.23115509,4.268,0,30,30,30,1,1,both_wrong.png,3,RandomDot7.png,No answer,21,,1.434,
,,,,,,,,,,,,,,,,,,,,,,,,,,,,,,,R_10kpEEzjRy8xPwe,1,2024-05-22_10h51.49.194,interaction task,2021.2.3,MacIntel,58.82352941,120226,,,,,,,,,,,,,,,,,Greater,Smaller,,-0.345578231,-0.467391304,1,0,0,LeftButton,"[""LeftButton""]",,,,,,,,39,3.7,space,78,7.368,,,,,,0,31,31,31,1,2,only_sub_right.png,2,RandomDot16.png,No answer,20,,,1.472
,,,,,,,,,,,,,,,,,,,,,,,,,,,,,,,R_10kpEEzjRy8xPwe,1,2024-05-22_10h51.49.194,interaction task,2021.2.3,MacIntel,58.82352941,120226,,,,,,,,,,,,,,,,,Smaller,Greater,,-0.268027211,-0.52173913,1,0,0,LeftButton,"[""LeftButton""]",,,,,,,,35,6.917,space,97,5.403,,,,,,0,32,32,32,1,1,both_wrong.png,2,RandomDot21.png,No answer,20,,,4.871
,,,,,,,,,,,,,,,,,,,,,,,,,,,,,,,R_10kpEEzjRy8xPwe,1,2024-05-22_10h51.49.194,interaction task,2021.2.3,MacIntel,58.82352941,120226,,,,,,,,,,,,,,,,,Greater,Smaller,,-0.240816327,-0.504347826,1,0,0,LeftButton,"[""LeftButton""]",72,10.341,space,,,,,,,,,,,,,,,0,33,33,33,1,2,only_sub_right.png,0,RandomDot33.png,No answer,21,2.351,,
,,,,,,,,,,,,,,,,,,,,,,,,,,,,,,,R_10kpEEzjRy8xPwe,1,2024-05-22_10h51.49.194,interaction task,2021.2.3,MacIntel,58.82352941,120226,,,,,,,,,,,,,,,,,Greater,Smaller,,-0.221768707,-0.504347826,1,0,0,LeftButton,"[""LeftButton""]",59,1.82,space,,,,,,,,,,,,,,,0,34,34,34,1,3,only_sub_wrong.png,0,RandomDot33.png,No answer,19,0.784,,
,,,,,,,,,,,,,,,,,,,,,,,,,,,,,,,R_10kpEEzjRy8xPwe,1,2024-05-22_10h51.49.194,interaction task,2021.2.3,MacIntel,58.82352941,120226,,,,,,,,,,,,,,,,,Smaller,Greater,,-0.370068027,-0.541304348,1,0,0,LeftButton,"[""LeftButton""]",,,,,,,,,,,,,,,,,,0,35,35,35,1,0,both_right.png,3,RandomDot13.png,No answer,20,,,
,,,,,,,,,,,,,,,,,,,,,,,,,,,,,,,R_10kpEEzjRy8xPwe,1,2024-05-22_10h51.49.194,interaction task,2021.2.3,MacIntel,58.82352941,120226,,,,,,,,,,,,,,,,,Smaller,Greater,,-0.284353741,-0.536956522,1,0,0,LeftButton,"[""LeftButton""]",,,,4.010204082,4.444,space,1.201,,,,,,,,,,,0,36,36,36,1,1,both_wrong.png,1,RandomDot13.png,No answer,19,,,
,,,,,,,,,,,,,,,,,,,,,,,,,,,,,,,R_10kpEEzjRy8xPwe,1,2024-05-22_10h51.49.194,interaction task,2021.2.3,MacIntel,58.82352941,120226,,,,,,,,,,,,,,,,,Greater,Smaller,,0.280272109,-0.519565217,1,0,0,RightButton,"[""RightButton""]",49,2.642,space,,,,,,,,,,,,,,,0,37,37,37,1,1,both_wrong.png,0,RandomDot12.png,No answer,21,0.478,,
,,,,,,,,,,,,,,,,,,,,,,,,,,,,,,,R_10kpEEzjRy8xPwe,1,2024-05-22_10h51.49.194,interaction task,2021.2.3,MacIntel,58.82352941,120226,,,,,,,,,,,,,,,,,Smaller,Greater,,0.315646259,-0.497826087,1,0,0,RightButton,"[""RightButton""]",,,,2.996598639,3.334,space,0.944,,,,,,,,,,,0,38,38,38,1,1,both_wrong.png,1,RandomDot14.png,No answer,20,,,
,,,,,,,,,,,,,,,,,,,,,,,,,,,,,,,R_10kpEEzjRy8xPwe,1,2024-05-22_10h51.49.194,interaction task,2021.2.3,MacIntel,58.82352941,120226,,,,,,,,,,,,,,,,,Greater,Smaller,,0.293877551,-0.539130435,1,0,0,RightButton,"[""RightButton""]",50,1.454,space,,,,,,,,,,,,,,,0,39,39,39,1,3,only_sub_wrong.png,0,RandomDot38.png,No answer,21,1.667,,
,,,,,,,,,,,,,,,,,,,,,,,,,,,,,,,R_10kpEEzjRy8xPwe,1,2024-05-22_10h51.49.194,interaction task,2021.2.3,MacIntel,58.82352941,120226,,,,,,,,,,,,,,,,,Smaller,Greater,,-0.262585034,-0.517391304,1,0,0,LeftButton,"[""LeftButton""]",,,,,,,,10,10.208,space,44,3.156,,,,,,0,40,40,40,1,2,only_sub_right.png,2,RandomDot34.png,No answer,20,,,4.054
,,,,,,,,,,,,,,,,,,,,,,,,,,,,,,,R_10kpEEzjRy8xPwe,1,2024-05-22_10h51.49.194,interaction task,2021.2.3,MacIntel,58.82352941,120226,,,,,,,,,,,,,,,,,Smaller,Greater,,0.315646259,-0.482608696,1,0,0,RightButton,"[""RightButton""]",,,,2.030612245,3.674,space,1.021,,,,,,,,,,,0,41,41,41,1,2,only_sub_right.png,1,RandomDot27.png,No answer,21,,,
