choose_trial,key_resp.keys,key_resp.rt,key_resp_4.keys,key_resp_4.rt,session_trait,slider_face_judge.response,slider_face_judge.rt,key_resp_3.keys,key_resp_3.rt,face_loop.thisRepN,face_loop.thisTrialN,face_loop.thisN,face_loop.thisIndex,face_loop.ran,face_serial,image_name,isCheck,answer,check_question,participant,session,date,expName,psychopyVersion,OS,frameRate,SONAid,session.thisRepN,session.thisTrialN,session.thisN,session.thisIndex,session.ran,session_serial,slider_judge_img
"[0,1,2,3,4,5,6,7,8,9,10,11,12,13,14,15,16,17,18,19,20,21,22,23,24,25,26,27,28,29,30,31,32,33,34,35,36,37,38,39,40,41,42,43,44,45,46,47,48,49,54,59,55]",space,8.7076,space,10.6765,competent,5.984583333,11.1151,space,2.1942,0,0,0,12,1,13,image/13.jpg,0,0,,R_12tSZmx8hSuXu6d,2,2024-05-11_19h51.36.801,face trait task,2021.2.3,MacIntel,57.47126437,120748,,,,,,,
,,,,,,4.030130208,2.528,space,1.3881,0,1,1,34,1,35,image/35.jpg,0,0,,R_12tSZmx8hSuXu6d,2,2024-05-11_19h51.36.801,face trait task,2021.2.3,MacIntel,57.47126437,120748,,,,,,,
,,,,,,5.006588542,1.8791,space,0.2117,0,2,2,0,1,1,image/1.jpg,0,0,,R_12tSZmx8hSuXu6d,2,2024-05-11_19h51.36.801,face trait task,2021.2.3,MacIntel,57.47126437,120748,,,,,,,
,,,,,,5.998854167,1.6452,space,0.3195,0,3,3,17,1,18,image/18.jpg,0,0,,R_12tSZmx8hSuXu6d,2,2024-05-11_19h51.36.801,face trait task,2021.2.3,MacIntel,57.47126437,120748,,,,,,,
,,,,,,5.001979167,2.5118,space,0.2011,0,4,4,11,1,12,image/12.jpg,0,0,,R_12tSZmx8hSuXu6d,2,2024-05-11_19h51.36.801,face trait task,2021.2.3,MacIntel,57.47126437,120748,,,,,,,
,,,,,,5.590598958,5.6886,space,4.4884,0,5,5,6,1,7,image/7.jpg,0,0,,R_12tSZmx8hSuXu6d,2,2024-05-11_19h51.36.801,face trait task,2021.2.3,MacIntel,57.47126437,120748,,,,,,,
,,,,,,4.980260417,2.0782,space,0.237,0,6,6,38,1,39,image/39.jpg,0,0,,R_12tSZmx8hSuXu6d,2,2024-05-11_19h51.36.801,face trait task,2021.2.3,MacIntel,57.47126437,120748,,,,,,,
,,,,,,5.469947917,1.7625,space,28.1195,0,7,7,24,1,25,image/25.jpg,0,0,,R_12tSZmx8hSuXu6d,2,2024-05-11_19h51.36.801,face trait task,2021.2.3,MacIntel,57.47126437,120748,,,,,,,
,,,,,,5.975911458,1.5867,space,0.288,0,8,8,25,1,26,image/26.jpg,0,0,,R_12tSZmx8hSuXu6d,2,2024-05-11_19h51.36.801,face trait task,2021.2.3,MacIntel,57.47126437,120748,,,,,,,
,,,,,,5.989244792,2.824,space,0.2362,0,9,9,27,1,28,image/28.jpg,0,0,,R_12tSZmx8hSuXu6d,2,2024-05-11_19h51.36.801,face trait task,2021.2.3,MacIntel,57.47126437,120748,,,,,,,
,,,,,,6.49953125,3.8412,space,0.5644,0,10,10,44,1,45,image/45.jpg,0,0,,R_12tSZmx8hSuXu6d,2,2024-05-11_19h51.36.801,face trait task,2021.2.3,MacIntel,57.47126437,120748,,,,,,,
,,,,,,5.005,2.0119,space,0.7647,0,11,11,16,1,17,image/17.jpg,0,0,,R_12tSZmx8hSuXu6d,2,2024-05-11_19h51.36.801,face trait task,2021.2.3,MacIntel,57.47126437,120748,,,,,,,
,,,,,,6.016770833,3.7961,space,2.0449,0,12,12,48,1,49,image/49.jpg,0,0,,R_12tSZmx8hSuXu6d,2,2024-05-11_19h51.36.801,face trait task,2021.2.3,MacIntel,57.47126437,120748,,,,,,,
,,,,,,6.410989583,2.2624,space,0.564,0,13,13,20,1,21,image/21.jpg,0,0,,R_12tSZmx8hSuXu6d,2,2024-05-11_19h51.36.801,face trait task,2021.2.3,MacIntel,57.47126437,120748,,,,,,,
,,,,,,6.522473958,1.1796,space,0.21,0,14,14,26,1,27,image/27.jpg,0,0,,R_12tSZmx8hSuXu6d,2,2024-05-11_19h51.36.801,face trait task,2021.2.3,MacIntel,57.47126437,120748,,,,,,,
,,,,,,4.961276042,1.662,space,0.3023,0,15,15,13,1,14,image/14.jpg,0,0,,R_12tSZmx8hSuXu6d,2,2024-05-11_19h51.36.801,face trait task,2021.2.3,MacIntel,57.47126437,120748,,,,,,,
,,,,,,4.964609375,0.9792,space,0.4765,0,16,16,14,1,15,image/15.jpg,0,0,,R_12tSZmx8hSuXu6d,2,2024-05-11_19h51.36.801,face trait task,2021.2.3,MacIntel,57.47126437,120748,,,,,,,
,,,,,,5.382578125,1.245,space,0.3737,0,17,17,42,1,43,image/43.jpg,0,0,,R_12tSZmx8hSuXu6d,2,2024-05-11_19h51.36.801,face trait task,2021.2.3,MacIntel,57.47126437,120748,,,,,,,
,,,,,,6.675729167,1.8951,space,0.3699,0,18,18,1,1,2,image/2.jpg,0,0,,R_12tSZmx8hSuXu6d,2,2024-05-11_19h51.36.801,face trait task,2021.2.3,MacIntel,57.47126437,120748,,,,,,,
,,,,,,6.970026042,7.1713,space,1.0733,0,19,19,51,1,60,image/fill_img.png,1,7,Please move the slider all the way to the RIGHT to show that you are paying attention.,R_12tSZmx8hSuXu6d,2,2024-05-11_19h51.36.801,face trait task,2021.2.3,MacIntel,57.47126437,120748,,,,,,,
,,,,,,6.469869792,1.9266,space,0.3475,0,20,20,4,1,5,image/5.jpg,0,0,,R_12tSZmx8hSuXu6d,2,2024-05-11_19h51.36.801,face trait task,2021.2.3,MacIntel,57.47126437,120748,,,,,,,
,,,,,,4.948411458,1.8788,space,0.2972,0,21,21,41,1,42,image/42.jpg,0,0,,R_12tSZmx8hSuXu6d,2,2024-05-11_19h51.36.801,face trait task,2021.2.3,MacIntel,57.47126437,120748,,,,,,,
,,,,,,4.916744792,1.2453,space,0.2598,0,22,22,18,1,19,image/19.jpg,0,0,,R_12tSZmx8hSuXu6d,2,2024-05-11_19h51.36.801,face trait task,2021.2.3,MacIntel,57.47126437,120748,,,,,,,
,,,,,,5.014817708,1.3454,space,0.2445,0,23,23,22,1,23,image/23.jpg,0,0,,R_12tSZmx8hSuXu6d,2,2024-05-11_19h51.36.801,face trait task,2021.2.3,MacIntel,57.47126437,120748,,,,,,,
,,,,,,4.459765625,1.8455,space,0.234,0,24,24,46,1,47,image/47.jpg,0,0,,R_12tSZmx8hSuXu6d,2,2024-05-11_19h51.36.801,face trait task,2021.2.3,MacIntel,57.47126437,120748,,,,,,,
,,,,,,4.463098958,1.0794,space,0.1895,0,25,25,28,1,29,image/29.jpg,0,0,,R_12tSZmx8hSuXu6d,2,2024-05-11_19h51.36.801,face trait task,2021.2.3,MacIntel,57.47126437,120748,,,,,,,
,,,,,,4.47796875,4.8067,space,0.1608,0,26,26,37,1,38,image/38.jpg,0,0,,R_12tSZmx8hSuXu6d,2,2024-05-11_19h51.36.801,face trait task,2021.2.3,MacIntel,57.47126437,120748,,,,,,,
,,,,,,4.992395833,6.4608,space,1.7904,0,27,27,45,1,46,image/46.jpg,0,0,,R_12tSZmx8hSuXu6d,2,2024-05-11_19h51.36.801,face trait task,2021.2.3,MacIntel,57.47126437,120748,,,,,,,
,,,,,,6.997057292,2.094,space,1.6124,0,28,28,52,1,56,image/fill_img.png,1,7,Please move the slider all the way to the RIGHT to show that you are paying attention.,R_12tSZmx8hSuXu6d,2,2024-05-11_19h51.36.801,face trait task,2021.2.3,MacIntel,57.47126437,120748,,,,,,,
,,,,,,1.040911458,3.2889,space,0.3788,0,29,29,50,1,55,image/fill_img.png,1,1,Please move the slider all the way to the LEFT to show that you are paying attention.,R_12tSZmx8hSuXu6d,2,2024-05-11_19h51.36.801,face trait task,2021.2.3,MacIntel,57.47126437,120748,,,,,,,
,,,,,,4.026692708,2.8613,space,0.238,0,30,30,47,1,48,image/48.jpg,0,0,,R_12tSZmx8hSuXu6d,2,2024-05-11_19h51.36.801,face trait task,2021.2.3,MacIntel,57.47126437,120748,,,,,,,
,,,,,,4.4696875,3.5113,space,0.2268,0,31,31,31,1,32,image/32.jpg,0,0,,R_12tSZmx8hSuXu6d,2,2024-05-11_19h51.36.801,face trait task,2021.2.3,MacIntel,57.47126437,120748,,,,,,,
,,,,,,4.4696875,1.2452,space,0.3105,0,32,32,43,1,44,image/44.jpg,0,0,,R_12tSZmx8hSuXu6d,2,2024-05-11_19h51.36.801,face trait task,2021.2.3,MacIntel,57.47126437,120748,,,,,,,
,,,,,,5.001510417,2.5126,space,0.3693,0,33,33,8,1,9,image/9.jpg,0,0,,R_12tSZmx8hSuXu6d,2,2024-05-11_19h51.36.801,face trait task,2021.2.3,MacIntel,57.47126437,120748,,,,,,,
,,,,,,5.005989583,2.5958,space,0.2283,0,34,34,29,1,30,image/30.jpg,0,0,,R_12tSZmx8hSuXu6d,2,2024-05-11_19h51.36.801,face trait task,2021.2.3,MacIntel,57.47126437,120748,,,,,,,
,,,,,,5.279375,1.3625,space,0.1617,0,35,35,10,1,11,image/11.jpg,0,0,,R_12tSZmx8hSuXu6d,2,2024-05-11_19h51.36.801,face trait task,2021.2.3,MacIntel,57.47126437,120748,,,,,,,
,,,,,,5.001927083,1.6292,space,0.3513,0,36,36,5,1,6,image/6.jpg,0,0,,R_12tSZmx8hSuXu6d,2,2024-05-11_19h51.36.801,face trait task,2021.2.3,MacIntel,57.47126437,120748,,,,,,,
,,,,,,4.467786458,2.5296,space,0.2695,0,37,37,32,1,33,image/33.jpg,0,0,,R_12tSZmx8hSuXu6d,2,2024-05-11_19h51.36.801,face trait task,2021.2.3,MacIntel,57.47126437,120748,,,,,,,
,,,,,,5.004479167,2.0789,space,0.9049,0,38,38,39,1,40,image/40.jpg,0,0,,R_12tSZmx8hSuXu6d,2,2024-05-11_19h51.36.801,face trait task,2021.2.3,MacIntel,57.47126437,120748,,,,,,,
,,,,,,5.983958333,1.7458,space,1.5843,0,39,39,3,1,4,image/4.jpg,0,0,,R_12tSZmx8hSuXu6d,2,2024-05-11_19h51.36.801,face trait task,2021.2.3,MacIntel,57.47126437,120748,,,,,,,
,,,,,,5.983958333,1.062,space,2.5008,0,40,40,7,1,8,image/8.jpg,0,0,,R_12tSZmx8hSuXu6d,2,2024-05-11_19h51.36.801,face trait task,2021.2.3,MacIntel,57.47126437,120748,,,,,,,
,,,,,,6.628125,1.4453,space,1.2949,0,41,41,2,1,3,image/3.jpg,0,0,,R_12tSZmx8hSuXu6d,2,2024-05-11_19h51.36.801,face trait task,2021.2.3,MacIntel,57.47126437,120748,,,,,,,
,,,,,,6.619739583,1.629,space,0.6297,0,42,42,33,1,34,image/34.jpg,0,0,,R_12tSZmx8hSuXu6d,2,2024-05-11_19h51.36.801,face trait task,2021.2.3,MacIntel,57.47126437,120748,,,,,,,
,,,,,,5.992838542,1.7126,space,1.2589,0,43,43,23,1,24,image/24.jpg,0,0,,R_12tSZmx8hSuXu6d,2,2024-05-11_19h51.36.801,face trait task,2021.2.3,MacIntel,57.47126437,120748,,,,,,,
,,,,,,5.994635417,1.7463,space,1.5393,0,44,44,35,1,36,image/36.jpg,0,0,,R_12tSZmx8hSuXu6d,2,2024-05-11_19h51.36.801,face trait task,2021.2.3,MacIntel,57.47126437,120748,,,,,,,
,,,,,,4.978880208,2.6285,space,0.7673,0,45,45,15,1,16,image/16.jpg,0,0,,R_12tSZmx8hSuXu6d,2,2024-05-11_19h51.36.801,face trait task,2021.2.3,MacIntel,57.47126437,120748,,,,,,,
,,,,,,5.972578125,2.2787,space,1.3003,0,46,46,19,1,20,image/20.jpg,0,0,,R_12tSZmx8hSuXu6d,2,2024-05-11_19h51.36.801,face trait task,2021.2.3,MacIntel,57.47126437,120748,,,,,,,
,,,,,,3.979348958,4.3312,space,0.5451,0,47,47,40,1,41,image/41.jpg,0,0,,R_12tSZmx8hSuXu6d,2,2024-05-11_19h51.36.801,face trait task,2021.2.3,MacIntel,57.47126437,120748,,,,,,,
,,,,,,6.003828125,2.2614,space,0.8216,0,48,48,36,1,37,image/37.jpg,0,0,,R_12tSZmx8hSuXu6d,2,2024-05-11_19h51.36.801,face trait task,2021.2.3,MacIntel,57.47126437,120748,,,,,,,
,,,,,,5.591458333,1.3618,space,0.6893,0,49,49,21,1,22,image/22.jpg,0,0,,R_12tSZmx8hSuXu6d,2,2024-05-11_19h51.36.801,face trait task,2021.2.3,MacIntel,57.47126437,120748,,,,,,,
,,,,,,6.009322917,1.3788,space,0.5952,0,50,50,49,1,50,image/50.jpg,0,0,,R_12tSZmx8hSuXu6d,2,2024-05-11_19h51.36.801,face trait task,2021.2.3,MacIntel,57.47126437,120748,,,,,,,
,,,,,,2.453046875,2.3628,space,0.5938,0,51,51,30,1,31,image/31.jpg,0,0,,R_12tSZmx8hSuXu6d,2,2024-05-11_19h51.36.801,face trait task,2021.2.3,MacIntel,57.47126437,120748,,,,,,,
,,,,,,4.512760417,2.1122,space,0.4265,0,52,52,9,1,10,image/10.jpg,0,0,,R_12tSZmx8hSuXu6d,2,2024-05-11_19h51.36.801,face trait task,2021.2.3,MacIntel,57.47126437,120748,,,,,,,
,,,,,,,,,,,,,,,,,,,,R_12tSZmx8hSuXu6d,2,2024-05-11_19h51.36.801,face trait task,2021.2.3,MacIntel,57.47126437,120748,0,0,0,1,1,1,competent.png
,,,,,critical,5.450598958,8.4047,space,2.1445,0,0,0,5,1,6,image/6.jpg,0,0,,R_12tSZmx8hSuXu6d,2,2024-05-11_19h51.36.801,face trait task,2021.2.3,MacIntel,57.47126437,120748,,,,,,,
,,,,,,6.008854167,3.2721,space,0.7365,0,1,1,14,1,15,image/15.jpg,0,0,,R_12tSZmx8hSuXu6d,2,2024-05-11_19h51.36.801,face trait task,2021.2.3,MacIntel,57.47126437,120748,,,,,,,
,,,,,,2.977213542,2.3793,space,1.351,0,2,2,44,1,45,image/45.jpg,0,0,,R_12tSZmx8hSuXu6d,2,2024-05-11_19h51.36.801,face trait task,2021.2.3,MacIntel,57.47126437,120748,,,,,,,
,,,,,,5.04140625,2.0961,space,0.7513,0,3,3,16,1,17,image/17.jpg,0,0,,R_12tSZmx8hSuXu6d,2,2024-05-11_19h51.36.801,face trait task,2021.2.3,MacIntel,57.47126437,120748,,,,,,,
,,,,,,1.989322917,2.046,space,1.4785,0,4,4,2,1,3,image/3.jpg,0,0,,R_12tSZmx8hSuXu6d,2,2024-05-11_19h51.36.801,face trait task,2021.2.3,MacIntel,57.47126437,120748,,,,,,,
,,,,,,4.980260417,3.6451,space,0.7964,0,5,5,38,1,39,image/39.jpg,0,0,,R_12tSZmx8hSuXu6d,2,2024-05-11_19h51.36.801,face trait task,2021.2.3,MacIntel,57.47126437,120748,,,,,,,
,,,,,,4.443385417,2.0291,space,0.7122,0,6,6,41,1,42,image/42.jpg,0,0,,R_12tSZmx8hSuXu6d,2,2024-05-11_19h51.36.801,face trait task,2021.2.3,MacIntel,57.47126437,120748,,,,,,,
,,,,,,5.98984375,2.1284,space,0.545,0,7,7,39,1,40,image/40.jpg,0,0,,R_12tSZmx8hSuXu6d,2,2024-05-11_19h51.36.801,face trait task,2021.2.3,MacIntel,57.47126437,120748,,,,,,,
,,,,,,1.996666667,2.6609,space,0.8955,0,8,8,22,1,23,image/23.jpg,0,0,,R_12tSZmx8hSuXu6d,2,2024-05-11_19h51.36.801,face trait task,2021.2.3,MacIntel,57.47126437,120748,,,,,,,
,,,,,,4.019166667,2.4448,space,0.7395,0,9,9,42,1,43,image/43.jpg,0,0,,R_12tSZmx8hSuXu6d,2,2024-05-11_19h51.36.801,face trait task,2021.2.3,MacIntel,57.47126437,120748,,,,,,,
,,,,,,4.005364583,1.8288,space,2.1278,0,10,10,12,1,13,image/13.jpg,0,0,,R_12tSZmx8hSuXu6d,2,2024-05-11_19h51.36.801,face trait task,2021.2.3,MacIntel,57.47126437,120748,,,,,,,
,,,,,,5.979453125,5.4519,space,1.976,0,11,11,27,1,28,image/28.jpg,0,0,,R_12tSZmx8hSuXu6d,2,2024-05-11_19h51.36.801,face trait task,2021.2.3,MacIntel,57.47126437,120748,,,,,,,
,,,,,,4.027578125,2.5285,space,0.2695,0,12,12,33,1,34,image/34.jpg,0,0,,R_12tSZmx8hSuXu6d,2,2024-05-11_19h51.36.801,face trait task,2021.2.3,MacIntel,57.47126437,120748,,,,,,,
,,,,,,6.998463542,5.0909,space,1.6827,0,13,13,51,1,60,image/fill_img.png,1,7,Please move the slider all the way to the RIGHT to show that you are paying attention.,R_12tSZmx8hSuXu6d,2,2024-05-11_19h51.36.801,face trait task,2021.2.3,MacIntel,57.47126437,120748,,,,,,,
,,,,,,2.982630208,2.9569,space,0.5933,0,14,14,49,1,50,image/50.jpg,0,0,,R_12tSZmx8hSuXu6d,2,2024-05-11_19h51.36.801,face trait task,2021.2.3,MacIntel,57.47126437,120748,,,,,,,
,,,,,,1.988671875,2.3625,space,0.7848,0,15,15,48,1,49,image/49.jpg,0,0,,R_12tSZmx8hSuXu6d,2,2024-05-11_19h51.36.801,face trait task,2021.2.3,MacIntel,57.47126437,120748,,,,,,,
,,,,,,4.014088542,1.8448,space,0.2463,0,16,16,19,1,20,image/20.jpg,0,0,,R_12tSZmx8hSuXu6d,2,2024-05-11_19h51.36.801,face trait task,2021.2.3,MacIntel,57.47126437,120748,,,,,,,
,,,,,,4.498671875,2.7624,space,0.3023,0,17,17,26,1,27,image/27.jpg,0,0,,R_12tSZmx8hSuXu6d,2,2024-05-11_19h51.36.801,face trait task,2021.2.3,MacIntel,57.47126437,120748,,,,,,,
,,,,,,3.434453125,1.8121,space,0.7628,0,18,18,43,1,44,image/44.jpg,0,0,,R_12tSZmx8hSuXu6d,2,2024-05-11_19h51.36.801,face trait task,2021.2.3,MacIntel,57.47126437,120748,,,,,,,
,,,,,,2.014973958,2.1969,space,0.4008,0,19,19,20,1,21,image/21.jpg,0,0,,R_12tSZmx8hSuXu6d,2,2024-05-11_19h51.36.801,face trait task,2021.2.3,MacIntel,57.47126437,120748,,,,,,,
,,,,,,6.970833333,2.7453,space,0.8003,0,20,20,52,1,56,image/fill_img.png,1,7,Please move the slider all the way to the RIGHT to show that you are paying attention.,R_12tSZmx8hSuXu6d,2,2024-05-11_19h51.36.801,face trait task,2021.2.3,MacIntel,57.47126437,120748,,,,,,,
,,,,,,5.996744792,2.0605,space,3.2273,0,21,21,15,1,16,image/16.jpg,0,0,,R_12tSZmx8hSuXu6d,2,2024-05-11_19h51.36.801,face trait task,2021.2.3,MacIntel,57.47126437,120748,,,,,,,
,,,,,,4.0103125,10.4862,space,0.3997,0,22,22,36,1,37,image/37.jpg,0,0,,R_12tSZmx8hSuXu6d,2,2024-05-11_19h51.36.801,face trait task,2021.2.3,MacIntel,57.47126437,120748,,,,,,,
,,,,,,4.558515625,1.8957,space,0.3725,0,23,23,46,1,47,image/47.jpg,0,0,,R_12tSZmx8hSuXu6d,2,2024-05-11_19h51.36.801,face trait task,2021.2.3,MacIntel,57.47126437,120748,,,,,,,
,,,,,,5.504869792,2.5285,space,0.4034,0,24,24,37,1,38,image/38.jpg,0,0,,R_12tSZmx8hSuXu6d,2,2024-05-11_19h51.36.801,face trait task,2021.2.3,MacIntel,57.47126437,120748,,,,,,,
,,,,,,6.535598958,1.9785,space,0.461,0,25,25,13,1,14,image/14.jpg,0,0,,R_12tSZmx8hSuXu6d,2,2024-05-11_19h51.36.801,face trait task,2021.2.3,MacIntel,57.47126437,120748,,,,,,,
,,,,,,5.541041667,2.0785,space,0.4287,0,26,26,40,1,41,image/41.jpg,0,0,,R_12tSZmx8hSuXu6d,2,2024-05-11_19h51.36.801,face trait task,2021.2.3,MacIntel,57.47126437,120748,,,,,,,
,,,,,,1.013984375,3.6443,space,0.5872,0,27,27,50,1,55,image/fill_img.png,1,1,Please move the slider all the way to the LEFT to show that you are paying attention.,R_12tSZmx8hSuXu6d,2,2024-05-11_19h51.36.801,face trait task,2021.2.3,MacIntel,57.47126437,120748,,,,,,,
,,,,,,6.015963542,3.4559,space,1.2364,0,28,28,21,1,22,image/22.jpg,0,0,,R_12tSZmx8hSuXu6d,2,2024-05-11_19h51.36.801,face trait task,2021.2.3,MacIntel,57.47126437,120748,,,,,,,
,,,,,,3.453307292,7.0552,space,4.6869,0,29,29,35,1,36,image/36.jpg,0,0,,R_12tSZmx8hSuXu6d,2,2024-05-11_19h51.36.801,face trait task,2021.2.3,MacIntel,57.47126437,120748,,,,,,,
,,,,,,4.032682292,1.978,space,0.2748,0,30,30,23,1,24,image/24.jpg,0,0,,R_12tSZmx8hSuXu6d,2,2024-05-11_19h51.36.801,face trait task,2021.2.3,MacIntel,57.47126437,120748,,,,,,,
,,,,,,5.448645833,3.0127,space,0.3499,0,31,31,25,1,26,image/26.jpg,0,0,,R_12tSZmx8hSuXu6d,2,2024-05-11_19h51.36.801,face trait task,2021.2.3,MacIntel,57.47126437,120748,,,,,,,
,,,,,,3.00796875,2.0121,space,0.3288,0,32,32,4,1,5,image/5.jpg,0,0,,R_12tSZmx8hSuXu6d,2,2024-05-11_19h51.36.801,face trait task,2021.2.3,MacIntel,57.47126437,120748,,,,,,,
,,,,,,4.004973958,2.0961,space,0.4327,0,33,33,9,1,10,image/10.jpg,0,0,,R_12tSZmx8hSuXu6d,2,2024-05-11_19h51.36.801,face trait task,2021.2.3,MacIntel,57.47126437,120748,,,,,,,
,,,,,,4.004973958,1.1116,space,0.2721,0,34,34,11,1,12,image/12.jpg,0,0,,R_12tSZmx8hSuXu6d,2,2024-05-11_19h51.36.801,face trait task,2021.2.3,MacIntel,57.47126437,120748,,,,,,,
,,,,,,5.523463542,1.8455,space,0.8445,0,35,35,0,1,1,image/1.jpg,0,0,,R_12tSZmx8hSuXu6d,2,2024-05-11_19h51.36.801,face trait task,2021.2.3,MacIntel,57.47126437,120748,,,,,,,
,,,,,,6.01265625,2.9959,space,0.5381,0,36,36,8,1,9,image/9.jpg,0,0,,R_12tSZmx8hSuXu6d,2,2024-05-11_19h51.36.801,face trait task,2021.2.3,MacIntel,57.47126437,120748,,,,,,,
,,,,,,4.001901042,3.3956,space,0.393,0,37,37,17,1,18,image/18.jpg,0,0,,R_12tSZmx8hSuXu6d,2,2024-05-11_19h51.36.801,face trait task,2021.2.3,MacIntel,57.47126437,120748,,,,,,,
,,,,,,4.992708333,2.7455,space,0.8343,0,38,38,3,1,4,image/4.jpg,0,0,,R_12tSZmx8hSuXu6d,2,2024-05-11_19h51.36.801,face trait task,2021.2.3,MacIntel,57.47126437,120748,,,,,,,
,,,,,,6.017083333,1.9616,space,0.8722,0,39,39,28,1,29,image/29.jpg,0,0,,R_12tSZmx8hSuXu6d,2,2024-05-11_19h51.36.801,face trait task,2021.2.3,MacIntel,57.47126437,120748,,,,,,,
,,,,,,6.485494792,1.9122,space,0.4176,0,40,40,18,1,19,image/19.jpg,0,0,,R_12tSZmx8hSuXu6d,2,2024-05-11_19h51.36.801,face trait task,2021.2.3,MacIntel,57.47126437,120748,,,,,,,
,,,,,,5.455026042,1.8128,space,0.721,0,41,41,24,1,25,image/25.jpg,0,0,,R_12tSZmx8hSuXu6d,2,2024-05-11_19h51.36.801,face trait task,2021.2.3,MacIntel,57.47126437,120748,,,,,,,
,,,,,,5.998463542,1.8122,space,0.3598,0,42,42,29,1,30,image/30.jpg,0,0,,R_12tSZmx8hSuXu6d,2,2024-05-11_19h51.36.801,face trait task,2021.2.3,MacIntel,57.47126437,120748,,,,,,,
,,,,,,6.879869792,5.1211,space,0.5148,0,43,43,30,1,31,image/31.jpg,0,0,,R_12tSZmx8hSuXu6d,2,2024-05-11_19h51.36.801,face trait task,2021.2.3,MacIntel,57.47126437,120748,,,,,,,
,,,,,,6.026822917,13.7749,space,0.9559,0,44,44,32,1,33,image/33.jpg,0,0,,R_12tSZmx8hSuXu6d,2,2024-05-11_19h51.36.801,face trait task,2021.2.3,MacIntel,57.47126437,120748,,,,,,,
,,,,,,4.502838542,2.1949,space,0.6366,0,45,45,7,1,8,image/8.jpg,0,0,,R_12tSZmx8hSuXu6d,2,2024-05-11_19h51.36.801,face trait task,2021.2.3,MacIntel,57.47126437,120748,,,,,,,
,,,,,,4.023541667,2.3115,space,0.3261,0,46,46,1,1,2,image/2.jpg,0,0,,R_12tSZmx8hSuXu6d,2,2024-05-11_19h51.36.801,face trait task,2021.2.3,MacIntel,57.47126437,120748,,,,,,,
,,,,,,3.99828125,7.6614,space,0.6213,0,47,47,31,1,32,image/32.jpg,0,0,,R_12tSZmx8hSuXu6d,2,2024-05-11_19h51.36.801,face trait task,2021.2.3,MacIntel,57.47126437,120748,,,,,,,
,,,,,,4.36609375,2.2622,space,0.6379,0,48,48,6,1,7,image/7.jpg,0,0,,R_12tSZmx8hSuXu6d,2,2024-05-11_19h51.36.801,face trait task,2021.2.3,MacIntel,57.47126437,120748,,,,,,,
,,,,,,6.541223958,2.5959,space,0.3523,0,49,49,45,1,46,image/46.jpg,0,0,,R_12tSZmx8hSuXu6d,2,2024-05-11_19h51.36.801,face trait task,2021.2.3,MacIntel,57.47126437,120748,,,,,,,
,,,,,,5.516979167,2.0955,space,0.3293,0,50,50,34,1,35,image/35.jpg,0,0,,R_12tSZmx8hSuXu6d,2,2024-05-11_19h51.36.801,face trait task,2021.2.3,MacIntel,57.47126437,120748,,,,,,,
,,,,,,5.020911458,3.6457,space,0.3703,0,51,51,10,1,11,image/11.jpg,0,0,,R_12tSZmx8hSuXu6d,2,2024-05-11_19h51.36.801,face trait task,2021.2.3,MacIntel,57.47126437,120748,,,,,,,
,,,,,,4.517239583,1.9621,space,0.3436,0,52,52,47,1,48,image/48.jpg,0,0,,R_12tSZmx8hSuXu6d,2,2024-05-11_19h51.36.801,face trait task,2021.2.3,MacIntel,57.47126437,120748,,,,,,,
,,,,,,,,,,,,,,,,,,,,R_12tSZmx8hSuXu6d,2,2024-05-11_19h51.36.801,face trait task,2021.2.3,MacIntel,57.47126437,120748,0,1,1,0,1,0,critical.png
,,,,,trustworthy,6.986640625,2.895,space,0.5452,0,0,0,51,1,60,image/fill_img.png,1,7,Please move the slider all the way to the RIGHT to show that you are paying attention.,R_12tSZmx8hSuXu6d,2,2024-05-11_19h51.36.801,face trait task,2021.2.3,MacIntel,57.47126437,120748,,,,,,,
,,,,,,1.0603125,3.9367,space,0.7121,0,1,1,30,1,31,image/31.jpg,0,0,,R_12tSZmx8hSuXu6d,2,2024-05-11_19h51.36.801,face trait task,2021.2.3,MacIntel,57.47126437,120748,,,,,,,
,,,,,,3.952421875,5.2126,space,0.8493,0,2,2,14,1,15,image/15.jpg,0,0,,R_12tSZmx8hSuXu6d,2,2024-05-11_19h51.36.801,face trait task,2021.2.3,MacIntel,57.47126437,120748,,,,,,,
,,,,,,2.4325,4.1734,space,0.7258,0,3,3,45,1,46,image/46.jpg,0,0,,R_12tSZmx8hSuXu6d,2,2024-05-11_19h51.36.801,face trait task,2021.2.3,MacIntel,57.47126437,120748,,,,,,,
,,,,,,6.023567708,6.158,space,3.4375,0,4,4,4,1,5,image/5.jpg,0,0,,R_12tSZmx8hSuXu6d,2,2024-05-11_19h51.36.801,face trait task,2021.2.3,MacIntel,57.47126437,120748,,,,,,,
,,,,,,6.562630208,1.8117,space,0.3943,0,5,5,35,1,36,image/36.jpg,0,0,,R_12tSZmx8hSuXu6d,2,2024-05-11_19h51.36.801,face trait task,2021.2.3,MacIntel,57.47126437,120748,,,,,,,
,,,,,,3.480703125,4.412,space,2.9172,0,6,6,32,1,33,image/33.jpg,0,0,,R_12tSZmx8hSuXu6d,2,2024-05-11_19h51.36.801,face trait task,2021.2.3,MacIntel,57.47126437,120748,,,,,,,
,,,,,,3.969713542,4.4955,space,0.4337,0,7,7,7,1,8,image/8.jpg,0,0,,R_12tSZmx8hSuXu6d,2,2024-05-11_19h51.36.801,face trait task,2021.2.3,MacIntel,57.47126437,120748,,,,,,,
,,,,,,5.51984375,4.996,space,3.8961,0,8,8,19,1,20,image/20.jpg,0,0,,R_12tSZmx8hSuXu6d,2,2024-05-11_19h51.36.801,face trait task,2021.2.3,MacIntel,57.47126437,120748,,,,,,,
,,,,,,2.464895833,3.324,space,0.4463,0,9,9,37,1,38,image/38.jpg,0,0,,R_12tSZmx8hSuXu6d,2,2024-05-11_19h51.36.801,face trait task,2021.2.3,MacIntel,57.47126437,120748,,,,,,,
,,,,,,4.025260417,3.1291,space,1.5838,0,10,10,10,1,11,image/11.jpg,0,0,,R_12tSZmx8hSuXu6d,2,2024-05-11_19h51.36.801,face trait task,2021.2.3,MacIntel,57.47126437,120748,,,,,,,
,,,,,,1.481432292,3.0456,space,1.6502,0,11,11,40,1,41,image/41.jpg,0,0,,R_12tSZmx8hSuXu6d,2,2024-05-11_19h51.36.801,face trait task,2021.2.3,MacIntel,57.47126437,120748,,,,,,,
,,,,,,1.983802083,1.7863,space,0.6708,0,12,12,25,1,26,image/26.jpg,0,0,,R_12tSZmx8hSuXu6d,2,2024-05-11_19h51.36.801,face trait task,2021.2.3,MacIntel,57.47126437,120748,,,,,,,
,,,,,,1.478151042,2.1461,space,0.461,0,13,13,28,1,29,image/29.jpg,0,0,,R_12tSZmx8hSuXu6d,2,2024-05-11_19h51.36.801,face trait task,2021.2.3,MacIntel,57.47126437,120748,,,,,,,
,,,,,,5.004713542,1.8294,space,0.4932,0,14,14,21,1,22,image/22.jpg,0,0,,R_12tSZmx8hSuXu6d,2,2024-05-11_19h51.36.801,face trait task,2021.2.3,MacIntel,57.47126437,120748,,,,,,,
,,,,,,4.006979167,2.6787,space,0.4016,0,15,15,13,1,14,image/14.jpg,0,0,,R_12tSZmx8hSuXu6d,2,2024-05-11_19h51.36.801,face trait task,2021.2.3,MacIntel,57.47126437,120748,,,,,,,
,,,,,,1.025885417,2.3435,space,0.6289,0,16,16,50,1,55,image/fill_img.png,1,1,Please move the slider all the way to the LEFT to show that you are paying attention.,R_12tSZmx8hSuXu6d,2,2024-05-11_19h51.36.801,face trait task,2021.2.3,MacIntel,57.47126437,120748,,,,,,,
,,,,,,5.514427083,2.6775,space,0.4383,0,17,17,48,1,49,image/49.jpg,0,0,,R_12tSZmx8hSuXu6d,2,2024-05-11_19h51.36.801,face trait task,2021.2.3,MacIntel,57.47126437,120748,,,,,,,
,,,,,,3.958619792,5.5945,space,0.6334,0,18,18,5,1,6,image/6.jpg,0,0,,R_12tSZmx8hSuXu6d,2,2024-05-11_19h51.36.801,face trait task,2021.2.3,MacIntel,57.47126437,120748,,,,,,,
,,,,,,6.028489583,8.9888,space,0.4543,0,19,19,3,1,4,image/4.jpg,0,0,,R_12tSZmx8hSuXu6d,2,2024-05-11_19h51.36.801,face trait task,2021.2.3,MacIntel,57.47126437,120748,,,,,,,
,,,,,,4.456276042,2.5622,space,0.5042,0,20,20,41,1,42,image/42.jpg,0,0,,R_12tSZmx8hSuXu6d,2,2024-05-11_19h51.36.801,face trait task,2021.2.3,MacIntel,57.47126437,120748,,,,,,,
,,,,,,5.006588542,1.8115,space,0.4024,0,21,21,6,1,7,image/7.jpg,0,0,,R_12tSZmx8hSuXu6d,2,2024-05-11_19h51.36.801,face trait task,2021.2.3,MacIntel,57.47126437,120748,,,,,,,
,,,,,,5.486536458,2.2459,space,1.0036,0,22,22,44,1,45,image/45.jpg,0,0,,R_12tSZmx8hSuXu6d,2,2024-05-11_19h51.36.801,face trait task,2021.2.3,MacIntel,57.47126437,120748,,,,,,,
,,,,,,3.494296875,2.363,space,0.2957,0,23,23,27,1,28,image/28.jpg,0,0,,R_12tSZmx8hSuXu6d,2,2024-05-11_19h51.36.801,face trait task,2021.2.3,MacIntel,57.47126437,120748,,,,,,,
,,,,,,6.548671875,1.9121,space,0.4688,0,24,24,12,1,13,image/13.jpg,0,0,,R_12tSZmx8hSuXu6d,2,2024-05-11_19h51.36.801,face trait task,2021.2.3,MacIntel,57.47126437,120748,,,,,,,
,,,,,,6.021744792,4.2957,space,0.3783,0,25,25,11,1,12,image/12.jpg,0,0,,R_12tSZmx8hSuXu6d,2,2024-05-11_19h51.36.801,face trait task,2021.2.3,MacIntel,57.47126437,120748,,,,,,,
,,,,,,3.99734375,1.5952,space,0.6619,0,26,26,42,1,43,image/43.jpg,0,0,,R_12tSZmx8hSuXu6d,2,2024-05-11_19h51.36.801,face trait task,2021.2.3,MacIntel,57.47126437,120748,,,,,,,
,,,,,,2.982734375,3.2628,space,0.3722,0,27,27,46,1,47,image/47.jpg,0,0,,R_12tSZmx8hSuXu6d,2,2024-05-11_19h51.36.801,face trait task,2021.2.3,MacIntel,57.47126437,120748,,,,,,,
,,,,,,3.484869792,5.2548,space,0.6437,0,28,28,34,1,35,image/35.jpg,0,0,,R_12tSZmx8hSuXu6d,2,2024-05-11_19h51.36.801,face trait task,2021.2.3,MacIntel,57.47126437,120748,,,,,,,
,,,,,,3.977265625,3.195,space,0.3171,0,29,29,0,1,1,image/1.jpg,0,0,,R_12tSZmx8hSuXu6d,2,2024-05-11_19h51.36.801,face trait task,2021.2.3,MacIntel,57.47126437,120748,,,,,,,
,,,,,,5.52890625,6.3562,space,0.3291,0,30,30,2,1,3,image/3.jpg,0,0,,R_12tSZmx8hSuXu6d,2,2024-05-11_19h51.36.801,face trait task,2021.2.3,MacIntel,57.47126437,120748,,,,,,,
,,,,,,4.003723958,1.5615,space,0.402,0,31,31,26,1,27,image/27.jpg,0,0,,R_12tSZmx8hSuXu6d,2,2024-05-11_19h51.36.801,face trait task,2021.2.3,MacIntel,57.47126437,120748,,,,,,,
,,,,,,2.989739583,5.2053,space,1.488,0,32,32,18,1,19,image/19.jpg,0,0,,R_12tSZmx8hSuXu6d,2,2024-05-11_19h51.36.801,face trait task,2021.2.3,MacIntel,57.47126437,120748,,,,,,,
,,,,,,1.460208333,2.0129,space,0.4049,0,33,33,15,1,16,image/16.jpg,0,0,,R_12tSZmx8hSuXu6d,2,2024-05-11_19h51.36.801,face trait task,2021.2.3,MacIntel,57.47126437,120748,,,,,,,
,,,,,,3.547135417,5.5424,space,0.3933,0,34,34,23,1,24,image/24.jpg,0,0,,R_12tSZmx8hSuXu6d,2,2024-05-11_19h51.36.801,face trait task,2021.2.3,MacIntel,57.47126437,120748,,,,,,,
,,,,,,2.991770833,3.3625,space,0.3167,0,35,35,47,1,48,image/48.jpg,0,0,,R_12tSZmx8hSuXu6d,2,2024-05-11_19h51.36.801,face trait task,2021.2.3,MacIntel,57.47126437,120748,,,,,,,
,,,,,,4.017473958,3.1455,space,0.3693,0,36,36,8,1,9,image/9.jpg,0,0,,R_12tSZmx8hSuXu6d,2,2024-05-11_19h51.36.801,face trait task,2021.2.3,MacIntel,57.47126437,120748,,,,,,,
,,,,,,3.554244792,3.9125,space,1.9672,0,37,37,49,1,50,image/50.jpg,0,0,,R_12tSZmx8hSuXu6d,2,2024-05-11_19h51.36.801,face trait task,2021.2.3,MacIntel,57.47126437,120748,,,,,,,
,,,,,,3.971614583,2.2621,space,0.3602,0,38,38,43,1,44,image/44.jpg,0,0,,R_12tSZmx8hSuXu6d,2,2024-05-11_19h51.36.801,face trait task,2021.2.3,MacIntel,57.47126437,120748,,,,,,,
,,,,,,4.42875,2.5112,space,0.3717,0,39,39,31,1,32,image/32.jpg,0,0,,R_12tSZmx8hSuXu6d,2,2024-05-11_19h51.36.801,face trait task,2021.2.3,MacIntel,57.47126437,120748,,,,,,,
,,,,,,2.550520833,1.9457,space,0.3722,0,40,40,20,1,21,image/21.jpg,0,0,,R_12tSZmx8hSuXu6d,2,2024-05-11_19h51.36.801,face trait task,2021.2.3,MacIntel,57.47126437,120748,,,,,,,
,,,,,,1.988020833,7.9629,space,0.4706,0,41,41,38,1,39,image/39.jpg,0,0,,R_12tSZmx8hSuXu6d,2,2024-05-11_19h51.36.801,face trait task,2021.2.3,MacIntel,57.47126437,120748,,,,,,,
,,,,,,4.008880208,1.7288,space,0.3267,0,42,42,33,1,34,image/34.jpg,0,0,,R_12tSZmx8hSuXu6d,2,2024-05-11_19h51.36.801,face trait task,2021.2.3,MacIntel,57.47126437,120748,,,,,,,
,,,,,,1.48,3.9718,space,0.4383,0,43,43,29,1,30,image/30.jpg,0,0,,R_12tSZmx8hSuXu6d,2,2024-05-11_19h51.36.801,face trait task,2021.2.3,MacIntel,57.47126437,120748,,,,,,,
,,,,,,4.33953125,2.2113,space,1.5395,0,44,44,24,1,25,image/25.jpg,0,0,,R_12tSZmx8hSuXu6d,2,2024-05-11_19h51.36.801,face trait task,2021.2.3,MacIntel,57.47126437,120748,,,,,,,
,,,,,,3.512708333,1.4287,space,0.3447,0,45,45,36,1,37,image/37.jpg,0,0,,R_12tSZmx8hSuXu6d,2,2024-05-11_19h51.36.801,face trait task,2021.2.3,MacIntel,57.47126437,120748,,,,,,,
,,,,,,2.98421875,2.8952,space,1.8303,0,46,46,22,1,23,image/23.jpg,0,0,,R_12tSZmx8hSuXu6d,2,2024-05-11_19h51.36.801,face trait task,2021.2.3,MacIntel,57.47126437,120748,,,,,,,
,,,,,,3.97015625,1.8122,space,0.5939,0,47,47,17,1,18,image/18.jpg,0,0,,R_12tSZmx8hSuXu6d,2,2024-05-11_19h51.36.801,face trait task,2021.2.3,MacIntel,57.47126437,120748,,,,,,,
,,,,,,2.528203125,3.0123,space,0.3941,0,48,48,16,1,17,image/17.jpg,0,0,,R_12tSZmx8hSuXu6d,2,2024-05-11_19h51.36.801,face trait task,2021.2.3,MacIntel,57.47126437,120748,,,,,,,
,,,,,,3.5821875,2.73,space,2.2598,0,49,49,39,1,40,image/40.jpg,0,0,,R_12tSZmx8hSuXu6d,2,2024-05-11_19h51.36.801,face trait task,2021.2.3,MacIntel,57.47126437,120748,,,,,,,
,,,,,,6.970807292,5.1199,space,0.6715,0,50,50,52,1,56,image/fill_img.png,1,7,Please move the slider all the way to the RIGHT to show that you are paying attention.,R_12tSZmx8hSuXu6d,2,2024-05-11_19h51.36.801,face trait task,2021.2.3,MacIntel,57.47126437,120748,,,,,,,
,,,,,,4.995598958,3.7868,space,0.3067,0,51,51,9,1,10,image/10.jpg,0,0,,R_12tSZmx8hSuXu6d,2,2024-05-11_19h51.36.801,face trait task,2021.2.3,MacIntel,57.47126437,120748,,,,,,,
,,,,,,4.520182292,1.8785,space,0.4994,0,52,52,1,1,2,image/2.jpg,0,0,,R_12tSZmx8hSuXu6d,2,2024-05-11_19h51.36.801,face trait task,2021.2.3,MacIntel,57.47126437,120748,,,,,,,
,,,,,,,,,,,,,,,,,,,,R_12tSZmx8hSuXu6d,2,2024-05-11_19h51.36.801,face trait task,2021.2.3,MacIntel,57.47126437,120748,0,2,2,2,1,2,trustworthy.png
,,,,,friendly,1.46796875,2.6117,space,0.5104,0,0,0,39,1,40,image/40.jpg,0,0,,R_12tSZmx8hSuXu6d,2,2024-05-11_19h51.36.801,face trait task,2021.2.3,MacIntel,57.47126437,120748,,,,,,,
,,,,,,4.015677083,3.1108,space,0.4459,0,1,1,14,1,15,image/15.jpg,0,0,,R_12tSZmx8hSuXu6d,2,2024-05-11_19h51.36.801,face trait task,2021.2.3,MacIntel,57.47126437,120748,,,,,,,
,,,,,,6.564010417,2.5617,space,1.8998,0,2,2,48,1,49,image/49.jpg,0,0,,R_12tSZmx8hSuXu6d,2,2024-05-11_19h51.36.801,face trait task,2021.2.3,MacIntel,57.47126437,120748,,,,,,,
,,,,,,5.495494792,1.4849,space,0.7133,0,3,3,44,1,45,image/45.jpg,0,0,,R_12tSZmx8hSuXu6d,2,2024-05-11_19h51.36.801,face trait task,2021.2.3,MacIntel,57.47126437,120748,,,,,,,
,,,,,,4.02796875,2.4287,space,0.7935,0,4,4,32,1,33,image/33.jpg,0,0,,R_12tSZmx8hSuXu6d,2,2024-05-11_19h51.36.801,face trait task,2021.2.3,MacIntel,57.47126437,120748,,,,,,,
,,,,,,1.057239583,1.6615,space,0.8848,0,5,5,30,1,31,image/31.jpg,0,0,,R_12tSZmx8hSuXu6d,2,2024-05-11_19h51.36.801,face trait task,2021.2.3,MacIntel,57.47126437,120748,,,,,,,
,,,,,,3.436640625,1.9185,space,1.1609,0,6,6,40,1,41,image/41.jpg,0,0,,R_12tSZmx8hSuXu6d,2,2024-05-11_19h51.36.801,face trait task,2021.2.3,MacIntel,57.47126437,120748,,,,,,,
,,,,,,4.022942708,1.8784,space,0.4591,0,7,7,49,1,50,image/50.jpg,0,0,,R_12tSZmx8hSuXu6d,2,2024-05-11_19h51.36.801,face trait task,2021.2.3,MacIntel,57.47126437,120748,,,,,,,
,,,,,,3.009895833,3.9619,space,1.599,0,8,8,41,1,42,image/42.jpg,0,0,,R_12tSZmx8hSuXu6d,2,2024-05-11_19h51.36.801,face trait task,2021.2.3,MacIntel,57.47126437,120748,,,,,,,
,,,,,,4.555859375,3.6118,space,2.0948,0,9,9,22,1,23,image/23.jpg,0,0,,R_12tSZmx8hSuXu6d,2,2024-05-11_19h51.36.801,face trait task,2021.2.3,MacIntel,57.47126437,120748,,,,,,,
,,,,,,3.997942708,1.661,space,0.3335,0,10,10,19,1,20,image/20.jpg,0,0,,R_12tSZmx8hSuXu6d,2,2024-05-11_19h51.36.801,face trait task,2021.2.3,MacIntel,57.47126437,120748,,,,,,,
,,,,,,4.011744792,9.3786,space,1.1614,0,11,11,6,1,7,image/7.jpg,0,0,,R_12tSZmx8hSuXu6d,2,2024-05-11_19h51.36.801,face trait task,2021.2.3,MacIntel,57.47126437,120748,,,,,,,
,,,,,,4.982838542,5.0622,space,3.1356,0,12,12,35,1,36,image/36.jpg,0,0,,R_12tSZmx8hSuXu6d,2,2024-05-11_19h51.36.801,face trait task,2021.2.3,MacIntel,57.47126437,120748,,,,,,,
,,,,,,2.504348958,3.3282,space,0.4059,0,13,13,27,1,28,image/28.jpg,0,0,,R_12tSZmx8hSuXu6d,2,2024-05-11_19h51.36.801,face trait task,2021.2.3,MacIntel,57.47126437,120748,,,,,,,
,,,,,,4.016692708,2.963,space,0.4326,0,14,14,37,1,38,image/38.jpg,0,0,,R_12tSZmx8hSuXu6d,2,2024-05-11_19h51.36.801,face trait task,2021.2.3,MacIntel,57.47126437,120748,,,,,,,
,,,,,,3.032057292,3.1452,space,2.0015,0,15,15,17,1,18,image/18.jpg,0,0,,R_12tSZmx8hSuXu6d,2,2024-05-11_19h51.36.801,face trait task,2021.2.3,MacIntel,57.47126437,120748,,,,,,,
,,,,,,6.951979167,2.8604,space,0.7004,0,16,16,52,1,56,image/fill_img.png,1,7,Please move the slider all the way to the RIGHT to show that you are paying attention.,R_12tSZmx8hSuXu6d,2,2024-05-11_19h51.36.801,face trait task,2021.2.3,MacIntel,57.47126437,120748,,,,,,,
,,,,,,5.004973958,37.8908,space,0.3825,0,17,17,43,1,44,image/44.jpg,0,0,,R_12tSZmx8hSuXu6d,2,2024-05-11_19h51.36.801,face trait task,2021.2.3,MacIntel,57.47126437,120748,,,,,,,
,,,,,,2.9959375,2.5556,space,1.3876,0,18,18,16,1,17,image/17.jpg,0,0,,R_12tSZmx8hSuXu6d,2,2024-05-11_19h51.36.801,face trait task,2021.2.3,MacIntel,57.47126437,120748,,,,,,,
,,,,,,4.458958333,6.5881,space,0.5913,0,19,19,11,1,12,image/12.jpg,0,0,,R_12tSZmx8hSuXu6d,2,2024-05-11_19h51.36.801,face trait task,2021.2.3,MacIntel,57.47126437,120748,,,,,,,
,,,,,,6.036354167,5.4619,space,2.662,0,20,20,4,1,5,image/5.jpg,0,0,,R_12tSZmx8hSuXu6d,2,2024-05-11_19h51.36.801,face trait task,2021.2.3,MacIntel,57.47126437,120748,,,,,,,
,,,,,,4.0275,5.5283,space,0.7073,0,21,21,23,1,24,image/24.jpg,0,0,,R_12tSZmx8hSuXu6d,2,2024-05-11_19h51.36.801,face trait task,2021.2.3,MacIntel,57.47126437,120748,,,,,,,
,,,,,,4.028463542,4.862,space,2.3061,0,22,22,0,1,1,image/1.jpg,0,0,,R_12tSZmx8hSuXu6d,2,2024-05-11_19h51.36.801,face trait task,2021.2.3,MacIntel,57.47126437,120748,,,,,,,
,,,,,,6.467552083,4.8288,space,2.7055,0,23,23,2,1,3,image/3.jpg,0,0,,R_12tSZmx8hSuXu6d,2,2024-05-11_19h51.36.801,face trait task,2021.2.3,MacIntel,57.47126437,120748,,,,,,,
,,,,,,4.987421875,3.0125,space,1.8598,0,24,24,1,1,2,image/2.jpg,0,0,,R_12tSZmx8hSuXu6d,2,2024-05-11_19h51.36.801,face trait task,2021.2.3,MacIntel,57.47126437,120748,,,,,,,
,,,,,,4.5378125,3.4784,space,2.0523,0,25,25,46,1,47,image/47.jpg,0,0,,R_12tSZmx8hSuXu6d,2,2024-05-11_19h51.36.801,face trait task,2021.2.3,MacIntel,57.47126437,120748,,,,,,,
,,,,,,3.41515625,5.2109,space,3.7519,0,26,26,8,1,9,image/9.jpg,0,0,,R_12tSZmx8hSuXu6d,2,2024-05-11_19h51.36.801,face trait task,2021.2.3,MacIntel,57.47126437,120748,,,,,,,
,,,,,,5.015651042,4.3612,space,2.568,0,27,27,12,1,13,image/13.jpg,0,0,,R_12tSZmx8hSuXu6d,2,2024-05-11_19h51.36.801,face trait task,2021.2.3,MacIntel,57.47126437,120748,,,,,,,
,,,,,,3.446588542,2.6114,space,0.6131,0,28,28,42,1,43,image/43.jpg,0,0,,R_12tSZmx8hSuXu6d,2,2024-05-11_19h51.36.801,face trait task,2021.2.3,MacIntel,57.47126437,120748,,,,,,,
,,,,,,1.975494792,2.1293,space,1.1672,0,29,29,15,1,16,image/16.jpg,0,0,,R_12tSZmx8hSuXu6d,2,2024-05-11_19h51.36.801,face trait task,2021.2.3,MacIntel,57.47126437,120748,,,,,,,
,,,,,,5.024322917,4.2386,space,0.4597,0,30,30,20,1,21,image/21.jpg,0,0,,R_12tSZmx8hSuXu6d,2,2024-05-11_19h51.36.801,face trait task,2021.2.3,MacIntel,57.47126437,120748,,,,,,,
,,,,,,1.513697917,1.846,space,0.5836,0,31,31,13,1,14,image/14.jpg,0,0,,R_12tSZmx8hSuXu6d,2,2024-05-11_19h51.36.801,face trait task,2021.2.3,MacIntel,57.47126437,120748,,,,,,,
,,,,,,5.974322917,2.9281,space,1.6277,0,32,32,34,1,35,image/35.jpg,0,0,,R_12tSZmx8hSuXu6d,2,2024-05-11_19h51.36.801,face trait task,2021.2.3,MacIntel,57.47126437,120748,,,,,,,
,,,,,,4.037578125,2.4799,space,5.1534,0,33,33,9,1,10,image/10.jpg,0,0,,R_12tSZmx8hSuXu6d,2,2024-05-11_19h51.36.801,face trait task,2021.2.3,MacIntel,57.47126437,120748,,,,,,,
,,,,,,3.004947917,3.6458,space,0.3726,0,34,34,29,1,30,image/30.jpg,0,0,,R_12tSZmx8hSuXu6d,2,2024-05-11_19h51.36.801,face trait task,2021.2.3,MacIntel,57.47126437,120748,,,,,,,
,,,,,,5.021588542,4.0405,space,0.7245,0,35,35,33,1,34,image/34.jpg,0,0,,R_12tSZmx8hSuXu6d,2,2024-05-11_19h51.36.801,face trait task,2021.2.3,MacIntel,57.47126437,120748,,,,,,,
,,,,,,3.010052083,2.4945,space,0.3859,0,36,36,28,1,29,image/29.jpg,0,0,,R_12tSZmx8hSuXu6d,2,2024-05-11_19h51.36.801,face trait task,2021.2.3,MacIntel,57.47126437,120748,,,,,,,
,,,,,,4.009322917,2.0115,space,0.4039,0,37,37,25,1,26,image/26.jpg,0,0,,R_12tSZmx8hSuXu6d,2,2024-05-11_19h51.36.801,face trait task,2021.2.3,MacIntel,57.47126437,120748,,,,,,,
,,,,,,6.983020833,2.9358,space,0.5879,0,38,38,51,1,60,image/fill_img.png,1,7,Please move the slider all the way to the RIGHT to show that you are paying attention.,R_12tSZmx8hSuXu6d,2,2024-05-11_19h51.36.801,face trait task,2021.2.3,MacIntel,57.47126437,120748,,,,,,,
,,,,,,1.511145833,2.7115,space,0.3749,0,39,39,45,1,46,image/46.jpg,0,0,,R_12tSZmx8hSuXu6d,2,2024-05-11_19h51.36.801,face trait task,2021.2.3,MacIntel,57.47126437,120748,,,,,,,
,,,,,,4.021953125,8.4295,space,0.4457,0,40,40,5,1,6,image/6.jpg,0,0,,R_12tSZmx8hSuXu6d,2,2024-05-11_19h51.36.801,face trait task,2021.2.3,MacIntel,57.47126437,120748,,,,,,,
,,,,,,5.018802083,2.4115,space,0.3951,0,41,41,7,1,8,image/8.jpg,0,0,,R_12tSZmx8hSuXu6d,2,2024-05-11_19h51.36.801,face trait task,2021.2.3,MacIntel,57.47126437,120748,,,,,,,
,,,,,,3.474817708,1.7618,space,0.322,0,42,42,10,1,11,image/11.jpg,0,0,,R_12tSZmx8hSuXu6d,2,2024-05-11_19h51.36.801,face trait task,2021.2.3,MacIntel,57.47126437,120748,,,,,,,
,,,,,,1.013854167,2.4113,space,1.878,0,43,43,50,1,55,image/fill_img.png,1,1,Please move the slider all the way to the LEFT to show that you are paying attention.,R_12tSZmx8hSuXu6d,2,2024-05-11_19h51.36.801,face trait task,2021.2.3,MacIntel,57.47126437,120748,,,,,,,
,,,,,,6.003645833,8.0102,space,3.8057,0,44,44,36,1,37,image/37.jpg,0,0,,R_12tSZmx8hSuXu6d,2,2024-05-11_19h51.36.801,face trait task,2021.2.3,MacIntel,57.47126437,120748,,,,,,,
,,,,,,2.503802083,6.102,space,3.9537,0,45,45,21,1,22,image/22.jpg,0,0,,R_12tSZmx8hSuXu6d,2,2024-05-11_19h51.36.801,face trait task,2021.2.3,MacIntel,57.47126437,120748,,,,,,,
,,,,,,3.939114583,1.7798,space,0.513,0,46,46,47,1,48,image/48.jpg,0,0,,R_12tSZmx8hSuXu6d,2,2024-05-11_19h51.36.801,face trait task,2021.2.3,MacIntel,57.47126437,120748,,,,,,,
,,,,,,4.432630208,1.8462,space,0.3473,0,47,47,31,1,32,image/32.jpg,0,0,,R_12tSZmx8hSuXu6d,2,2024-05-11_19h51.36.801,face trait task,2021.2.3,MacIntel,57.47126437,120748,,,,,,,
,,,,,,6.490885417,2.5125,space,1.111,0,48,48,3,1,4,image/4.jpg,0,0,,R_12tSZmx8hSuXu6d,2,2024-05-11_19h51.36.801,face trait task,2021.2.3,MacIntel,57.47126437,120748,,,,,,,
,,,,,,2.972682292,2.7803,space,0.417,0,49,49,18,1,19,image/19.jpg,0,0,,R_12tSZmx8hSuXu6d,2,2024-05-11_19h51.36.801,face trait task,2021.2.3,MacIntel,57.47126437,120748,,,,,,,
,,,,,,2.594296875,3.1403,space,0.389,0,50,50,38,1,39,image/39.jpg,0,0,,R_12tSZmx8hSuXu6d,2,2024-05-11_19h51.36.801,face trait task,2021.2.3,MacIntel,57.47126437,120748,,,,,,,
,,,,,,4.03203125,1.2462,space,0.3171,0,51,51,24,1,25,image/25.jpg,0,0,,R_12tSZmx8hSuXu6d,2,2024-05-11_19h51.36.801,face trait task,2021.2.3,MacIntel,57.47126437,120748,,,,,,,
,,,,,,4.521588542,3.5446,space,2.1165,0,52,52,26,1,27,image/27.jpg,0,0,,R_12tSZmx8hSuXu6d,2,2024-05-11_19h51.36.801,face trait task,2021.2.3,MacIntel,57.47126437,120748,,,,,,,
,,,,,,,,,,,,,,,,,,,,R_12tSZmx8hSuXu6d,2,2024-05-11_19h51.36.801,face trait task,2021.2.3,MacIntel,57.47126437,120748,0,3,3,3,1,3,friendly.png
