chooserow,ParID,pre_instru_resp_2.keys,pre_instru_resp_2.rt,pre_instru_resp_3.keys,pre_instru_resp_3.rt,pre_instru_resp_9.keys,pre_instru_resp_9.rt,pre_instru_resp_8.keys,pre_instru_resp_8.rt,pre_instru_resp_4.keys,pre_instru_resp_4.rt,pre_instru_resp_5.keys,pre_instru_resp_5.rt,pre_instru_resp_6.keys,pre_instru_resp_6.rt,key_resp_3.keys,key_resp_3.rt,key_resp_4.keys,key_resp_4.rt,key_resp_5.keys,key_resp_5.rt,key_resp_6.keys,key_resp_6.rt,key_resp_7.keys,key_resp_7.rt,trials_2.thisRepN,trials_2.thisTrialN,trials_2.thisN,trials_2.thisIndex,trials_2.ran,participant,session,date,expName,psychopyVersion,OS,frameRate,SONAid,pre_instru_resp.keys,pre_instru_resp.rt,clicked,judge_2.x,judge_2.y,judge_2.leftButton,judge_2.midButton,judge_2.rightButton,trials.thisRepN,trials.thisTrialN,trials.thisN,trials.thisIndex,trials.ran,prac_answer,prac_dot_sti,dotlefttext,dotrighttext,judge_2.clicked_name,prac_acc,judge.x,judge.y,judge.leftButton,judge.midButton,judge.rightButton,judge.clicked_name,clicked_guilt,slider_guilt.response,slider_guilt.rt,key_guilt.keys,share_slider.response,share_slider.rt,key_share.keys,slider_apology.response,slider_apology.rt,key_apology.keys,slider_hide.response,slider_hide.rt,slider_forgiveness.response,slider_forgiveness.rt,key_forgiveness.keys,slider_mad.response,slider_mad.rt,trialseq.thisRepN,trialseq.thisTrialN,trialseq.thisN,trialseq.thisIndex,trialseq.ran,type_trial,stipic,DV,picture,answer,number,key_forgiveness.rt,key_apology.rt,key_share.rt,incompleteTrials,key_guilt.rt,trials_redo.thisRepN,trials_redo.thisTrialN,trials_redo.thisN,trials_redo.thisIndex,trials_redo.ran
"[34,91,178,186,13,129,94,47,168,193,138,173,115,65,181,64,83,166,156,136,123,78,50,118,1,124,51,52,117,98,157,100,86,201,147,133,77,146,153,182,107,60]",R_13m40r672zQl4g7,space,1.4903,space,6.8343,space,14.4109,space,14.9922,space,14.7757,space,0.1979,space,4.1461,2,9.6873,1,4.5122,3,5.7264,1,18.9234,3,6.5071,0,0,0,0,1,R_13m40r672zQl4g7,1,2024-05-07_19h54.17.167,interaction task,2021.2.3,MacIntel,58.13953488,120734,,,,,,,,,,,,,,,,,,,,,,,,,,,,,,,,,,,,,,,,,,,,,,,,,,,,,,,,,,,,,,,
,,,,space,2.1778,space,622.5625,space,96.098,space,51.6987,space,17.9729,space,23.6769,1,6.1544,1,13.0914,3,343.5213,2,4.5466,2,5.5147,1,0,1,0,1,R_13m40r672zQl4g7,1,2024-05-07_19h54.17.167,interaction task,2021.2.3,MacIntel,58.13953488,120734,,,,,,,,,,,,,,,,,,,,,,,,,,,,,,,,,,,,,,,,,,,,,,,,,,,,,,,,,,,,,,,
,,,,space,10.6532,space,411.7117,space,1.0513,space,0.9223,space,30.8259,space,1.0563,3,4.9149,1,108.1468,3,68.872,2,16.7164,2,2.7032,2,0,2,0,1,R_13m40r672zQl4g7,1,2024-05-07_19h54.17.167,interaction task,2021.2.3,MacIntel,58.13953488,120734,,,,,,,,,,,,,,,,,,,,,,,,,,,,,,,,,,,,,,,,,,,,,,,,,,,,,,,,,,,,,,,
,,,,,,,,,,,,,,,,,,,,,,,,,,,,,,,R_13m40r672zQl4g7,1,2024-05-07_19h54.17.167,interaction task,2021.2.3,MacIntel,58.13953488,120734,space,1.3125,[],-0.289724816,-0.310131836,0,0,0,0,0,0,0,1,RightButton_2,11dot1.png,Smaller,Greater,,,,,,,,,,,,,,,,,,,,,,,,,,,,,,,,,,,,,,,,,,,,,,
,,,,,,,,,,,,,,,,,,,,,,,,,,,,,,,R_13m40r672zQl4g7,1,2024-05-07_19h54.17.167,interaction task,2021.2.3,MacIntel,58.13953488,120734,,,"[""RightButton_2""]",0.282739258,-0.280325521,1,0,0,0,1,1,2,1,RightButton_2,11dot2.png,Smaller,Greater,RightButton_2,,,,,,,,,,,,,,,,,,,,,,,,,,,,,,,,,,,,,,,,,,,,,
,,,,,,,,,,,,,,,,,,,,,,,,,,,,,,,R_13m40r672zQl4g7,1,2024-05-07_19h54.17.167,interaction task,2021.2.3,MacIntel,58.13953488,120734,,,"[""LeftButton_2""]",-0.301080831,-0.307774523,1,0,0,0,2,2,1,1,RightButton_2,9dot1.png,Greater,Smaller,LeftButton_2,,,,,,,,,,,,,,,,,,,,,,,,,,,,,,,,,,,,,,,,,,,,,
,,,,,,,,,,,,,,,,,,,,,,,,,,,,,,,R_13m40r672zQl4g7,1,2024-05-07_19h54.17.167,interaction task,2021.2.3,MacIntel,58.13953488,120734,,,,,,,,,,,,,,,,Smaller,Greater,,0.2,0.249497647,-0.540815023,1,0,0,RightButton,"[""RightButton""]",,,,,,,,,,,,,,,,,0,0,0,0,1,0,both_right.png,2,RandomDot15.png,No answer,21,,,,,,,,,,
,,,,,,,,,,,,,,,,,,,,,,,,,,,,,,,R_13m40r672zQl4g7,1,2024-05-07_19h54.17.167,interaction task,2021.2.3,MacIntel,58.13953488,120734,,,,,,,,,,,,,,,,Smaller,Greater,,,-0.236518606,-0.50160536,1,0,0,LeftButton,"[""LeftButton""]",,,,,,,,,,,,100,7.4743,space,100,9.2408,0,1,1,1,1,1,both_wrong.png,3,RandomDot23.png,No answer,20,1.4081,,,,,,,,,
,,,,,,,,,,,,,,,,,,,,,,,,,,,,,,,R_13m40r672zQl4g7,1,2024-05-07_19h54.17.167,interaction task,2021.2.3,MacIntel,58.13953488,120734,,,,,,,,,,,,,,,,Smaller,Greater,,,0.306582218,-0.491616618,1,0,0,RightButton,"[""RightButton""]",,,,,,,78,2.1427,space,79,52.4144,,,,,,0,2,2,2,1,3,only_sub_wrong.png,2,RandomDot22.png,No answer,19,,1.3507,,,,,,,,
,,,,,,,,,,,,,,,,,,,,,,,,,,,,,,,R_13m40r672zQl4g7,1,2024-05-07_19h54.17.167,interaction task,2021.2.3,MacIntel,58.13953488,120734,,,,,,,,,,,,,,,,Smaller,Greater,,,-0.26679696,-0.531509874,1,0,0,LeftButton,"[""LeftButton""]",,,,,,,,,,,,50.30094579,2.5305,space,50.95460765,3.5604,0,3,3,3,1,3,only_sub_wrong.png,3,RandomDot9.png,No answer,19,5.437,,,,,,,,,
,,,,,,,,,,,,,,,,,,,,,,,,,,,,,,,R_13m40r672zQl4g7,1,2024-05-07_19h54.17.167,interaction task,2021.2.3,MacIntel,58.13953488,120734,,,,,,,,,,,,,,,,Greater,Smaller,,,0.249375831,-0.537213542,1,0,0,RightButton,"[""RightButton""]",,,,,,,,,,,,,,,,,0,4,4,4,1,0,both_right.png,1,RandomDot28.png,No answer,21,,,,,,,,,,
,,,,,,,,,,,,,,,,,,,,,,,,,,,,,,,R_13m40r672zQl4g7,1,2024-05-07_19h54.17.167,interaction task,2021.2.3,MacIntel,58.13953488,120734,,,,,,,,,,,,,,,,Smaller,Greater,,,-0.260043505,-0.533136122,1,0,0,LeftButton,"[""LeftButton""]",,,,,,,40,6.7266,space,39,7.6658,,,,,,0,5,5,5,1,2,only_sub_right.png,2,RandomDot37.png,No answer,19,,1.0214,,,,,,,,
,,,,,,,,,,,,,,,,,,,,,,,,,,,,,,,R_13m40r672zQl4g7,1,2024-05-07_19h54.17.167,interaction task,2021.2.3,MacIntel,58.13953488,120734,,,,,,,,,,,,,,,,Smaller,Greater,,,0.267914157,-0.51823839,1,0,0,RightButton,"[""RightButton""]",,,,,,,,,,,,96.51163189,1.585,space,96.26368941,2.5719,0,6,6,6,1,1,both_wrong.png,3,RandomDot25.png,No answer,21,1.8303,,,,,,,,,
,,,,,,,,,,,,,,,,,,,,,,,,,,,,,,,R_13m40r672zQl4g7,1,2024-05-07_19h54.17.167,interaction task,2021.2.3,MacIntel,58.13953488,120734,,,,,,,,,,,,,,,,Smaller,Greater,,,-0.304030779,-0.518879937,1,0,0,LeftButton,"[""LeftButton""]",,,,,,,,,,,,,,,,,0,7,7,7,1,0,both_right.png,3,RandomDot13.png,No answer,19,,,,,,,,,,
,,,,,,,,,,,,,,,,,,,,,,,,,,,,,,,R_13m40r672zQl4g7,1,2024-05-07_19h54.17.167,interaction task,2021.2.3,MacIntel,58.13953488,120734,,,,,,,,,,,,,,,,Greater,Smaller,,,0.272249095,-0.499612359,1,0,0,RightButton,"[""RightButton""]",,,,,,,50,7.8959,space,51,8.8497,,,,,,0,8,8,8,1,3,only_sub_wrong.png,2,RandomDot13.png,No answer,21,,0.8089,,,,,,,,
,,,,,,,,,,,,,,,,,,,,,,,,,,,,,,,R_13m40r672zQl4g7,1,2024-05-07_19h54.17.167,interaction task,2021.2.3,MacIntel,58.13953488,120734,,,,,,,,,,,,,,,,Greater,Smaller,,,-0.272545624,-0.527096761,1,0,0,LeftButton,"[""LeftButton""]",,,,,,,,,,,,,,,,,0,9,9,9,1,4,both_right.png,10,RandomDot41.png,LeftButton,5,,,,,,,,,,
,,,,,,,,,,,,,,,,,,,,,,,,,,,,,,,R_13m40r672zQl4g7,1,2024-05-07_19h54.17.167,interaction task,2021.2.3,MacIntel,58.13953488,120734,,,,,,,,,,,,,,,,Smaller,Greater,,,-0.281635454,-0.495665961,1,0,0,LeftButton,"[""LeftButton""]",,,,,,,,,,,,39.12228157,11.0601,space,54.80625311,15.9269,0,10,10,10,1,2,only_sub_right.png,3,RandomDot25.png,No answer,21,4.8497,,,,,,,,,
,,,,,,,,,,,,,,,,,,,,,,,,,,,,,,,R_13m40r672zQl4g7,1,2024-05-07_19h54.17.167,interaction task,2021.2.3,MacIntel,58.13953488,120734,,,,,,,,,,,,,,,,Greater,Smaller,,,-0.246836005,-0.500260959,1,0,0,LeftButton,"[""LeftButton""]",,,,,,,39,5.0041,space,2,10.0767,,,,,,0,11,11,11,1,3,only_sub_wrong.png,2,RandomDot20.png,No answer,19,,1.4284,,,,,,,,
,,,,,,,,,,,,,,,,,,,,,,,,,,,,,,,R_13m40r672zQl4g7,1,2024-05-07_19h54.17.167,interaction task,2021.2.3,MacIntel,58.13953488,120734,,,,,,,,,,,,,,,,Smaller,Greater,,,0.265747748,-0.478895399,1,0,0,RightButton,"[""RightButton""]",,,,4.936675178,89.822,space,,,,,,,,,,,0,12,12,12,1,2,only_sub_right.png,1,RandomDot14.png,No answer,20,,,86.1063,,,,,,,
,,,,,,,,,,,,,,,,,,,,,,,,,,,,,,,R_13m40r672zQl4g7,1,2024-05-07_19h54.17.167,interaction task,2021.2.3,MacIntel,58.13953488,120734,,,,,,,,,,,,,,,,Greater,Smaller,,,0.30254542,-0.485662706,1,0,0,RightButton,"[""RightButton""]",,,,4.929732429,10.1796,space,,,,,,,,,,,0,13,13,13,1,1,both_wrong.png,1,RandomDot26.png,No answer,21,,,0.7181,,,,,,,
,,,,,,,,,,,,,,,,,,,,,,,,,,,,,,,R_13m40r672zQl4g7,1,2024-05-07_19h54.17.167,interaction task,2021.2.3,MacIntel,58.13953488,120734,,,,,,,,,,,,,,,,Greater,Smaller,,,0.248323652,-0.495800781,1,0,0,RightButton,"[""RightButton""]",,,,,,,,,,,,89.95565292,3.7029,space,69.59785093,5.6788,0,14,14,14,1,3,only_sub_wrong.png,3,RandomDot3.png,No answer,19,1.5911,,,,,,,,,
,,,,,,,,,,,,,,,,,,,,,,,,,,,,,,,R_13m40r672zQl4g7,1,2024-05-07_19h54.17.167,interaction task,2021.2.3,MacIntel,58.13953488,120734,,,,,,,,,,,,,,,,Greater,Smaller,,,0.234918637,-0.534442546,1,0,0,RightButton,"[""RightButton""]",,,,4.725828383,5.5498,space,,,,,,,,,,,0,15,15,15,1,1,both_wrong.png,1,RandomDot6.png,No answer,20,,,2.0379,,,,,,,
,,,,,,,,,,,,,,,,,,,,,,,,,,,,,,,R_13m40r672zQl4g7,1,2024-05-07_19h54.17.167,interaction task,2021.2.3,MacIntel,58.13953488,120734,,,,,,,,,,,,,,,,Smaller,Greater,,,0.208411577,-0.073661024,0,0,0,,[],,,,,,,,,,,,,,,,,0,16,16,16,1,1,both_wrong.png,2,RandomDot8.png,No answer,20,,,,83,,,,,,
,,,,,,,,,,,,,,,,,,,,,,,,,,,,,,,R_13m40r672zQl4g7,1,2024-05-07_19h54.17.167,interaction task,2021.2.3,MacIntel,58.13953488,120734,,,,,,,,,,,,,,,,Smaller,Greater,,,0.231114536,-0.518297797,1,0,0,RightButton,"[""RightButton""]",,,,4.417344835,3.8543,space,,,,,,,,,,,0,17,17,17,1,3,only_sub_wrong.png,1,RandomDot15.png,No answer,20,,,1.0714,,,,,,,
,,,,,,,,,,,,,,,,,,,,,,,,,,,,,,,R_13m40r672zQl4g7,1,2024-05-07_19h54.17.167,interaction task,2021.2.3,MacIntel,58.13953488,120734,,,,,,,,,,,,,,,,Greater,Smaller,,,0.283420139,-0.494417996,1,0,0,RightButton,"[""RightButton""]",,,,4.683671739,3.1462,space,,,,,,,,,,,0,18,18,18,1,3,only_sub_wrong.png,1,RandomDot4.png,No answer,20,,,0.8205,,,,,,,
,,,,,,,,,,,,,,,,,,,,,,,,,,,,,,,R_13m40r672zQl4g7,1,2024-05-07_19h54.17.167,interaction task,2021.2.3,MacIntel,58.13953488,120734,,,,,,,,,,,,,,,,Greater,Smaller,,,0.277645026,-0.529527181,1,0,0,RightButton,"[""RightButton""]",,,,,,,,,,,,81.12387952,1.5254,space,53.6262144,2.7954,0,19,19,19,1,2,only_sub_right.png,3,RandomDot10.png,No answer,19,2.6698,,,,,,,,,
,,,,,,,,,,,,,,,,,,,,,,,,,,,,,,,R_13m40r672zQl4g7,1,2024-05-07_19h54.17.167,interaction task,2021.2.3,MacIntel,58.13953488,120734,,,,,,,,,,,,,,,,Greater,Smaller,,,0.292333561,-0.48861518,1,0,0,RightButton,"[""RightButton""]",,,,,,,81,1.4607,space,20,4.06,,,,,,0,20,20,20,1,2,only_sub_right.png,2,RandomDot16.png,No answer,20,,0.7912,,,,,,,,
,,,,,,,,,,,,,,,,,,,,,,,,,,,,,,,R_13m40r672zQl4g7,1,2024-05-07_19h54.17.167,interaction task,2021.2.3,MacIntel,58.13953488,120734,,,,,,,,,,,,,,,,Smaller,Greater,,,0.269424862,-0.52322998,1,0,0,RightButton,"[""RightButton""]",,,,,,,88,2.9786,space,17,6.1817,,,,,,0,21,21,21,1,1,both_wrong.png,2,RandomDot19.png,No answer,19,,0.767,,,,,,,,
,,,,,,,,,,,,,,,,,,,,,,,,,,,,,,,R_13m40r672zQl4g7,1,2024-05-07_19h54.17.167,interaction task,2021.2.3,MacIntel,58.13953488,120734,,,,,,,,,,,,,,,,Greater,Smaller,,,0.24168574,-0.533101942,1,0,0,RightButton,"[""RightButton""]",11,5.0324,space,,,,,,,,,,,,,,0,22,22,22,1,1,both_wrong.png,0,RandomDot12.png,No answer,21,,,,,1.9194,,,,,
,,,,,,,,,,,,,,,,,,,,,,,,,,,,,,,R_13m40r672zQl4g7,1,2024-05-07_19h54.17.167,interaction task,2021.2.3,MacIntel,58.13953488,120734,,,,,,,,,,,,,,,,Smaller,Greater,,,0.257956017,-0.487649197,1,0,0,RightButton,"[""RightButton""]",,,,4.449486627,2.016,space,,,,,,,,,,,0,23,23,23,1,2,only_sub_right.png,1,RandomDot34.png,No answer,19,,,0.9323,,,,,,,
,,,,,,,,,,,,,,,,,,,,,,,,,,,,,,,R_13m40r672zQl4g7,1,2024-05-07_19h54.17.167,interaction task,2021.2.3,MacIntel,58.13953488,120734,,,,,,,,,,,,,,,,Greater,Smaller,,,-0.285638343,-0.545528429,1,0,0,LeftButton,"[""LeftButton""]",,,,,,,,,,,,,,,,,0,24,24,24,1,0,both_right.png,0,RandomDot36.png,No answer,21,,,,,,,,,,
,,,,,,,,,,,,,,,,,,,,,,,,,,,,,,,R_13m40r672zQl4g7,1,2024-05-07_19h54.17.167,interaction task,2021.2.3,MacIntel,58.13953488,120734,,,,,,,,,,,,,,,,Greater,Smaller,,,-0.264213392,-0.506733127,1,0,0,LeftButton,"[""LeftButton""]",,,,,,,91,20.1794,space,12,21.6506,,,,,,0,25,25,25,1,2,only_sub_right.png,2,RandomDot20.png,No answer,20,,0.8045,,,,,,,,
,,,,,,,,,,,,,,,,,,,,,,,,,,,,,,,R_13m40r672zQl4g7,1,2024-05-07_19h54.17.167,interaction task,2021.2.3,MacIntel,58.13953488,120734,,,,,,,,,,,,,,,,Greater,Smaller,,,-0.297005505,-0.528192681,1,0,0,LeftButton,"[""LeftButton""]",85,9.7783,space,,,,,,,,,,,,,,0,26,26,26,1,1,both_wrong.png,0,RandomDot14.png,No answer,19,,,,,10.9525,,,,,
,,,,,,,,,,,,,,,,,,,,,,,,,,,,,,,R_13m40r672zQl4g7,1,2024-05-07_19h54.17.167,interaction task,2021.2.3,MacIntel,58.13953488,120734,,,,,,,,,,,,,,,,Greater,Smaller,,,0.251469591,-0.532707248,1,0,0,RightButton,"[""RightButton""]",79,5.1483,space,,,,,,,,,,,,,,0,27,27,27,1,1,both_wrong.png,0,RandomDot10.png,No answer,20,,,,,1.4242,,,,,
,,,,,,,,,,,,,,,,,,,,,,,,,,,,,,,R_13m40r672zQl4g7,1,2024-05-07_19h54.17.167,interaction task,2021.2.3,MacIntel,58.13953488,120734,,,,,,,,,,,,,,,,Smaller,Greater,,,-0.268621657,-0.525822076,1,0,0,LeftButton,"[""LeftButton""]",,,,4.863967896,3.2056,space,,,,,,,,,,,0,28,28,28,1,2,only_sub_right.png,1,RandomDot27.png,No answer,21,,,1.2681,,,,,,,
,,,,,,,,,,,,,,,,,,,,,,,,,,,,,,,R_13m40r672zQl4g7,1,2024-05-07_19h54.17.167,interaction task,2021.2.3,MacIntel,58.13953488,120734,,,,,,,,,,,,,,,,Greater,Smaller,,,-0.332958476,-0.525949978,1,0,0,LeftButton,"[""LeftButton""]",12,3.6275,space,,,,,,,,,,,,,,0,29,29,29,1,2,only_sub_right.png,0,RandomDot16.png,No answer,20,,,,,1.2391,,,,,
,,,,,,,,,,,,,,,,,,,,,,,,,,,,,,,R_13m40r672zQl4g7,1,2024-05-07_19h54.17.167,interaction task,2021.2.3,MacIntel,58.13953488,120734,,,,,,,,,,,,,,,,Greater,Smaller,,,0.236917284,-0.494441325,1,0,0,RightButton,"[""RightButton""]",,,,0.461440616,5.4716,space,,,,,,,,,,,0,30,30,30,1,3,only_sub_wrong.png,1,RandomDot8.png,No answer,21,,,6.011,,,,,,,
,,,,,,,,,,,,,,,,,,,,,,,,,,,,,,,R_13m40r672zQl4g7,1,2024-05-07_19h54.17.167,interaction task,2021.2.3,MacIntel,58.13953488,120734,,,,,,,,,,,,,,,,Greater,Smaller,,,0.311976793,-0.535545519,1,0,0,RightButton,"[""RightButton""]",10,5.785,space,,,,,,,,,,,,,,0,31,31,31,1,2,only_sub_right.png,0,RandomDot33.png,No answer,21,,,,,5.51,,,,,
,,,,,,,,,,,,,,,,,,,,,,,,,,,,,,,R_13m40r672zQl4g7,1,2024-05-07_19h54.17.167,interaction task,2021.2.3,MacIntel,58.13953488,120734,,,,,,,,,,,,,,,,Greater,Smaller,,,0.256715393,-0.52692749,1,0,0,RightButton,"[""RightButton""]",,,,,,,,,,,,82.9616902,4.1827,space,41.57488788,6.0382,0,32,32,32,1,1,both_wrong.png,3,RandomDot13.png,No answer,21,1.0591,,,,,,,,,
,,,,,,,,,,,,,,,,,,,,,,,,,,,,,,,R_13m40r672zQl4g7,1,2024-05-07_19h54.17.167,interaction task,2021.2.3,MacIntel,58.13953488,120734,,,,,,,,,,,,,,,,Smaller,Greater,,,-0.283013407,-0.497127957,1,0,0,LeftButton,"[""LeftButton""]",,,,,,,,,,,,,,,,,0,33,33,33,1,5,both_right.png,10,RandomDot42.png,LeftButton,19,,,,,,,,,,
,,,,,,,,,,,,,,,,,,,,,,,,,,,,,,,R_13m40r672zQl4g7,1,2024-05-07_19h54.17.167,interaction task,2021.2.3,MacIntel,58.13953488,120734,,,,,,,,,,,,,,,,Greater,Smaller,,,0.245502218,-0.520204264,1,0,0,RightButton,"[""RightButton""]",2,5.8488,space,,,,,,,,,,,,,,0,34,34,34,1,3,only_sub_wrong.png,0,RandomDot5.png,No answer,20,,,,,0.6101,,,,,
,,,,,,,,,,,,,,,,,,,,,,,,,,,,,,,R_13m40r672zQl4g7,1,2024-05-07_19h54.17.167,interaction task,2021.2.3,MacIntel,58.13953488,120734,,,,,,,,,,,,,,,,Greater,Smaller,,,0.227505324,-0.497259793,1,0,0,RightButton,"[""RightButton""]",,,,,,,,,,,,82.81936046,9.3075,space,17.86048624,12.3112,0,35,35,35,1,2,only_sub_right.png,3,RandomDot36.png,No answer,20,0.4513,,,,,,,,,
,,,,,,,,,,,,,,,,,,,,,,,,,,,,,,,R_13m40r672zQl4g7,1,2024-05-07_19h54.17.167,interaction task,2021.2.3,MacIntel,58.13953488,120734,,,,,,,,,,,,,,,,Greater,Smaller,,,-0.303715854,-0.52653673,1,0,0,LeftButton,"[""LeftButton""]",,,,,,,87,4.5061,space,11,6.0837,,,,,,0,36,36,36,1,1,both_wrong.png,2,RandomDot13.png,No answer,21,,0.2048,,,,,,,,
,,,,,,,,,,,,,,,,,,,,,,,,,,,,,,,R_13m40r672zQl4g7,1,2024-05-07_19h54.17.167,interaction task,2021.2.3,MacIntel,58.13953488,120734,,,,,,,,,,,,,,,,Greater,Smaller,,,0.326598273,-0.53445855,1,0,0,RightButton,"[""RightButton""]",40,5.349,space,,,,,,,,,,,,,,0,37,37,37,1,3,only_sub_wrong.png,0,RandomDot38.png,No answer,21,,,,,1.8652,,,,,
,,,,,,,,,,,,,,,,,,,,,,,,,,,,,,,R_13m40r672zQl4g7,1,2024-05-07_19h54.17.167,interaction task,2021.2.3,MacIntel,58.13953488,120734,,,,,,,,,,,,,,,,Smaller,Greater,,,0.245309618,-0.541344944,1,0,0,RightButton,"[""RightButton""]",46,1.7802,space,,,,,,,,,,,,,,0,38,38,38,1,3,only_sub_wrong.png,0,RandomDot25.png,No answer,20,,,,,0.5552,,,,,
,,,,,,,,,,,,,,,,,,,,,,,,,,,,,,,R_13m40r672zQl4g7,1,2024-05-07_19h54.17.167,interaction task,2021.2.3,MacIntel,58.13953488,120734,,,,,,,,,,,,,,,,Greater,Smaller,,,0.287282477,-0.475097249,1,0,0,RightButton,"[""RightButton""]",,,,,,,,,,,,53.25032758,8.5579,space,50.78893591,10.1131,0,39,39,39,1,3,only_sub_wrong.png,3,RandomDot8.png,No answer,21,0.7605,,,,,,,,,
,,,,,,,,,,,,,,,,,,,,,,,,,,,,,,,R_13m40r672zQl4g7,1,2024-05-07_19h54.17.167,interaction task,2021.2.3,MacIntel,58.13953488,120734,,,,,,,,,,,,,,,,Smaller,Greater,,,-0.239366659,-0.508432075,1,0,0,LeftButton,"[""LeftButton""]",48,2.089,space,,,,,,,,,,,,,,0,40,40,40,1,2,only_sub_right.png,0,RandomDot37.png,No answer,21,,,,,0.3787,,,,,
,,,,,,,,,,,,,,,,,,,,,,,,,,,,,,,R_13m40r672zQl4g7,1,2024-05-07_19h54.17.167,interaction task,2021.2.3,MacIntel,58.13953488,120734,,,,,,,,,,,,,,,,Greater,Smaller,,,-0.249761454,-0.514125298,1,0,0,LeftButton,"[""LeftButton""]",,,,4.787506104,6.2929,space,,,,,,,,,,,0,41,41,41,1,1,both_wrong.png,1,RandomDot13.png,No answer,19,,,0.755,,,,,,,
,,,,,,,,,,,,,,,,,,,,,,,,,,,,,,,R_13m40r672zQl4g7,1,2024-05-07_19h54.17.167,interaction task,2021.2.3,MacIntel,58.13953488,120734,,,,,,,,,,,,,,,,Smaller,Greater,,,0.269406637,-0.531959093,1,0,0,RightButton,"[""RightButton""]",,,,,,,54,5.3235,space,59,8.1083,,,,,,,,,,,1,both_wrong.png,2,RandomDot8.png,No answer,20,,0.3961,,,,0,0,0,0,1
