chooserow,ParID,pre_instru_resp_2.keys,pre_instru_resp_2.rt,pre_instru_resp_3.keys,pre_instru_resp_3.rt,pre_instru_resp_9.keys,pre_instru_resp_9.rt,pre_instru_resp_8.keys,pre_instru_resp_8.rt,pre_instru_resp_4.keys,pre_instru_resp_4.rt,pre_instru_resp_5.keys,pre_instru_resp_5.rt,pre_instru_resp_6.keys,pre_instru_resp_6.rt,key_resp_3.keys,key_resp_3.rt,key_resp_4.keys,key_resp_4.rt,key_resp_5.keys,key_resp_5.rt,key_resp_6.keys,key_resp_6.rt,key_resp_7.keys,key_resp_7.rt,trials_2.thisRepN,trials_2.thisTrialN,trials_2.thisN,trials_2.thisIndex,trials_2.ran,participant,session,date,expName,psychopyVersion,OS,frameRate,SONAid,pre_instru_resp.keys,pre_instru_resp.rt,clicked,judge_2.x,judge_2.y,judge_2.leftButton,judge_2.midButton,judge_2.rightButton,judge_2.clicked_name,trials.thisRepN,trials.thisTrialN,trials.thisN,trials.thisIndex,trials.ran,prac_answer,prac_dot_sti,dotlefttext,dotrighttext,prac_acc,judge.x,judge.y,judge.leftButton,judge.midButton,judge.rightButton,judge.clicked_name,clicked_guilt,slider_guilt.response,slider_guilt.rt,key_guilt.keys,share_slider.response,share_slider.rt,key_share.keys,key_share.rt,slider_apology.response,slider_apology.rt,key_apology.keys,slider_hide.response,slider_hide.rt,slider_forgiveness.response,slider_forgiveness.rt,key_forgiveness.keys,slider_mad.response,slider_mad.rt,trialseq.thisRepN,trialseq.thisTrialN,trialseq.thisN,trialseq.thisIndex,trialseq.ran,type_trial,stipic,DV,picture,answer,number,key_guilt.rt,key_apology.rt,key_forgiveness.rt
"[68,6,107,75,95,135,96,178,166,130,78,12,140,120,25,36,102,108,183,181,51,54,187,163,151,171,74,92,144,111,161,57,69,67,192,154,123,203,84,110,174,139]",R_1dEQmznFrOUMB26,space,1.9056,space,1.799,space,7.2357,space,13.1,space,69.0905,space,5.457,space,22.1489,4,6.872,2,8.9288,3,6.2892,2,5.4521,2,4.3388,0,0,0,0,1,R_1dEQmznFrOUMB26,1,2024-05-17_18h48.13.896,interaction task,2021.2.3,MacIntel,58.13953488,120760,,,,,,,,,,,,,,,,,,,,,,,,,,,,,,,,,,,,,,,,,,,,,,,,,,,,,,,,,
,,,,space,1.0929,space,5.414,space,1.0468,space,0.4621,space,2.1259,space,0.9998,3,3.5661,1,4.4488,2,2.4481,2,3.9649,2,1.5612,1,0,1,0,1,R_1dEQmznFrOUMB26,1,2024-05-17_18h48.13.896,interaction task,2021.2.3,MacIntel,58.13953488,120760,,,,,,,,,,,,,,,,,,,,,,,,,,,,,,,,,,,,,,,,,,,,,,,,,,,,,,,,,
,,,,space,1.1893,space,3.1151,space,4.4982,space,9.4273,space,4.7152,space,3.2491,3,2.1181,1,2.7498,3,2.7489,2,1.7008,2,0.8614,2,0,2,0,1,R_1dEQmznFrOUMB26,1,2024-05-17_18h48.13.896,interaction task,2021.2.3,MacIntel,58.13953488,120760,,,,,,,,,,,,,,,,,,,,,,,,,,,,,,,,,,,,,,,,,,,,,,,,,,,,,,,,,
,,,,,,,,,,,,,,,,,,,,,,,,,,,,,,,R_1dEQmznFrOUMB26,1,2024-05-17_18h48.13.896,interaction task,2021.2.3,MacIntel,58.13953488,120760,space,1.0731,"[""LeftButton_2""]",-0.225598501,-0.311951883,1,0,0,LeftButton_2,0,0,0,0,1,RightButton_2,11dot1.png,Smaller,Greater,,,,,,,,,,,,,,,,,,,,,,,,,,,,,,,,,,,,,,,
,,,,,,,,,,,,,,,,,,,,,,,,,,,,,,,R_1dEQmznFrOUMB26,1,2024-05-17_18h48.13.896,interaction task,2021.2.3,MacIntel,58.13953488,120760,,,"[""RightButton_2""]",0.253184393,-0.347243335,1,0,0,RightButton_2,0,1,1,2,1,LeftButton_2,9dot2.png,Smaller,Greater,,,,,,,,,,,,,,,,,,,,,,,,,,,,,,,,,,,,,,,
,,,,,,,,,,,,,,,,,,,,,,,,,,,,,,,R_1dEQmznFrOUMB26,1,2024-05-17_18h48.13.896,interaction task,2021.2.3,MacIntel,58.13953488,120760,,,"[""RightButton_2""]",0.303426535,-0.313428145,1,0,0,RightButton_2,0,2,2,1,1,LeftButton_2,11dot2.png,Greater,Smaller,,,,,,,,,,,,,,,,,,,,,,,,,,,,,,,,,,,,,,,
,,,,,,,,,,,,,,,,,,,,,,,,,,,,,,,R_1dEQmznFrOUMB26,1,2024-05-17_18h48.13.896,interaction task,2021.2.3,MacIntel,58.13953488,120760,,,,,,,,,,,,,,,,,Smaller,Greater,0,-0.228536184,-0.476153239,1,0,0,LeftButton,"[""LeftButton""]",,,,1.986385234,7.5017,space,1.2957,,,,,,,,,,,0,0,0,0,1,1,both_wrong.png,1,RandomDot8.png,No answer,21,,,
,,,,,,,,,,,,,,,,,,,,,,,,,,,,,,,R_1dEQmznFrOUMB26,1,2024-05-17_18h48.13.896,interaction task,2021.2.3,MacIntel,58.13953488,120760,,,,,,,,,,,,,,,,,Smaller,Greater,,-0.212865497,-0.506475094,1,0,0,LeftButton,"[""LeftButton""]",,,,,,,,,,,,,,,,,,0,1,1,1,1,0,both_right.png,0,RandomDot22.png,No answer,19,,,
,,,,,,,,,,,,,,,,,,,,,,,,,,,,,,,R_1dEQmznFrOUMB26,1,2024-05-17_18h48.13.896,interaction task,2021.2.3,MacIntel,58.13953488,120760,,,,,,,,,,,,,,,,,Smaller,Greater,,-0.255797697,-0.53112576,1,0,0,LeftButton,"[""LeftButton""]",0,7.4587,space,,,,,,,,,,,,,,,0,2,2,2,1,2,only_sub_right.png,0,RandomDot37.png,No answer,21,1.7838,,
,,,,,,,,,,,,,,,,,,,,,,,,,,,,,,,R_1dEQmznFrOUMB26,1,2024-05-17_18h48.13.896,interaction task,2021.2.3,MacIntel,58.13953488,120760,,,,,,,,,,,,,,,,,Greater,Smaller,,0.284923246,-0.532930893,1,0,0,RightButton,"[""RightButton""]",,,,,,,,50,10.821,space,50,14.4884,,,,,,0,3,3,3,1,1,both_wrong.png,2,RandomDot10.png,No answer,20,,0.4163,
,,,,,,,,,,,,,,,,,,,,,,,,,,,,,,,R_1dEQmznFrOUMB26,1,2024-05-17_18h48.13.896,interaction task,2021.2.3,MacIntel,58.13953488,120760,,,,,,,,,,,,,,,,,Smaller,Greater,,-0.289533077,-0.471622135,1,0,0,LeftButton,"[""LeftButton""]",,,,,,,,,,,,,99.97387988,9.8157,space,100,13.217,0,4,4,4,1,1,both_wrong.png,3,RandomDot12.png,No answer,19,,,0.9334
,,,,,,,,,,,,,,,,,,,,,,,,,,,,,,,R_1dEQmznFrOUMB26,1,2024-05-17_18h48.13.896,interaction task,2021.2.3,MacIntel,58.13953488,120760,,,,,,,,,,,,,,,,,Greater,Smaller,,-0.259219664,-0.525871141,1,0,0,LeftButton,"[""LeftButton""]",,,,,,,,,,,,,100,3.9289,space,100,6.5966,0,5,5,5,1,2,only_sub_right.png,3,RandomDot26.png,No answer,20,,,0.7674
,,,,,,,,,,,,,,,,,,,,,,,,,,,,,,,R_1dEQmznFrOUMB26,1,2024-05-17_18h48.13.896,interaction task,2021.2.3,MacIntel,58.13953488,120760,,,,,,,,,,,,,,,,,Greater,Smaller,,-0.252549342,-0.506957437,1,0,0,LeftButton,"[""LeftButton""]",20,4.6868,space,,,,,,,,,,,,,,,0,6,6,6,1,2,only_sub_right.png,0,RandomDot26.png,No answer,19,0.8025,,
,,,,,,,,,,,,,,,,,,,,,,,,,,,,,,,R_1dEQmznFrOUMB26,1,2024-05-17_18h48.13.896,interaction task,2021.2.3,MacIntel,58.13953488,120760,,,,,,,,,,,,,,,,,Smaller,Greater,,0.284306469,-0.538916335,1,0,0,RightButton,"[""RightButton""]",,,,,,,,94,7.507,space,21,11.3262,,,,,,0,7,7,7,1,3,only_sub_wrong.png,2,RandomDot22.png,No answer,19,,0.5841,
,,,,,,,,,,,,,,,,,,,,,,,,,,,,,,,R_1dEQmznFrOUMB26,1,2024-05-17_18h48.13.896,interaction task,2021.2.3,MacIntel,58.13953488,120760,,,,,,,,,,,,,,,,,Smaller,Greater,,-0.234183114,-0.503420253,1,0,0,LeftButton,"[""LeftButton""]",,,,4.989834613,7.0383,space,0.9715,,,,,,,,,,,0,8,8,8,1,3,only_sub_wrong.png,1,RandomDot15.png,No answer,20,,,
,,,,,,,,,,,,,,,,,,,,,,,,,,,,,,,R_1dEQmznFrOUMB26,1,2024-05-17_18h48.13.896,interaction task,2021.2.3,MacIntel,58.13953488,120760,,,,,,,,,,,,,,,,,Smaller,Greater,,-0.300986842,-0.515836939,1,0,0,LeftButton,"[""LeftButton""]",,,,,,,,5,4.7447,space,6,7.1232,,,,,,0,9,9,9,1,2,only_sub_right.png,2,RandomDot8.png,No answer,21,,0.8853,
,,,,,,,,,,,,,,,,,,,,,,,,,,,,,,,R_1dEQmznFrOUMB26,1,2024-05-17_18h48.13.896,interaction task,2021.2.3,MacIntel,58.13953488,120760,,,,,,,,,,,,,,,,,Smaller,Greater,,0.254550439,-0.499985384,1,0,0,RightButton,"[""RightButton""]",,,,,,,,71,2.2943,space,29,4.837,,,,,,0,10,10,10,1,1,both_wrong.png,2,RandomDot19.png,No answer,19,,1.0512,
,,,,,,,,,,,,,,,,,,,,,,,,,,,,,,,R_1dEQmznFrOUMB26,1,2024-05-17_18h48.13.896,interaction task,2021.2.3,MacIntel,58.13953488,120760,,,,,,,,,,,,,,,,,Greater,Smaller,,0.28380848,-0.473368803,1,0,0,RightButton,"[""RightButton""]",,,,,,,,,,,,,,,,,,0,11,11,11,1,0,both_right.png,1,RandomDot30.png,No answer,20,,,
,,,,,,,,,,,,,,,,,,,,,,,,,,,,,,,R_1dEQmznFrOUMB26,1,2024-05-17_18h48.13.896,interaction task,2021.2.3,MacIntel,58.13953488,120760,,,,,,,,,,,,,,,,,Smaller,Greater,,-0.267447917,-0.489037652,1,0,0,LeftButton,"[""LeftButton""]",,,,,,,,,,,,,88.20690457,2.9886,space,12.7206827,5.1729,0,12,12,12,1,2,only_sub_right.png,3,RandomDot8.png,No answer,19,,,0.5296
,,,,,,,,,,,,,,,,,,,,,,,,,,,,,,,R_1dEQmznFrOUMB26,1,2024-05-17_18h48.13.896,interaction task,2021.2.3,MacIntel,58.13953488,120760,,,,,,,,,,,,,,,,,Greater,Smaller,,0.25731451,-0.479303087,1,0,0,RightButton,"[""RightButton""]",,,,,,,,21,5.3156,space,22,7.8683,,,,,,0,13,13,13,1,2,only_sub_right.png,2,RandomDot21.png,No answer,21,,0.7174,
,,,,,,,,,,,,,,,,,,,,,,,,,,,,,,,R_1dEQmznFrOUMB26,1,2024-05-17_18h48.13.896,interaction task,2021.2.3,MacIntel,58.13953488,120760,,,,,,,,,,,,,,,,,Greater,Smaller,,-0.307506396,-0.47499123,1,0,0,LeftButton,"[""LeftButton""]",,,,,,,,,,,,,,,,,,0,14,14,14,1,0,both_right.png,2,RandomDot39.png,No answer,20,,,
,,,,,,,,,,,,,,,,,,,,,,,,,,,,,,,R_1dEQmznFrOUMB26,1,2024-05-17_18h48.13.896,interaction task,2021.2.3,MacIntel,58.13953488,120760,,,,,,,,,,,,,,,,,Greater,Smaller,,0.335357273,-0.461149439,1,0,0,RightButton,"[""RightButton""]",,,,,,,,,,,,,,,,,,0,15,15,15,1,0,both_right.png,3,RandomDot3.png,No answer,20,,,
,,,,,,,,,,,,,,,,,,,,,,,,,,,,,,,R_1dEQmznFrOUMB26,1,2024-05-17_18h48.13.896,interaction task,2021.2.3,MacIntel,58.13953488,120760,,,,,,,,,,,,,,,,,Smaller,Greater,,-0.265880848,-0.51992224,1,0,0,LeftButton,"[""LeftButton""]",10,3.872,space,,,,,,,,,,,,,,,0,16,16,16,1,2,only_sub_right.png,0,RandomDot16.png,No answer,21,0.6676,,
,,,,,,,,,,,,,,,,,,,,,,,,,,,,,,,R_1dEQmznFrOUMB26,1,2024-05-17_18h48.13.896,interaction task,2021.2.3,MacIntel,58.13953488,120760,,,,,,,,,,,,,,,,,Greater,Smaller,,0.25703125,-0.541013798,1,0,0,RightButton,"[""RightButton""]",,,,0.989583333,5.679,space,0.8727,,,,,,,,,,,0,17,17,17,1,2,only_sub_right.png,1,RandomDot3.png,No answer,20,,,
,,,,,,,,,,,,,,,,,,,,,,,,,,,,,,,R_1dEQmznFrOUMB26,1,2024-05-17_18h48.13.896,interaction task,2021.2.3,MacIntel,58.13953488,120760,,,,,,,,,,,,,,,,,Greater,Smaller,,0.28327394,-0.520148796,1,0,0,RightButton,"[""RightButton""]",,,,,,,,,,,,,29.63276774,3.5889,space,68.48298408,5.5478,0,18,18,18,1,3,only_sub_wrong.png,3,RandomDot17.png,No answer,19,,,0.3798
,,,,,,,,,,,,,,,,,,,,,,,,,,,,,,,R_1dEQmznFrOUMB26,1,2024-05-17_18h48.13.896,interaction task,2021.2.3,MacIntel,58.13953488,120760,,,,,,,,,,,,,,,,,Greater,Smaller,,0.27400402,-0.505831969,1,0,0,RightButton,"[""RightButton""]",,,,,,,,,,,,,49.86524603,3.3927,space,67.91720199,4.9418,0,19,19,19,1,3,only_sub_wrong.png,3,RandomDot3.png,No answer,19,,,0.8533
,,,,,,,,,,,,,,,,,,,,,,,,,,,,,,,R_1dEQmznFrOUMB26,1,2024-05-17_18h48.13.896,interaction task,2021.2.3,MacIntel,58.13953488,120760,,,,,,,,,,,,,,,,,Greater,Smaller,,-0.259365863,-0.492041335,1,0,0,LeftButton,"[""LeftButton""]",60,2.3879,space,,,,,,,,,,,,,,,0,20,20,20,1,1,both_wrong.png,0,RandomDot14.png,No answer,19,0.6514,,
,,,,,,,,,,,,,,,,,,,,,,,,,,,,,,,R_1dEQmznFrOUMB26,1,2024-05-17_18h48.13.896,interaction task,2021.2.3,MacIntel,58.13953488,120760,,,,,,,,,,,,,,,,,Smaller,Greater,,0.301781798,-0.476905987,1,0,0,RightButton,"[""RightButton""]",70,2.4392,space,,,,,,,,,,,,,,,0,21,21,21,1,1,both_wrong.png,0,RandomDot23.png,No answer,20,0.7334,,
,,,,,,,,,,,,,,,,,,,,,,,,,,,,,,,R_1dEQmznFrOUMB26,1,2024-05-17_18h48.13.896,interaction task,2021.2.3,MacIntel,58.13953488,120760,,,,,,,,,,,,,,,,,Smaller,Greater,,-0.263573648,-0.486370147,1,0,0,LeftButton,"[""LeftButton""]",,,,,,,,,,,,,39.89991287,8.4905,space,70.19002156,5.025,0,22,22,22,1,3,only_sub_wrong.png,3,RandomDot18.png,No answer,21,,,0.4346
,,,,,,,,,,,,,,,,,,,,,,,,,,,,,,,R_1dEQmznFrOUMB26,1,2024-05-17_18h48.13.896,interaction task,2021.2.3,MacIntel,58.13953488,120760,,,,,,,,,,,,,,,,,Smaller,Greater,,-0.264400585,-0.468362664,1,0,0,LeftButton,"[""LeftButton""]",,,,4.983552632,2.2701,space,1.2161,,,,,,,,,,,0,23,23,23,1,3,only_sub_wrong.png,1,RandomDot6.png,No answer,20,,,
,,,,,,,,,,,,,,,,,,,,,,,,,,,,,,,R_1dEQmznFrOUMB26,1,2024-05-17_18h48.13.896,interaction task,2021.2.3,MacIntel,58.13953488,120760,,,,,,,,,,,,,,,,,Smaller,Greater,,-0.265195541,-0.472367575,1,0,0,LeftButton,"[""LeftButton""]",100,2.727,space,,,,,,,,,,,,,,,0,24,24,24,1,3,only_sub_wrong.png,0,RandomDot26.png,No answer,19,0.7003,,
,,,,,,,,,,,,,,,,,,,,,,,,,,,,,,,R_1dEQmznFrOUMB26,1,2024-05-17_18h48.13.896,interaction task,2021.2.3,MacIntel,58.13953488,120760,,,,,,,,,,,,,,,,,Greater,Smaller,,-0.264281798,-0.529422942,1,0,0,LeftButton,"[""LeftButton""]",,,,,,,,78,5.3274,space,60,2.4589,,,,,,0,25,25,25,1,3,only_sub_wrong.png,2,RandomDot23.png,No answer,20,,0.7115,
,,,,,,,,,,,,,,,,,,,,,,,,,,,,,,,R_1dEQmznFrOUMB26,1,2024-05-17_18h48.13.896,interaction task,2021.2.3,MacIntel,58.13953488,120760,,,,,,,,,,,,,,,,,Greater,Smaller,,0.224319262,-0.517642072,1,0,0,RightButton,"[""RightButton""]",,,,,,,,50,43.1395,space,21,40.5176,,,,,,0,26,26,26,1,1,both_wrong.png,2,RandomDot16.png,No answer,20,,0.5923,
,,,,,,,,,,,,,,,,,,,,,,,,,,,,,,,R_1dEQmznFrOUMB26,1,2024-05-17_18h48.13.896,interaction task,2021.2.3,MacIntel,58.13953488,120760,,,,,,,,,,,,,,,,,Smaller,Greater,,0.296349598,-0.478396866,1,0,0,RightButton,"[""RightButton""]",,,,,,,,,,,,,80.12028177,8.4266,space,9.466743458,5.6854,0,27,27,27,1,1,both_wrong.png,3,RandomDot7.png,No answer,21,,,0.3154
,,,,,,,,,,,,,,,,,,,,,,,,,,,,,,,R_1dEQmznFrOUMB26,1,2024-05-17_18h48.13.896,interaction task,2021.2.3,MacIntel,58.13953488,120760,,,,,,,,,,,,,,,,,Greater,Smaller,,-0.328915387,-0.491412827,1,0,0,LeftButton,"[""LeftButton""]",100,2.028,space,,,,,,,,,,,,,,,0,28,28,28,1,3,only_sub_wrong.png,0,RandomDot33.png,No answer,19,0.9471,,
,,,,,,,,,,,,,,,,,,,,,,,,,,,,,,,R_1dEQmznFrOUMB26,1,2024-05-17_18h48.13.896,interaction task,2021.2.3,MacIntel,58.13953488,120760,,,,,,,,,,,,,,,,,Greater,Smaller,,-0.237655336,-0.493481057,1,0,0,LeftButton,"[""LeftButton""]",,,,1.005071272,3.7943,space,0.7692,,,,,,,,,,,0,29,29,29,1,2,only_sub_right.png,1,RandomDot4.png,No answer,19,,,
,,,,,,,,,,,,,,,,,,,,,,,,,,,,,,,R_1dEQmznFrOUMB26,1,2024-05-17_18h48.13.896,interaction task,2021.2.3,MacIntel,58.13953488,120760,,,,,,,,,,,,,,,,,Greater,Smaller,,0.230427632,-0.509208372,1,0,0,RightButton,"[""RightButton""]",,,,4.820289656,4.8506,space,0.9213,,,,,,,,,,,0,30,30,30,1,3,only_sub_wrong.png,1,RandomDot36.png,No answer,19,,,
,,,,,,,,,,,,,,,,,,,,,,,,,,,,,,,R_1dEQmznFrOUMB26,1,2024-05-17_18h48.13.896,interaction task,2021.2.3,MacIntel,58.13953488,120760,,,,,,,,,,,,,,,,,Smaller,Greater,,-0.283744518,-0.460425924,1,0,0,LeftButton,"[""LeftButton""]",33,3.8349,space,,,,,,,,,,,,,,,0,31,31,31,1,1,both_wrong.png,0,RandomDot22.png,No answer,21,0.9013,,
,,,,,,,,,,,,,,,,,,,,,,,,,,,,,,,R_1dEQmznFrOUMB26,1,2024-05-17_18h48.13.896,interaction task,2021.2.3,MacIntel,58.13953488,120760,,,,,,,,,,,,,,,,,Smaller,Greater,,-0.235361842,-0.484557706,1,0,0,LeftButton,"[""LeftButton""]",,,,2.492027595,2.6601,space,0.2524,,,,,,,,,,,0,32,32,32,1,1,both_wrong.png,1,RandomDot13.png,No answer,19,,,
,,,,,,,,,,,,,,,,,,,,,,,,,,,,,,,R_1dEQmznFrOUMB26,1,2024-05-17_18h48.13.896,interaction task,2021.2.3,MacIntel,58.13953488,120760,,,,,,,,,,,,,,,,,Smaller,Greater,,-0.226946272,-0.465812091,1,0,0,LeftButton,"[""LeftButton""]",,,,2.537326389,2.2352,space,0.4673,,,,,,,,,,,0,33,33,33,1,1,both_wrong.png,1,RandomDot17.png,No answer,20,,,
,,,,,,,,,,,,,,,,,,,,,,,,,,,,,,,R_1dEQmznFrOUMB26,1,2024-05-17_18h48.13.896,interaction task,2021.2.3,MacIntel,58.13953488,120760,,,,,,,,,,,,,,,,,Greater,Smaller,,-0.255231177,-0.516538529,1,0,0,LeftButton,"[""LeftButton""]",,,,,,,,,,,,,,,,,,0,34,34,34,1,4,both_right.png,10,RandomDot41.png,LeftButton,5,,,
,,,,,,,,,,,,,,,,,,,,,,,,,,,,,,,R_1dEQmznFrOUMB26,1,2024-05-17_18h48.13.896,interaction task,2021.2.3,MacIntel,58.13953488,120760,,,,,,,,,,,,,,,,,Smaller,Greater,,0.278362573,-0.508740645,1,0,0,RightButton,"[""RightButton""]",91,1.9776,space,,,,,,,,,,,,,,,0,35,35,35,1,3,only_sub_wrong.png,0,RandomDot25.png,No answer,21,0.5619,,
,,,,,,,,,,,,,,,,,,,,,,,,,,,,,,,R_1dEQmznFrOUMB26,1,2024-05-17_18h48.13.896,interaction task,2021.2.3,MacIntel,58.13953488,120760,,,,,,,,,,,,,,,,,Greater,Smaller,,-0.250808662,-0.499108396,1,0,0,LeftButton,"[""LeftButton""]",,,,,,,,10,3.2289,space,2,6.6175,,,,,,0,36,36,36,1,2,only_sub_right.png,2,RandomDot16.png,No answer,20,,0.7336,
,,,,,,,,,,,,,,,,,,,,,,,,,,,,,,,R_1dEQmznFrOUMB26,1,2024-05-17_18h48.13.896,interaction task,2021.2.3,MacIntel,58.13953488,120760,,,,,,,,,,,,,,,,,Smaller,Greater,,-0.291154971,-0.495140026,1,0,0,LeftButton,"[""LeftButton""]",,,,,,,,,,,,,,,,,,0,37,37,37,1,5,both_right.png,10,RandomDot42.png,LeftButton,21,,,
,,,,,,,,,,,,,,,,,,,,,,,,,,,,,,,R_1dEQmznFrOUMB26,1,2024-05-17_18h48.13.896,interaction task,2021.2.3,MacIntel,58.13953488,120760,,,,,,,,,,,,,,,,,Greater,Smaller,,-0.270230263,-0.506782039,1,0,0,LeftButton,"[""LeftButton""]",,,,,,,,,,,,,81.96115025,6.3865,space,30.66188198,3.5337,0,38,38,38,1,1,both_wrong.png,3,RandomDot6.png,No answer,20,,,0.695
,,,,,,,,,,,,,,,,,,,,,,,,,,,,,,,R_1dEQmznFrOUMB26,1,2024-05-17_18h48.13.896,interaction task,2021.2.3,MacIntel,58.13953488,120760,,,,,,,,,,,,,,,,,Greater,Smaller,,0.387276133,-0.497800222,1,0,0,RightButton,"[""RightButton""]",,,,0,7.0874,space,1.5571,,,,,,,,,,,0,39,39,39,1,2,only_sub_right.png,1,RandomDot6.png,No answer,21,,,
,,,,,,,,,,,,,,,,,,,,,,,,,,,,,,,R_1dEQmznFrOUMB26,1,2024-05-17_18h48.13.896,interaction task,2021.2.3,MacIntel,58.13953488,120760,,,,,,,,,,,,,,,,,Smaller,Greater,,-0.26232182,-0.481342084,1,0,0,LeftButton,"[""LeftButton""]",,,,,,,,75,5.4061,space,60,3.341,,,,,,0,40,40,40,1,3,only_sub_wrong.png,2,RandomDot15.png,No answer,21,,0.7828,
,,,,,,,,,,,,,,,,,,,,,,,,,,,,,,,R_1dEQmznFrOUMB26,1,2024-05-17_18h48.13.896,interaction task,2021.2.3,MacIntel,58.13953488,120760,,,,,,,,,,,,,,,,,Smaller,Greater,,0.289377741,-0.498852608,1,0,0,RightButton,"[""RightButton""]",,,,,,,,,,,,,81.08109605,5.3975,space,12.5402416,3.058,0,41,41,41,1,2,only_sub_right.png,3,RandomDot30.png,No answer,20,,,0.8715
