choose_trial,key_resp.keys,key_resp.rt,key_resp_4.keys,key_resp_4.rt,session_trait,slider_face_judge.response,slider_face_judge.rt,key_resp_3.keys,key_resp_3.rt,face_loop.thisRepN,face_loop.thisTrialN,face_loop.thisN,face_loop.thisIndex,face_loop.ran,face_serial,image_name,isCheck,answer,check_question,participant,session,date,expName,psychopyVersion,OS,frameRate,SONAid,session.thisRepN,session.thisTrialN,session.thisN,session.thisIndex,session.ran,session_serial,slider_judge_img
"[0,1,2,3,4,5,6,7,8,9,10,11,12,13,14,15,16,17,18,19,20,21,22,23,24,25,26,27,28,29,30,31,32,33,34,35,36,37,38,39,40,41,42,43,44,45,46,47,48,49,51,51,58]",space,19.5672,space,29.6716,trustworthy,3.985015445,11.0883,space,0.7182,0,0,0,0,1,1,image/1.jpg,0,0,,R_1EYAm4n1kovKRIe,2,2024-05-26_11h25.26.131,face trait task,2021.2.3,Linux x86_64,60.60606061,121505,,,,,,,
,,,,,,3.964541541,2.8754,space,0.3973,0,1,1,16,1,17,image/17.jpg,0,0,,R_1EYAm4n1kovKRIe,2,2024-05-26_11h25.26.131,face trait task,2021.2.3,Linux x86_64,60.60606061,121505,,,,,,,
,,,,,,5.03030014,2.284,space,0.3639,0,2,2,19,1,20,image/20.jpg,0,0,,R_1EYAm4n1kovKRIe,2,2024-05-26_11h25.26.131,face trait task,2021.2.3,Linux x86_64,60.60606061,121505,,,,,,,
,,,,,,5.062878503,3.0143,space,0.4327,0,3,3,6,1,7,image/7.jpg,0,0,,R_1EYAm4n1kovKRIe,2,2024-05-26_11h25.26.131,face trait task,2021.2.3,Linux x86_64,60.60606061,121505,,,,,,,
,,,,,,5.028742048,1.539,space,0.3848,0,4,4,42,1,43,image/43.jpg,0,0,,R_1EYAm4n1kovKRIe,2,2024-05-26_11h25.26.131,face trait task,2021.2.3,Linux x86_64,60.60606061,121505,,,,,,,
,,,,,,4.49625863,7.2266,space,0.2042,0,5,5,9,1,10,image/10.jpg,0,0,,R_1EYAm4n1kovKRIe,2,2024-05-26_11h25.26.131,face trait task,2021.2.3,Linux x86_64,60.60606061,121505,,,,,,,
,,,,,,3.945315891,2.8198,space,0.2585,0,6,6,31,1,32,image/32.jpg,0,0,,R_1EYAm4n1kovKRIe,2,2024-05-26_11h25.26.131,face trait task,2021.2.3,Linux x86_64,60.60606061,121505,,,,,,,
,,,,,,3.290637546,2.9307,space,0.2313,0,7,7,34,1,35,image/35.jpg,0,0,,R_1EYAm4n1kovKRIe,2,2024-05-26_11h25.26.131,face trait task,2021.2.3,Linux x86_64,60.60606061,121505,,,,,,,
,,,,,,4.29409239,2.2528,space,0.4021,0,8,8,8,1,9,image/9.jpg,0,0,,R_1EYAm4n1kovKRIe,2,2024-05-26_11h25.26.131,face trait task,2021.2.3,Linux x86_64,60.60606061,121505,,,,,,,
,,,,,,4.629159292,1.9846,space,0.3088,0,9,9,24,1,25,image/25.jpg,0,0,,R_1EYAm4n1kovKRIe,2,2024-05-26_11h25.26.131,face trait task,2021.2.3,Linux x86_64,60.60606061,121505,,,,,,,
,,,,,,4.449181027,3.1242,space,0.9796,0,10,10,32,1,33,image/33.jpg,0,0,,R_1EYAm4n1kovKRIe,2,2024-05-26_11h25.26.131,face trait task,2021.2.3,Linux x86_64,60.60606061,121505,,,,,,,
,,,,,,2.926296234,3.0952,space,1.4198,0,11,11,30,1,31,image/31.jpg,0,0,,R_1EYAm4n1kovKRIe,2,2024-05-26_11h25.26.131,face trait task,2021.2.3,Linux x86_64,60.60606061,121505,,,,,,,
,,,,,,5.329722934,4.3353,space,2.6127,0,12,12,37,1,38,image/38.jpg,0,0,,R_1EYAm4n1kovKRIe,2,2024-05-26_11h25.26.131,face trait task,2021.2.3,Linux x86_64,60.60606061,121505,,,,,,,
,,,,,,5.107042948,3.3607,space,0.2021,0,13,13,25,1,26,image/26.jpg,0,0,,R_1EYAm4n1kovKRIe,2,2024-05-26_11h25.26.131,face trait task,2021.2.3,Linux x86_64,60.60606061,121505,,,,,,,
,,,,,,6.066832648,2.6937,space,1.2245,0,14,14,35,1,36,image/36.jpg,0,0,,R_1EYAm4n1kovKRIe,2,2024-05-26_11h25.26.131,face trait task,2021.2.3,Linux x86_64,60.60606061,121505,,,,,,,
,,,,,,5.693328857,1.2912,space,0.178,0,15,15,5,1,6,image/6.jpg,0,0,,R_1EYAm4n1kovKRIe,2,2024-05-26_11h25.26.131,face trait task,2021.2.3,Linux x86_64,60.60606061,121505,,,,,,,
,,,,,,4.180949317,6.3717,space,0.2678,0,16,16,14,1,15,image/15.jpg,0,0,,R_1EYAm4n1kovKRIe,2,2024-05-26_11h25.26.131,face trait task,2021.2.3,Linux x86_64,60.60606061,121505,,,,,,,
,,,,,,4.41522344,1.9527,space,0.6929,0,17,17,17,1,18,image/18.jpg,0,0,,R_1EYAm4n1kovKRIe,2,2024-05-26_11h25.26.131,face trait task,2021.2.3,Linux x86_64,60.60606061,121505,,,,,,,
,,,,,,1.019117355,5.1343,space,0.7948,0,18,18,50,1,52,image/fill_img.png,1,1,Please move the slider all the way to the LEFT to show that you are paying attention.,R_1EYAm4n1kovKRIe,2,2024-05-26_11h25.26.131,face trait task,2021.2.3,Linux x86_64,60.60606061,121505,,,,,,,
,,,,,,3.655721876,3.5514,space,0.3526,0,19,19,36,1,37,image/37.jpg,0,0,,R_1EYAm4n1kovKRIe,2,2024-05-26_11h25.26.131,face trait task,2021.2.3,Linux x86_64,60.60606061,121505,,,,,,,
,,,,,,3.390183767,2.5492,space,0.3737,0,20,20,40,1,41,image/41.jpg,0,0,,R_1EYAm4n1kovKRIe,2,2024-05-26_11h25.26.131,face trait task,2021.2.3,Linux x86_64,60.60606061,121505,,,,,,,
,,,,,,5.048851861,2.057,space,0.34,0,21,21,44,1,45,image/45.jpg,0,0,,R_1EYAm4n1kovKRIe,2,2024-05-26_11h25.26.131,face trait task,2021.2.3,Linux x86_64,60.60606061,121505,,,,,,,
,,,,,,5.248997582,1.3363,space,0.2631,0,22,22,22,1,23,image/23.jpg,0,0,,R_1EYAm4n1kovKRIe,2,2024-05-26_11h25.26.131,face trait task,2021.2.3,Linux x86_64,60.60606061,121505,,,,,,,
,,,,,,5.0736635,2.628,space,0.3416,0,23,23,43,1,44,image/44.jpg,0,0,,R_1EYAm4n1kovKRIe,2,2024-05-26_11h25.26.131,face trait task,2021.2.3,Linux x86_64,60.60606061,121505,,,,,,,
,,,,,,4.620890299,4.0121,space,1.7717,0,24,24,45,1,46,image/46.jpg,0,0,,R_1EYAm4n1kovKRIe,2,2024-05-26_11h25.26.131,face trait task,2021.2.3,Linux x86_64,60.60606061,121505,,,,,,,
,,,,,,3.889278412,2.4734,space,0.8055,0,25,25,2,1,3,image/3.jpg,0,0,,R_1EYAm4n1kovKRIe,2,2024-05-26_11h25.26.131,face trait task,2021.2.3,Linux x86_64,60.60606061,121505,,,,,,,
,,,,,,5.55458196,1.8148,space,0.9248,0,26,26,20,1,21,image/21.jpg,0,0,,R_1EYAm4n1kovKRIe,2,2024-05-26_11h25.26.131,face trait task,2021.2.3,Linux x86_64,60.60606061,121505,,,,,,,
,,,,,,4.687469482,2.3661,space,0.3099,0,27,27,26,1,27,image/27.jpg,0,0,,R_1EYAm4n1kovKRIe,2,2024-05-26_11h25.26.131,face trait task,2021.2.3,Linux x86_64,60.60606061,121505,,,,,,,
,,,,,,5.157958561,1.5861,space,0.3562,0,28,28,48,1,49,image/49.jpg,0,0,,R_1EYAm4n1kovKRIe,2,2024-05-26_11h25.26.131,face trait task,2021.2.3,Linux x86_64,60.60606061,121505,,,,,,,
,,,,,,4.737229665,3.1274,space,0.3847,0,29,29,21,1,22,image/22.jpg,0,0,,R_1EYAm4n1kovKRIe,2,2024-05-26_11h25.26.131,face trait task,2021.2.3,Linux x86_64,60.60606061,121505,,,,,,,
,,,,,,4.841182709,1.418,space,0.5434,0,30,30,11,1,12,image/12.jpg,0,0,,R_1EYAm4n1kovKRIe,2,2024-05-26_11h25.26.131,face trait task,2021.2.3,Linux x86_64,60.60606061,121505,,,,,,,
,,,,,,5.177188026,1.7727,space,0.3504,0,31,31,49,1,50,image/50.jpg,0,0,,R_1EYAm4n1kovKRIe,2,2024-05-26_11h25.26.131,face trait task,2021.2.3,Linux x86_64,60.60606061,121505,,,,,,,
,,,,,,5.173870934,4.1721,space,0.3144,0,32,32,12,1,13,image/13.jpg,0,0,,R_1EYAm4n1kovKRIe,2,2024-05-26_11h25.26.131,face trait task,2021.2.3,Linux x86_64,60.60606061,121505,,,,,,,
,,,,,,5.480237749,1.5256,space,0.3523,0,33,33,41,1,42,image/42.jpg,0,0,,R_1EYAm4n1kovKRIe,2,2024-05-26_11h25.26.131,face trait task,2021.2.3,Linux x86_64,60.60606061,121505,,,,,,,
,,,,,,3.638468001,3.9023,space,0.4058,0,34,34,33,1,34,image/34.jpg,0,0,,R_1EYAm4n1kovKRIe,2,2024-05-26_11h25.26.131,face trait task,2021.2.3,Linux x86_64,60.60606061,121505,,,,,,,
,,,,,,5.052477519,2.098,space,1.1127,0,35,35,47,1,48,image/48.jpg,0,0,,R_1EYAm4n1kovKRIe,2,2024-05-26_11h25.26.131,face trait task,2021.2.3,Linux x86_64,60.60606061,121505,,,,,,,
,,,,,,3.780656179,1.8426,space,0.351,0,36,36,27,1,28,image/28.jpg,0,0,,R_1EYAm4n1kovKRIe,2,2024-05-26_11h25.26.131,face trait task,2021.2.3,Linux x86_64,60.60606061,121505,,,,,,,
,,,,,,6.991685655,1.9305,space,0.3491,0,37,37,52,1,59,image/fill_img.png,1,7,Please move the slider all the way to the RIGHT to show that you are paying attention.,R_1EYAm4n1kovKRIe,2,2024-05-26_11h25.26.131,face trait task,2021.2.3,Linux x86_64,60.60606061,121505,,,,,,,
,,,,,,4.225858053,4.5922,space,0.3932,0,38,38,29,1,30,image/30.jpg,0,0,,R_1EYAm4n1kovKRIe,2,2024-05-26_11h25.26.131,face trait task,2021.2.3,Linux x86_64,60.60606061,121505,,,,,,,
,,,,,,5.18088913,2.2656,space,0.3827,0,39,39,3,1,4,image/4.jpg,0,0,,R_1EYAm4n1kovKRIe,2,2024-05-26_11h25.26.131,face trait task,2021.2.3,Linux x86_64,60.60606061,121505,,,,,,,
,,,,,,4.568166945,2.9716,space,0.3763,0,40,40,38,1,39,image/39.jpg,0,0,,R_1EYAm4n1kovKRIe,2,2024-05-26_11h25.26.131,face trait task,2021.2.3,Linux x86_64,60.60606061,121505,,,,,,,
,,,,,,4.50156445,1.3017,space,0.4635,0,41,41,1,1,2,image/2.jpg,0,0,,R_1EYAm4n1kovKRIe,2,2024-05-26_11h25.26.131,face trait task,2021.2.3,Linux x86_64,60.60606061,121505,,,,,,,
,,,,,,5.076658885,3.5443,space,0.3207,0,42,42,39,1,40,image/40.jpg,0,0,,R_1EYAm4n1kovKRIe,2,2024-05-26_11h25.26.131,face trait task,2021.2.3,Linux x86_64,60.60606061,121505,,,,,,,
,,,,,,5.076658885,1.6463,space,0.3832,0,43,43,7,1,8,image/8.jpg,0,0,,R_1EYAm4n1kovKRIe,2,2024-05-26_11h25.26.131,face trait task,2021.2.3,Linux x86_64,60.60606061,121505,,,,,,,
,,,,,,4.580314212,2.5263,space,0.3206,0,44,44,28,1,29,image/29.jpg,0,0,,R_1EYAm4n1kovKRIe,2,2024-05-26_11h25.26.131,face trait task,2021.2.3,Linux x86_64,60.60606061,121505,,,,,,,
,,,,,,5.013950772,1.6367,space,0.3494,0,45,45,10,1,11,image/11.jpg,0,0,,R_1EYAm4n1kovKRIe,2,2024-05-26_11h25.26.131,face trait task,2021.2.3,Linux x86_64,60.60606061,121505,,,,,,,
,,,,,,4.97229343,5.9718,space,0.2683,0,46,46,15,1,16,image/16.jpg,0,0,,R_1EYAm4n1kovKRIe,2,2024-05-26_11h25.26.131,face trait task,2021.2.3,Linux x86_64,60.60606061,121505,,,,,,,
,,,,,,1.013574388,1.9154,space,0.342,0,47,47,51,1,52,image/fill_img.png,1,1,Please move the slider all the way to the LEFT to show that you are paying attention.,R_1EYAm4n1kovKRIe,2,2024-05-26_11h25.26.131,face trait task,2021.2.3,Linux x86_64,60.60606061,121505,,,,,,,
,,,,,,5.879077488,3.2501,space,0.5356,0,48,48,4,1,5,image/5.jpg,0,0,,R_1EYAm4n1kovKRIe,2,2024-05-26_11h25.26.131,face trait task,2021.2.3,Linux x86_64,60.60606061,121505,,,,,,,
,,,,,,5.136408912,3.7163,space,0.3226,0,49,49,13,1,14,image/14.jpg,0,0,,R_1EYAm4n1kovKRIe,2,2024-05-26_11h25.26.131,face trait task,2021.2.3,Linux x86_64,60.60606061,121505,,,,,,,
,,,,,,4.856361813,2.0661,space,0.5395,0,50,50,23,1,24,image/24.jpg,0,0,,R_1EYAm4n1kovKRIe,2,2024-05-26_11h25.26.131,face trait task,2021.2.3,Linux x86_64,60.60606061,121505,,,,,,,
,,,,,,4.781884935,3.6495,space,0.3082,0,51,51,18,1,19,image/19.jpg,0,0,,R_1EYAm4n1kovKRIe,2,2024-05-26_11h25.26.131,face trait task,2021.2.3,Linux x86_64,60.60606061,121505,,,,,,,
,,,,,,3.228262583,2.0389,space,1.5802,0,52,52,46,1,47,image/47.jpg,0,0,,R_1EYAm4n1kovKRIe,2,2024-05-26_11h25.26.131,face trait task,2021.2.3,Linux x86_64,60.60606061,121505,,,,,,,
,,,,,,,,,,,,,,,,,,,,R_1EYAm4n1kovKRIe,2,2024-05-26_11h25.26.131,face trait task,2021.2.3,Linux x86_64,60.60606061,121505,0,0,0,2,1,2,trustworthy.png
,,,,,critical,3.84947035,5.8975,space,0.3487,0,0,0,23,1,24,image/24.jpg,0,0,,R_1EYAm4n1kovKRIe,2,2024-05-26_11h25.26.131,face trait task,2021.2.3,Linux x86_64,60.60606061,121505,,,,,,,
,,,,,,5.122175005,3.5467,space,0.744,0,1,1,19,1,20,image/20.jpg,0,0,,R_1EYAm4n1kovKRIe,2,2024-05-26_11h25.26.131,face trait task,2021.2.3,Linux x86_64,60.60606061,121505,,,,,,,
,,,,,,3.516777462,3.3684,space,0.3341,0,2,2,44,1,45,image/45.jpg,0,0,,R_1EYAm4n1kovKRIe,2,2024-05-26_11h25.26.131,face trait task,2021.2.3,Linux x86_64,60.60606061,121505,,,,,,,
,,,,,,5.078136444,3.8736,space,0.7859,0,3,3,4,1,5,image/5.jpg,0,0,,R_1EYAm4n1kovKRIe,2,2024-05-26_11h25.26.131,face trait task,2021.2.3,Linux x86_64,60.60606061,121505,,,,,,,
,,,,,,3.260512882,1.6013,space,0.687,0,4,4,47,1,48,image/48.jpg,0,0,,R_1EYAm4n1kovKRIe,2,2024-05-26_11h25.26.131,face trait task,2021.2.3,Linux x86_64,60.60606061,121505,,,,,,,
,,,,,,5.587731255,2.0827,space,0.3393,0,5,5,0,1,1,image/1.jpg,0,0,,R_1EYAm4n1kovKRIe,2,2024-05-26_11h25.26.131,face trait task,2021.2.3,Linux x86_64,60.60606061,121505,,,,,,,
,,,,,,3.919592539,4.5558,space,0.4327,0,6,6,37,1,38,image/38.jpg,0,0,,R_1EYAm4n1kovKRIe,2,2024-05-26_11h25.26.131,face trait task,2021.2.3,Linux x86_64,60.60606061,121505,,,,,,,
,,,,,,2.163972431,4.3277,space,2.5362,0,7,7,48,1,49,image/49.jpg,0,0,,R_1EYAm4n1kovKRIe,2,2024-05-26_11h25.26.131,face trait task,2021.2.3,Linux x86_64,60.60606061,121505,,,,,,,
,,,,,,5.027619256,5.4923,space,1.8153,0,8,8,15,1,16,image/16.jpg,0,0,,R_1EYAm4n1kovKRIe,2,2024-05-26_11h25.26.131,face trait task,2021.2.3,Linux x86_64,60.60606061,121505,,,,,,,
,,,,,,5.752800412,2.4417,space,0.6752,0,9,9,27,1,28,image/28.jpg,0,0,,R_1EYAm4n1kovKRIe,2,2024-05-26_11h25.26.131,face trait task,2021.2.3,Linux x86_64,60.60606061,121505,,,,,,,
,,,,,,2.520025889,2.6645,space,2.2007,0,10,10,42,1,43,image/43.jpg,0,0,,R_1EYAm4n1kovKRIe,2,2024-05-26_11h25.26.131,face trait task,2021.2.3,Linux x86_64,60.60606061,121505,,,,,,,
,,,,,,2.24191157,5.0189,space,0.4441,0,11,11,7,1,8,image/8.jpg,0,0,,R_1EYAm4n1kovKRIe,2,2024-05-26_11h25.26.131,face trait task,2021.2.3,Linux x86_64,60.60606061,121505,,,,,,,
,,,,,,4.477572971,4.7877,space,0.4448,0,12,12,13,1,14,image/14.jpg,0,0,,R_1EYAm4n1kovKRIe,2,2024-05-26_11h25.26.131,face trait task,2021.2.3,Linux x86_64,60.60606061,121505,,,,,,,
,,,,,,3.331018236,1.9106,space,0.7972,0,13,13,43,1,44,image/44.jpg,0,0,,R_1EYAm4n1kovKRIe,2,2024-05-26_11h25.26.131,face trait task,2021.2.3,Linux x86_64,60.60606061,121505,,,,,,,
,,,,,,1.042801327,3.4556,space,0.4754,0,14,14,50,1,52,image/fill_img.png,1,1,Please move the slider all the way to the LEFT to show that you are paying attention.,R_1EYAm4n1kovKRIe,2,2024-05-26_11h25.26.131,face trait task,2021.2.3,Linux x86_64,60.60606061,121505,,,,,,,
,,,,,,2.884514279,2.9618,space,0.3821,0,15,15,40,1,41,image/41.jpg,0,0,,R_1EYAm4n1kovKRIe,2,2024-05-26_11h25.26.131,face trait task,2021.2.3,Linux x86_64,60.60606061,121505,,,,,,,
,,,,,,2.884514279,1.8806,space,0.6266,0,16,16,5,1,6,image/6.jpg,0,0,,R_1EYAm4n1kovKRIe,2,2024-05-26_11h25.26.131,face trait task,2021.2.3,Linux x86_64,60.60606061,121505,,,,,,,
,,,,,,3.486700694,2.4098,space,0.5869,0,17,17,14,1,15,image/15.jpg,0,0,,R_1EYAm4n1kovKRIe,2,2024-05-26_11h25.26.131,face trait task,2021.2.3,Linux x86_64,60.60606061,121505,,,,,,,
,,,,,,5.361693064,5.3341,space,4.1565,0,18,18,18,1,19,image/19.jpg,0,0,,R_1EYAm4n1kovKRIe,2,2024-05-26_11h25.26.131,face trait task,2021.2.3,Linux x86_64,60.60606061,121505,,,,,,,
,,,,,,4.247656504,2.2237,space,0.3382,0,19,19,26,1,27,image/27.jpg,0,0,,R_1EYAm4n1kovKRIe,2,2024-05-26_11h25.26.131,face trait task,2021.2.3,Linux x86_64,60.60606061,121505,,,,,,,
,,,,,,1.0220072,3.4367,space,0.3855,0,20,20,51,1,52,image/fill_img.png,1,1,Please move the slider all the way to the LEFT to show that you are paying attention.,R_1EYAm4n1kovKRIe,2,2024-05-26_11h25.26.131,face trait task,2021.2.3,Linux x86_64,60.60606061,121505,,,,,,,
,,,,,,3.505143483,1.9992,space,0.3831,0,21,21,12,1,13,image/13.jpg,0,0,,R_1EYAm4n1kovKRIe,2,2024-05-26_11h25.26.131,face trait task,2021.2.3,Linux x86_64,60.60606061,121505,,,,,,,
,,,,,,3.06839625,1.4287,space,0.4645,0,22,22,38,1,39,image/39.jpg,0,0,,R_1EYAm4n1kovKRIe,2,2024-05-26_11h25.26.131,face trait task,2021.2.3,Linux x86_64,60.60606061,121505,,,,,,,
,,,,,,4.683662838,1.8842,space,0.3784,0,23,23,17,1,18,image/18.jpg,0,0,,R_1EYAm4n1kovKRIe,2,2024-05-26_11h25.26.131,face trait task,2021.2.3,Linux x86_64,60.60606061,121505,,,,,,,
,,,,,,6.081732008,4.2546,space,0.3252,0,24,24,33,1,34,image/34.jpg,0,0,,R_1EYAm4n1kovKRIe,2,2024-05-26_11h25.26.131,face trait task,2021.2.3,Linux x86_64,60.60606061,121505,,,,,,,
,,,,,,5.110262129,3.2903,space,1.8656,0,25,25,20,1,21,image/21.jpg,0,0,,R_1EYAm4n1kovKRIe,2,2024-05-26_11h25.26.131,face trait task,2021.2.3,Linux x86_64,60.60606061,121505,,,,,,,
,,,,,,2.847008175,1.9908,space,0.3512,0,26,26,24,1,25,image/25.jpg,0,0,,R_1EYAm4n1kovKRIe,2,2024-05-26_11h25.26.131,face trait task,2021.2.3,Linux x86_64,60.60606061,121505,,,,,,,
,,,,,,2.448226505,1.8199,space,0.497,0,27,27,22,1,23,image/23.jpg,0,0,,R_1EYAm4n1kovKRIe,2,2024-05-26_11h25.26.131,face trait task,2021.2.3,Linux x86_64,60.60606061,121505,,,,,,,
,,,,,,6.967579312,4.8398,space,0.4514,0,28,28,52,1,59,image/fill_img.png,1,7,Please move the slider all the way to the RIGHT to show that you are paying attention.,R_1EYAm4n1kovKRIe,2,2024-05-26_11h25.26.131,face trait task,2021.2.3,Linux x86_64,60.60606061,121505,,,,,,,
,,,,,,2.768327077,2.1716,space,0.4305,0,29,29,41,1,42,image/42.jpg,0,0,,R_1EYAm4n1kovKRIe,2,2024-05-26_11h25.26.131,face trait task,2021.2.3,Linux x86_64,60.60606061,121505,,,,,,,
,,,,,,2.859762828,2.1446,space,0.6142,0,30,30,11,1,12,image/12.jpg,0,0,,R_1EYAm4n1kovKRIe,2,2024-05-26_11h25.26.131,face trait task,2021.2.3,Linux x86_64,60.60606061,121505,,,,,,,
,,,,,,4.068377601,2.6711,space,0.3922,0,31,31,28,1,29,image/29.jpg,0,0,,R_1EYAm4n1kovKRIe,2,2024-05-26_11h25.26.131,face trait task,2021.2.3,Linux x86_64,60.60606061,121505,,,,,,,
,,,,,,5.691841125,1.9699,space,0.5979,0,32,32,29,1,30,image/30.jpg,0,0,,R_1EYAm4n1kovKRIe,2,2024-05-26_11h25.26.131,face trait task,2021.2.3,Linux x86_64,60.60606061,121505,,,,,,,
,,,,,,2.995069716,2.4643,space,0.5328,0,33,33,1,1,2,image/2.jpg,0,0,,R_1EYAm4n1kovKRIe,2,2024-05-26_11h25.26.131,face trait task,2021.2.3,Linux x86_64,60.60606061,121505,,,,,,,
,,,,,,6.151142544,2.5165,space,0.4825,0,34,34,25,1,26,image/26.jpg,0,0,,R_1EYAm4n1kovKRIe,2,2024-05-26_11h25.26.131,face trait task,2021.2.3,Linux x86_64,60.60606061,121505,,,,,,,
,,,,,,2.851534102,4.0607,space,0.7272,0,35,35,49,1,50,image/50.jpg,0,0,,R_1EYAm4n1kovKRIe,2,2024-05-26_11h25.26.131,face trait task,2021.2.3,Linux x86_64,60.60606061,121505,,,,,,,
,,,,,,3.043084886,3.281,space,0.3896,0,36,36,10,1,11,image/11.jpg,0,0,,R_1EYAm4n1kovKRIe,2,2024-05-26_11h25.26.131,face trait task,2021.2.3,Linux x86_64,60.60606061,121505,,,,,,,
,,,,,,2.691717784,1.4235,space,0.3698,0,37,37,6,1,7,image/7.jpg,0,0,,R_1EYAm4n1kovKRIe,2,2024-05-26_11h25.26.131,face trait task,2021.2.3,Linux x86_64,60.60606061,121505,,,,,,,
,,,,,,3.632439507,2.1344,space,0.3673,0,38,38,39,1,40,image/40.jpg,0,0,,R_1EYAm4n1kovKRIe,2,2024-05-26_11h25.26.131,face trait task,2021.2.3,Linux x86_64,60.60606061,121505,,,,,,,
,,,,,,3.877034081,2.9475,space,1.658,0,39,39,35,1,36,image/36.jpg,0,0,,R_1EYAm4n1kovKRIe,2,2024-05-26_11h25.26.131,face trait task,2021.2.3,Linux x86_64,60.60606061,121505,,,,,,,
,,,,,,5.351687961,2.0601,space,0.3112,0,40,40,34,1,35,image/35.jpg,0,0,,R_1EYAm4n1kovKRIe,2,2024-05-26_11h25.26.131,face trait task,2021.2.3,Linux x86_64,60.60606061,121505,,,,,,,
,,,,,,6.134822422,1.5015,space,0.3048,0,41,41,21,1,22,image/22.jpg,0,0,,R_1EYAm4n1kovKRIe,2,2024-05-26_11h25.26.131,face trait task,2021.2.3,Linux x86_64,60.60606061,121505,,,,,,,
,,,,,,2.723796844,1.9672,space,0.3148,0,42,42,45,1,46,image/46.jpg,0,0,,R_1EYAm4n1kovKRIe,2,2024-05-26_11h25.26.131,face trait task,2021.2.3,Linux x86_64,60.60606061,121505,,,,,,,
,,,,,,3.6563424,1.7819,space,0.312,0,43,43,3,1,4,image/4.jpg,0,0,,R_1EYAm4n1kovKRIe,2,2024-05-26_11h25.26.131,face trait task,2021.2.3,Linux x86_64,60.60606061,121505,,,,,,,
,,,,,,3.800937229,3.9614,space,0.3023,0,44,44,36,1,37,image/37.jpg,0,0,,R_1EYAm4n1kovKRIe,2,2024-05-26_11h25.26.131,face trait task,2021.2.3,Linux x86_64,60.60606061,121505,,,,,,,
,,,,,,3.799176958,22.9994,space,0.3524,0,45,45,9,1,10,image/10.jpg,0,0,,R_1EYAm4n1kovKRIe,2,2024-05-26_11h25.26.131,face trait task,2021.2.3,Linux x86_64,60.60606061,121505,,,,,,,
,,,,,,5.029504988,2.1814,space,0.7203,0,46,46,31,1,32,image/32.jpg,0,0,,R_1EYAm4n1kovKRIe,2,2024-05-26_11h25.26.131,face trait task,2021.2.3,Linux x86_64,60.60606061,121505,,,,,,,
,,,,,,2.908379025,1.4056,space,0.3161,0,47,47,46,1,47,image/47.jpg,0,0,,R_1EYAm4n1kovKRIe,2,2024-05-26_11h25.26.131,face trait task,2021.2.3,Linux x86_64,60.60606061,121505,,,,,,,
,,,,,,5.12641822,2.7475,space,0.3495,0,48,48,16,1,17,image/17.jpg,0,0,,R_1EYAm4n1kovKRIe,2,2024-05-26_11h25.26.131,face trait task,2021.2.3,Linux x86_64,60.60606061,121505,,,,,,,
,,,,,,4.215703752,2.506,space,0.7025,0,49,49,30,1,31,image/31.jpg,0,0,,R_1EYAm4n1kovKRIe,2,2024-05-26_11h25.26.131,face trait task,2021.2.3,Linux x86_64,60.60606061,121505,,,,,,,
,,,,,,3.777258979,1.6998,space,0.3325,0,50,50,2,1,3,image/3.jpg,0,0,,R_1EYAm4n1kovKRIe,2,2024-05-26_11h25.26.131,face trait task,2021.2.3,Linux x86_64,60.60606061,121505,,,,,,,
,,,,,,3.843747457,2.7322,space,0.3662,0,51,51,32,1,33,image/33.jpg,0,0,,R_1EYAm4n1kovKRIe,2,2024-05-26_11h25.26.131,face trait task,2021.2.3,Linux x86_64,60.60606061,121505,,,,,,,
,,,,,,4.311207665,2.4388,space,0.3816,0,52,52,8,1,9,image/9.jpg,0,0,,R_1EYAm4n1kovKRIe,2,2024-05-26_11h25.26.131,face trait task,2021.2.3,Linux x86_64,60.60606061,121505,,,,,,,
,,,,,,,,,,,,,,,,,,,,R_1EYAm4n1kovKRIe,2,2024-05-26_11h25.26.131,face trait task,2021.2.3,Linux x86_64,60.60606061,121505,0,1,1,0,1,0,critical.png
,,,,,competent,4.986567603,6.8354,space,0.3383,0,0,0,7,1,8,image/8.jpg,0,0,,R_1EYAm4n1kovKRIe,2,2024-05-26_11h25.26.131,face trait task,2021.2.3,Linux x86_64,60.60606061,121505,,,,,,,
,,,,,,3.934789022,2.3623,space,0.3085,0,1,1,26,1,27,image/27.jpg,0,0,,R_1EYAm4n1kovKRIe,2,2024-05-26_11h25.26.131,face trait task,2021.2.3,Linux x86_64,60.60606061,121505,,,,,,,
,,,,,,4.279487186,3.4652,space,2.0227,0,2,2,18,1,19,image/19.jpg,0,0,,R_1EYAm4n1kovKRIe,2,2024-05-26_11h25.26.131,face trait task,2021.2.3,Linux x86_64,60.60606061,121505,,,,,,,
,,,,,,6.84362793,3.2587,space,0.3631,0,3,3,6,1,7,image/7.jpg,0,0,,R_1EYAm4n1kovKRIe,2,2024-05-26_11h25.26.131,face trait task,2021.2.3,Linux x86_64,60.60606061,121505,,,,,,,
,,,,,,4.850952148,4.4848,space,0.383,0,4,4,29,1,30,image/30.jpg,0,0,,R_1EYAm4n1kovKRIe,2,2024-05-26_11h25.26.131,face trait task,2021.2.3,Linux x86_64,60.60606061,121505,,,,,,,
,,,,,,6.044293722,2.7326,space,0.4106,0,5,5,27,1,28,image/28.jpg,0,0,,R_1EYAm4n1kovKRIe,2,2024-05-26_11h25.26.131,face trait task,2021.2.3,Linux x86_64,60.60606061,121505,,,,,,,
,,,,,,5.168768989,1.5247,space,0.5727,0,6,6,1,1,2,image/2.jpg,0,0,,R_1EYAm4n1kovKRIe,2,2024-05-26_11h25.26.131,face trait task,2021.2.3,Linux x86_64,60.60606061,121505,,,,,,,
,,,,,,3.711229112,2.3604,space,1.1651,0,7,7,28,1,29,image/29.jpg,0,0,,R_1EYAm4n1kovKRIe,2,2024-05-26_11h25.26.131,face trait task,2021.2.3,Linux x86_64,60.60606061,121505,,,,,,,
,,,,,,4.083675385,8.1675,space,0.4685,0,8,8,0,1,1,image/1.jpg,0,0,,R_1EYAm4n1kovKRIe,2,2024-05-26_11h25.26.131,face trait task,2021.2.3,Linux x86_64,60.60606061,121505,,,,,,,
,,,,,,5.113065508,6.2351,space,0.4482,0,9,9,43,1,44,image/44.jpg,0,0,,R_1EYAm4n1kovKRIe,2,2024-05-26_11h25.26.131,face trait task,2021.2.3,Linux x86_64,60.60606061,121505,,,,,,,
,,,,,,4.537390815,9.4725,space,0.3202,0,10,10,31,1,32,image/32.jpg,0,0,,R_1EYAm4n1kovKRIe,2,2024-05-26_11h25.26.131,face trait task,2021.2.3,Linux x86_64,60.60606061,121505,,,,,,,
,,,,,,4.132141961,3.632,space,0.3288,0,11,11,33,1,34,image/34.jpg,0,0,,R_1EYAm4n1kovKRIe,2,2024-05-26_11h25.26.131,face trait task,2021.2.3,Linux x86_64,60.60606061,121505,,,,,,,
,,,,,,4.748908149,2.0995,space,0.3337,0,12,12,9,1,10,image/10.jpg,0,0,,R_1EYAm4n1kovKRIe,2,2024-05-26_11h25.26.131,face trait task,2021.2.3,Linux x86_64,60.60606061,121505,,,,,,,
,,,,,,4.900140974,1.3312,space,0.3532,0,13,13,21,1,22,image/22.jpg,0,0,,R_1EYAm4n1kovKRIe,2,2024-05-26_11h25.26.131,face trait task,2021.2.3,Linux x86_64,60.60606061,121505,,,,,,,
,,,,,,5.278823429,1.4184,space,0.3953,0,14,14,37,1,38,image/38.jpg,0,0,,R_1EYAm4n1kovKRIe,2,2024-05-26_11h25.26.131,face trait task,2021.2.3,Linux x86_64,60.60606061,121505,,,,,,,
,,,,,,5.782044305,2.3496,space,1.1052,0,15,15,49,1,50,image/50.jpg,0,0,,R_1EYAm4n1kovKRIe,2,2024-05-26_11h25.26.131,face trait task,2021.2.3,Linux x86_64,60.60606061,121505,,,,,,,
,,,,,,4.839916229,1.5725,space,0.4374,0,16,16,8,1,9,image/9.jpg,0,0,,R_1EYAm4n1kovKRIe,2,2024-05-26_11h25.26.131,face trait task,2021.2.3,Linux x86_64,60.60606061,121505,,,,,,,
,,,,,,3.852356381,2.9407,space,0.326,0,17,17,36,1,37,image/37.jpg,0,0,,R_1EYAm4n1kovKRIe,2,2024-05-26_11h25.26.131,face trait task,2021.2.3,Linux x86_64,60.60606061,121505,,,,,,,
,,,,,,4.566621145,1.7142,space,0.6271,0,18,18,13,1,14,image/14.jpg,0,0,,R_1EYAm4n1kovKRIe,2,2024-05-26_11h25.26.131,face trait task,2021.2.3,Linux x86_64,60.60606061,121505,,,,,,,
,,,,,,3.767311096,2.4479,space,1.9857,0,19,19,32,1,33,image/33.jpg,0,0,,R_1EYAm4n1kovKRIe,2,2024-05-26_11h25.26.131,face trait task,2021.2.3,Linux x86_64,60.60606061,121505,,,,,,,
,,,,,,5.329259661,1.6104,space,0.3809,0,20,20,25,1,26,image/26.jpg,0,0,,R_1EYAm4n1kovKRIe,2,2024-05-26_11h25.26.131,face trait task,2021.2.3,Linux x86_64,60.60606061,121505,,,,,,,
,,,,,,5.72412067,1.3683,space,0.3511,0,21,21,10,1,11,image/11.jpg,0,0,,R_1EYAm4n1kovKRIe,2,2024-05-26_11h25.26.131,face trait task,2021.2.3,Linux x86_64,60.60606061,121505,,,,,,,
,,,,,,4.093119727,11.7094,space,0.3642,0,22,22,30,1,31,image/31.jpg,0,0,,R_1EYAm4n1kovKRIe,2,2024-05-26_11h25.26.131,face trait task,2021.2.3,Linux x86_64,60.60606061,121505,,,,,,,
,,,,,,3.571513282,3.6241,space,0.2991,0,23,23,38,1,39,image/39.jpg,0,0,,R_1EYAm4n1kovKRIe,2,2024-05-26_11h25.26.131,face trait task,2021.2.3,Linux x86_64,60.60606061,121505,,,,,,,
,,,,,,5.055839115,3.1635,space,2.1587,0,24,24,3,1,4,image/4.jpg,0,0,,R_1EYAm4n1kovKRIe,2,2024-05-26_11h25.26.131,face trait task,2021.2.3,Linux x86_64,60.60606061,121505,,,,,,,
,,,,,,3.595930311,2.6664,space,1.0068,0,25,25,16,1,17,image/17.jpg,0,0,,R_1EYAm4n1kovKRIe,2,2024-05-26_11h25.26.131,face trait task,2021.2.3,Linux x86_64,60.60606061,121505,,,,,,,
,,,,,,5.942175123,1.7979,space,0.3396,0,26,26,47,1,48,image/48.jpg,0,0,,R_1EYAm4n1kovKRIe,2,2024-05-26_11h25.26.131,face trait task,2021.2.3,Linux x86_64,60.60606061,121505,,,,,,,
,,,,,,3.719812605,3.4867,space,0.3053,0,27,27,14,1,15,image/15.jpg,0,0,,R_1EYAm4n1kovKRIe,2,2024-05-26_11h25.26.131,face trait task,2021.2.3,Linux x86_64,60.60606061,121505,,,,,,,
,,,,,,6.998866611,2.7954,space,0.3058,0,28,28,52,1,59,image/fill_img.png,1,7,Please move the slider all the way to the RIGHT to show that you are paying attention.,R_1EYAm4n1kovKRIe,2,2024-05-26_11h25.26.131,face trait task,2021.2.3,Linux x86_64,60.60606061,121505,,,,,,,
,,,,,,4.630836911,2.4291,space,0.3671,0,29,29,46,1,47,image/47.jpg,0,0,,R_1EYAm4n1kovKRIe,2,2024-05-26_11h25.26.131,face trait task,2021.2.3,Linux x86_64,60.60606061,121505,,,,,,,
,,,,,,5.348994361,2.1347,space,0.5484,0,30,30,23,1,24,image/24.jpg,0,0,,R_1EYAm4n1kovKRIe,2,2024-05-26_11h25.26.131,face trait task,2021.2.3,Linux x86_64,60.60606061,121505,,,,,,,
,,,,,,5.252027724,6.6648,space,0.3731,0,31,31,22,1,23,image/23.jpg,0,0,,R_1EYAm4n1kovKRIe,2,2024-05-26_11h25.26.131,face trait task,2021.2.3,Linux x86_64,60.60606061,121505,,,,,,,
,,,,,,5.445660485,1.8682,space,0.361,0,32,32,42,1,43,image/43.jpg,0,0,,R_1EYAm4n1kovKRIe,2,2024-05-26_11h25.26.131,face trait task,2021.2.3,Linux x86_64,60.60606061,121505,,,,,,,
,,,,,,6.413581848,1.3835,space,0.3641,0,33,33,5,1,6,image/6.jpg,0,0,,R_1EYAm4n1kovKRIe,2,2024-05-26_11h25.26.131,face trait task,2021.2.3,Linux x86_64,60.60606061,121505,,,,,,,
,,,,,,5.784823947,1.6913,space,0.416,0,34,34,20,1,21,image/21.jpg,0,0,,R_1EYAm4n1kovKRIe,2,2024-05-26_11h25.26.131,face trait task,2021.2.3,Linux x86_64,60.60606061,121505,,,,,,,
,,,,,,5.142198351,1.8217,space,0.3567,0,35,35,45,1,46,image/46.jpg,0,0,,R_1EYAm4n1kovKRIe,2,2024-05-26_11h25.26.131,face trait task,2021.2.3,Linux x86_64,60.60606061,121505,,,,,,,
,,,,,,4.64144516,2.436,space,0.5945,0,36,36,4,1,5,image/5.jpg,0,0,,R_1EYAm4n1kovKRIe,2,2024-05-26_11h25.26.131,face trait task,2021.2.3,Linux x86_64,60.60606061,121505,,,,,,,
,,,,,,4.925819821,1.5659,space,0.4842,0,37,37,35,1,36,image/36.jpg,0,0,,R_1EYAm4n1kovKRIe,2,2024-05-26_11h25.26.131,face trait task,2021.2.3,Linux x86_64,60.60606061,121505,,,,,,,
,,,,,,5.196677738,1.6418,space,0.4096,0,38,38,15,1,16,image/16.jpg,0,0,,R_1EYAm4n1kovKRIe,2,2024-05-26_11h25.26.131,face trait task,2021.2.3,Linux x86_64,60.60606061,121505,,,,,,,
,,,,,,5.632038116,1.3139,space,0.8154,0,39,39,41,1,42,image/42.jpg,0,0,,R_1EYAm4n1kovKRIe,2,2024-05-26_11h25.26.131,face trait task,2021.2.3,Linux x86_64,60.60606061,121505,,,,,,,
,,,,,,5.785631816,1.3567,space,0.4926,0,40,40,19,1,20,image/20.jpg,0,0,,R_1EYAm4n1kovKRIe,2,2024-05-26_11h25.26.131,face trait task,2021.2.3,Linux x86_64,60.60606061,121505,,,,,,,
,,,,,,3.24614758,3.6472,space,0.4217,0,41,41,40,1,41,image/41.jpg,0,0,,R_1EYAm4n1kovKRIe,2,2024-05-26_11h25.26.131,face trait task,2021.2.3,Linux x86_64,60.60606061,121505,,,,,,,
,,,,,,1.021556218,3.9832,space,0.3871,0,42,42,51,1,52,image/fill_img.png,1,1,Please move the slider all the way to the LEFT to show that you are paying attention.,R_1EYAm4n1kovKRIe,2,2024-05-26_11h25.26.131,face trait task,2021.2.3,Linux x86_64,60.60606061,121505,,,,,,,
,,,,,,4.122579787,1.6374,space,0.5658,0,43,43,2,1,3,image/3.jpg,0,0,,R_1EYAm4n1kovKRIe,2,2024-05-26_11h25.26.131,face trait task,2021.2.3,Linux x86_64,60.60606061,121505,,,,,,,
,,,,,,1.002770954,2.7874,space,0.4297,0,44,44,50,1,52,image/fill_img.png,1,1,Please move the slider all the way to the LEFT to show that you are paying attention.,R_1EYAm4n1kovKRIe,2,2024-05-26_11h25.26.131,face trait task,2021.2.3,Linux x86_64,60.60606061,121505,,,,,,,
,,,,,,3.963458167,2.0608,space,0.397,0,45,45,17,1,18,image/18.jpg,0,0,,R_1EYAm4n1kovKRIe,2,2024-05-26_11h25.26.131,face trait task,2021.2.3,Linux x86_64,60.60606061,121505,,,,,,,
,,,,,,3.66362381,1.4381,space,0.6213,0,46,46,24,1,25,image/25.jpg,0,0,,R_1EYAm4n1kovKRIe,2,2024-05-26_11h25.26.131,face trait task,2021.2.3,Linux x86_64,60.60606061,121505,,,,,,,
,,,,,,3.649501801,2.1571,space,0.3344,0,47,47,39,1,40,image/40.jpg,0,0,,R_1EYAm4n1kovKRIe,2,2024-05-26_11h25.26.131,face trait task,2021.2.3,Linux x86_64,60.60606061,121505,,,,,,,
,,,,,,5.177715302,1.3674,space,0.4809,0,48,48,11,1,12,image/12.jpg,0,0,,R_1EYAm4n1kovKRIe,2,2024-05-26_11h25.26.131,face trait task,2021.2.3,Linux x86_64,60.60606061,121505,,,,,,,
,,,,,,5.204093509,1.6206,space,0.9851,0,49,49,44,1,45,image/45.jpg,0,0,,R_1EYAm4n1kovKRIe,2,2024-05-26_11h25.26.131,face trait task,2021.2.3,Linux x86_64,60.60606061,121505,,,,,,,
,,,,,,5.35272895,3.6057,space,1.8713,0,50,50,48,1,49,image/49.jpg,0,0,,R_1EYAm4n1kovKRIe,2,2024-05-26_11h25.26.131,face trait task,2021.2.3,Linux x86_64,60.60606061,121505,,,,,,,
,,,,,,5.301527235,1.3524,space,0.5227,0,51,51,12,1,13,image/13.jpg,0,0,,R_1EYAm4n1kovKRIe,2,2024-05-26_11h25.26.131,face trait task,2021.2.3,Linux x86_64,60.60606061,121505,,,,,,,
,,,,,,3.910763211,1.9205,space,0.4218,0,52,52,34,1,35,image/35.jpg,0,0,,R_1EYAm4n1kovKRIe,2,2024-05-26_11h25.26.131,face trait task,2021.2.3,Linux x86_64,60.60606061,121505,,,,,,,
,,,,,,,,,,,,,,,,,,,,R_1EYAm4n1kovKRIe,2,2024-05-26_11h25.26.131,face trait task,2021.2.3,Linux x86_64,60.60606061,121505,0,2,2,1,1,1,competent.png
,,,,,friendly,1.038880878,3.3854,space,0.4903,0,0,0,50,1,52,image/fill_img.png,1,1,Please move the slider all the way to the LEFT to show that you are paying attention.,R_1EYAm4n1kovKRIe,2,2024-05-26_11h25.26.131,face trait task,2021.2.3,Linux x86_64,60.60606061,121505,,,,,,,
,,,,,,4.716277652,2.1527,space,0.3815,0,1,1,6,1,7,image/7.jpg,0,0,,R_1EYAm4n1kovKRIe,2,2024-05-26_11h25.26.131,face trait task,2021.2.3,Linux x86_64,60.60606061,121505,,,,,,,
,,,,,,6.993023343,3.3048,space,0.5071,0,2,2,52,1,59,image/fill_img.png,1,7,Please move the slider all the way to the RIGHT to show that you are paying attention.,R_1EYAm4n1kovKRIe,2,2024-05-26_11h25.26.131,face trait task,2021.2.3,Linux x86_64,60.60606061,121505,,,,,,,
,,,,,,4.25552241,1.8124,space,0.4005,0,3,3,42,1,43,image/43.jpg,0,0,,R_1EYAm4n1kovKRIe,2,2024-05-26_11h25.26.131,face trait task,2021.2.3,Linux x86_64,60.60606061,121505,,,,,,,
,,,,,,5.490359412,3.646,space,2.9093,0,4,4,11,1,12,image/12.jpg,0,0,,R_1EYAm4n1kovKRIe,2,2024-05-26_11h25.26.131,face trait task,2021.2.3,Linux x86_64,60.60606061,121505,,,,,,,
,,,,,,2.921283298,2.7423,space,0.3442,0,5,5,46,1,47,image/47.jpg,0,0,,R_1EYAm4n1kovKRIe,2,2024-05-26_11h25.26.131,face trait task,2021.2.3,Linux x86_64,60.60606061,121505,,,,,,,
,,,,,,3.219629076,1.3813,space,0.4177,0,6,6,12,1,13,image/13.jpg,0,0,,R_1EYAm4n1kovKRIe,2,2024-05-26_11h25.26.131,face trait task,2021.2.3,Linux x86_64,60.60606061,121505,,,,,,,
,,,,,,3.597552405,3.6937,space,0.8581,0,7,7,4,1,5,image/5.jpg,0,0,,R_1EYAm4n1kovKRIe,2,2024-05-26_11h25.26.131,face trait task,2021.2.3,Linux x86_64,60.60606061,121505,,,,,,,
,,,,,,2.810168372,2.1052,space,0.2934,0,8,8,16,1,17,image/17.jpg,0,0,,R_1EYAm4n1kovKRIe,2,2024-05-26_11h25.26.131,face trait task,2021.2.3,Linux x86_64,60.60606061,121505,,,,,,,
,,,,,,5.634688907,2.9132,space,0.378,0,9,9,41,1,42,image/42.jpg,0,0,,R_1EYAm4n1kovKRIe,2,2024-05-26_11h25.26.131,face trait task,2021.2.3,Linux x86_64,60.60606061,121505,,,,,,,
,,,,,,4.337080638,3.0479,space,0.32,0,10,10,26,1,27,image/27.jpg,0,0,,R_1EYAm4n1kovKRIe,2,2024-05-26_11h25.26.131,face trait task,2021.2.3,Linux x86_64,60.60606061,121505,,,,,,,
,,,,,,5.686080509,1.6939,space,0.318,0,11,11,24,1,25,image/25.jpg,0,0,,R_1EYAm4n1kovKRIe,2,2024-05-26_11h25.26.131,face trait task,2021.2.3,Linux x86_64,60.60606061,121505,,,,,,,
,,,,,,2.885071225,2.8861,space,0.4196,0,12,12,27,1,28,image/28.jpg,0,0,,R_1EYAm4n1kovKRIe,2,2024-05-26_11h25.26.131,face trait task,2021.2.3,Linux x86_64,60.60606061,121505,,,,,,,
,,,,,,6.061576843,1.4153,space,0.3444,0,13,13,5,1,6,image/6.jpg,0,0,,R_1EYAm4n1kovKRIe,2,2024-05-26_11h25.26.131,face trait task,2021.2.3,Linux x86_64,60.60606061,121505,,,,,,,
,,,,,,2.03609954,1.6363,space,0.3925,0,14,14,33,1,34,image/34.jpg,0,0,,R_1EYAm4n1kovKRIe,2,2024-05-26_11h25.26.131,face trait task,2021.2.3,Linux x86_64,60.60606061,121505,,,,,,,
,,,,,,4.215129852,2.8558,space,0.4322,0,15,15,3,1,4,image/4.jpg,0,0,,R_1EYAm4n1kovKRIe,2,2024-05-26_11h25.26.131,face trait task,2021.2.3,Linux x86_64,60.60606061,121505,,,,,,,
,,,,,,2.557494693,4.3657,space,0.2631,0,16,16,28,1,29,image/29.jpg,0,0,,R_1EYAm4n1kovKRIe,2,2024-05-26_11h25.26.131,face trait task,2021.2.3,Linux x86_64,60.60606061,121505,,,,,,,
,,,,,,4.74195226,2.7807,space,0.5237,0,17,17,32,1,33,image/33.jpg,0,0,,R_1EYAm4n1kovKRIe,2,2024-05-26_11h25.26.131,face trait task,2021.2.3,Linux x86_64,60.60606061,121505,,,,,,,
,,,,,,5.25274192,1.4846,space,0.3027,0,18,18,49,1,50,image/50.jpg,0,0,,R_1EYAm4n1kovKRIe,2,2024-05-26_11h25.26.131,face trait task,2021.2.3,Linux x86_64,60.60606061,121505,,,,,,,
,,,,,,4.984311422,1.6208,space,0.3377,0,19,19,43,1,44,image/44.jpg,0,0,,R_1EYAm4n1kovKRIe,2,2024-05-26_11h25.26.131,face trait task,2021.2.3,Linux x86_64,60.60606061,121505,,,,,,,
,,,,,,3.392267439,4.6263,space,0.7495,0,20,20,38,1,39,image/39.jpg,0,0,,R_1EYAm4n1kovKRIe,2,2024-05-26_11h25.26.131,face trait task,2021.2.3,Linux x86_64,60.60606061,121505,,,,,,,
,,,,,,1.197174708,2.8602,space,0.4828,0,21,21,30,1,31,image/31.jpg,0,0,,R_1EYAm4n1kovKRIe,2,2024-05-26_11h25.26.131,face trait task,2021.2.3,Linux x86_64,60.60606061,121505,,,,,,,
,,,,,,2.78176668,2.5139,space,0.7241,0,22,22,13,1,14,image/14.jpg,0,0,,R_1EYAm4n1kovKRIe,2,2024-05-26_11h25.26.131,face trait task,2021.2.3,Linux x86_64,60.60606061,121505,,,,,,,
,,,,,,2.937460158,2.4065,space,0.3105,0,23,23,45,1,46,image/46.jpg,0,0,,R_1EYAm4n1kovKRIe,2,2024-05-26_11h25.26.131,face trait task,2021.2.3,Linux x86_64,60.60606061,121505,,,,,,,
,,,,,,2.748298221,1.2537,space,0.3118,0,24,24,39,1,40,image/40.jpg,0,0,,R_1EYAm4n1kovKRIe,2,2024-05-26_11h25.26.131,face trait task,2021.2.3,Linux x86_64,60.60606061,121505,,,,,,,
,,,,,,1.034710566,2.5604,space,0.3441,0,25,25,51,1,52,image/fill_img.png,1,1,Please move the slider all the way to the LEFT to show that you are paying attention.,R_1EYAm4n1kovKRIe,2,2024-05-26_11h25.26.131,face trait task,2021.2.3,Linux x86_64,60.60606061,121505,,,,,,,
,,,,,,4.541105906,2.948,space,0.3877,0,26,26,15,1,16,image/16.jpg,0,0,,R_1EYAm4n1kovKRIe,2,2024-05-26_11h25.26.131,face trait task,2021.2.3,Linux x86_64,60.60606061,121505,,,,,,,
,,,,,,5.186922285,1.6352,space,0.3661,0,27,27,47,1,48,image/48.jpg,0,0,,R_1EYAm4n1kovKRIe,2,2024-05-26_11h25.26.131,face trait task,2021.2.3,Linux x86_64,60.60606061,121505,,,,,,,
,,,,,,4.77754169,1.6772,space,0.3845,0,28,28,37,1,38,image/38.jpg,0,0,,R_1EYAm4n1kovKRIe,2,2024-05-26_11h25.26.131,face trait task,2021.2.3,Linux x86_64,60.60606061,121505,,,,,,,
,,,,,,5.576507568,2.4671,space,0.4262,0,29,29,48,1,49,image/49.jpg,0,0,,R_1EYAm4n1kovKRIe,2,2024-05-26_11h25.26.131,face trait task,2021.2.3,Linux x86_64,60.60606061,121505,,,,,,,
,,,,,,4.197533502,1.684,space,0.3828,0,30,30,8,1,9,image/9.jpg,0,0,,R_1EYAm4n1kovKRIe,2,2024-05-26_11h25.26.131,face trait task,2021.2.3,Linux x86_64,60.60606061,121505,,,,,,,
,,,,,,4.807879554,2.5312,space,0.5563,0,31,31,7,1,8,image/8.jpg,0,0,,R_1EYAm4n1kovKRIe,2,2024-05-26_11h25.26.131,face trait task,2021.2.3,Linux x86_64,60.60606061,121505,,,,,,,
,,,,,,2.308985392,4.3413,space,0.3352,0,32,32,29,1,30,image/30.jpg,0,0,,R_1EYAm4n1kovKRIe,2,2024-05-26_11h25.26.131,face trait task,2021.2.3,Linux x86_64,60.60606061,121505,,,,,,,
,,,,,,5.559310065,1.9635,space,0.4861,0,33,33,22,1,23,image/23.jpg,0,0,,R_1EYAm4n1kovKRIe,2,2024-05-26_11h25.26.131,face trait task,2021.2.3,Linux x86_64,60.60606061,121505,,,,,,,
,,,,,,5.163851844,2.9293,space,0.4413,0,34,34,20,1,21,image/21.jpg,0,0,,R_1EYAm4n1kovKRIe,2,2024-05-26_11h25.26.131,face trait task,2021.2.3,Linux x86_64,60.60606061,121505,,,,,,,
,,,,,,1.712594986,2.233,space,0.406,0,35,35,0,1,1,image/1.jpg,0,0,,R_1EYAm4n1kovKRIe,2,2024-05-26_11h25.26.131,face trait task,2021.2.3,Linux x86_64,60.60606061,121505,,,,,,,
,,,,,,5.088818444,1.5399,space,0.3986,0,36,36,19,1,20,image/20.jpg,0,0,,R_1EYAm4n1kovKRIe,2,2024-05-26_11h25.26.131,face trait task,2021.2.3,Linux x86_64,60.60606061,121505,,,,,,,
,,,,,,4.94713423,2.0557,space,0.4581,0,37,37,1,1,2,image/2.jpg,0,0,,R_1EYAm4n1kovKRIe,2,2024-05-26_11h25.26.131,face trait task,2021.2.3,Linux x86_64,60.60606061,121505,,,,,,,
,,,,,,2.707210541,1.782,space,0.3156,0,38,38,14,1,15,image/15.jpg,0,0,,R_1EYAm4n1kovKRIe,2,2024-05-26_11h25.26.131,face trait task,2021.2.3,Linux x86_64,60.60606061,121505,,,,,,,
,,,,,,4.806687673,2.7225,space,0.4037,0,39,39,40,1,41,image/41.jpg,0,0,,R_1EYAm4n1kovKRIe,2,2024-05-26_11h25.26.131,face trait task,2021.2.3,Linux x86_64,60.60606061,121505,,,,,,,
,,,,,,2.061088774,2.5466,space,0.5015,0,40,40,25,1,26,image/26.jpg,0,0,,R_1EYAm4n1kovKRIe,2,2024-05-26_11h25.26.131,face trait task,2021.2.3,Linux x86_64,60.60606061,121505,,,,,,,
,,,,,,4.791405148,2.875,space,0.4518,0,41,41,35,1,36,image/36.jpg,0,0,,R_1EYAm4n1kovKRIe,2,2024-05-26_11h25.26.131,face trait task,2021.2.3,Linux x86_64,60.60606061,121505,,,,,,,
,,,,,,2.426699744,1.8115,space,0.433,0,42,42,34,1,35,image/35.jpg,0,0,,R_1EYAm4n1kovKRIe,2,2024-05-26_11h25.26.131,face trait task,2021.2.3,Linux x86_64,60.60606061,121505,,,,,,,
,,,,,,2.296207852,1.7224,space,0.3508,0,43,43,36,1,37,image/37.jpg,0,0,,R_1EYAm4n1kovKRIe,2,2024-05-26_11h25.26.131,face trait task,2021.2.3,Linux x86_64,60.60606061,121505,,,,,,,
,,,,,,1.859796524,2.8066,space,0.3496,0,44,44,21,1,22,image/22.jpg,0,0,,R_1EYAm4n1kovKRIe,2,2024-05-26_11h25.26.131,face trait task,2021.2.3,Linux x86_64,60.60606061,121505,,,,,,,
,,,,,,1.756465276,13.2011,space,10.541,0,45,45,18,1,19,image/19.jpg,0,0,,R_1EYAm4n1kovKRIe,2,2024-05-26_11h25.26.131,face trait task,2021.2.3,Linux x86_64,60.60606061,121505,,,,,,,
,,,,,,4.45131429,4.8311,space,0.2409,0,46,46,17,1,18,image/18.jpg,0,0,,R_1EYAm4n1kovKRIe,2,2024-05-26_11h25.26.131,face trait task,2021.2.3,Linux x86_64,60.60606061,121505,,,,,,,
,,,,,,3.44669554,2.0577,space,0.5174,0,47,47,9,1,10,image/10.jpg,0,0,,R_1EYAm4n1kovKRIe,2,2024-05-26_11h25.26.131,face trait task,2021.2.3,Linux x86_64,60.60606061,121505,,,,,,,
,,,,,,5.540392558,1.3517,space,0.5503,0,48,48,10,1,11,image/11.jpg,0,0,,R_1EYAm4n1kovKRIe,2,2024-05-26_11h25.26.131,face trait task,2021.2.3,Linux x86_64,60.60606061,121505,,,,,,,
,,,,,,4.813787248,2.2822,space,0.3588,0,49,49,23,1,24,image/24.jpg,0,0,,R_1EYAm4n1kovKRIe,2,2024-05-26_11h25.26.131,face trait task,2021.2.3,Linux x86_64,60.60606061,121505,,,,,,,
,,,,,,4.20958413,1.9292,space,0.5881,0,50,50,44,1,45,image/45.jpg,0,0,,R_1EYAm4n1kovKRIe,2,2024-05-26_11h25.26.131,face trait task,2021.2.3,Linux x86_64,60.60606061,121505,,,,,,,
,,,,,,2.925099267,1.9676,space,0.2706,0,51,51,31,1,32,image/32.jpg,0,0,,R_1EYAm4n1kovKRIe,2,2024-05-26_11h25.26.131,face trait task,2021.2.3,Linux x86_64,60.60606061,121505,,,,,,,
,,,,,,2.494616614,2.2999,space,0.3498,0,52,52,2,1,3,image/3.jpg,0,0,,R_1EYAm4n1kovKRIe,2,2024-05-26_11h25.26.131,face trait task,2021.2.3,Linux x86_64,60.60606061,121505,,,,,,,
,,,,,,,,,,,,,,,,,,,,R_1EYAm4n1kovKRIe,2,2024-05-26_11h25.26.131,face trait task,2021.2.3,Linux x86_64,60.60606061,121505,0,3,3,3,1,3,friendly.png
