chooserow,ParID,pre_instru_resp_2.keys,pre_instru_resp_2.rt,pre_instru_resp_3.keys,pre_instru_resp_3.rt,pre_instru_resp_9.keys,pre_instru_resp_9.rt,pre_instru_resp_8.keys,pre_instru_resp_8.rt,pre_instru_resp_4.keys,pre_instru_resp_4.rt,pre_instru_resp_5.keys,pre_instru_resp_5.rt,pre_instru_resp_6.keys,pre_instru_resp_6.rt,key_resp_3.keys,key_resp_3.rt,key_resp_4.keys,key_resp_4.rt,key_resp_5.keys,key_resp_5.rt,key_resp_6.keys,key_resp_6.rt,key_resp_7.keys,key_resp_7.rt,trials_2.thisRepN,trials_2.thisTrialN,trials_2.thisN,trials_2.thisIndex,trials_2.ran,participant,session,date,expName,psychopyVersion,OS,frameRate,SONAid,pre_instru_resp.keys,pre_instru_resp.rt,clicked,judge_2.x,judge_2.y,judge_2.leftButton,judge_2.midButton,judge_2.rightButton,judge_2.clicked_name,trials.thisRepN,trials.thisTrialN,trials.thisN,trials.thisIndex,trials.ran,prac_answer,prac_dot_sti,dotlefttext,dotrighttext,prac_acc,judge.x,judge.y,judge.leftButton,judge.midButton,judge.rightButton,judge.clicked_name,clicked_guilt,slider_guilt.response,slider_guilt.rt,key_guilt.keys,key_guilt.rt,share_slider.response,share_slider.rt,key_share.keys,slider_apology.response,slider_apology.rt,key_apology.keys,slider_hide.response,slider_hide.rt,slider_forgiveness.response,slider_forgiveness.rt,key_forgiveness.keys,slider_mad.response,slider_mad.rt,trialseq.thisRepN,trialseq.thisTrialN,trialseq.thisN,trialseq.thisIndex,trialseq.ran,type_trial,stipic,DV,picture,answer,number,key_forgiveness.rt,key_apology.rt,key_share.rt
"[49,90,192,179,63,157,34,65,112,142,118,103,83,149,121,9,54,174,52,70,139,75,36,101,147,15,144,76,189,175,191,138,128,167,105,124,91,166,113,199,85,185]",R_1EYAm4n1kovKRIe,space,1.4111,space,2.0701,space,12.2611,space,15.0141,space,29.6155,space,13.9311,space,5.1565,3,12.9256,1,4.4285,2,8.0696,2,8.3903,2,4.5226,0,0,0,0,1,R_1EYAm4n1kovKRIe,1,2024-05-26_11h10.42.562,interaction task,2021.2.3,Linux x86_64,60.24096386,121505,,,,,,,,,,,,,,,,,,,,,,,,,,,,,,,,,,,,,,,,,,,,,,,,,,,,,,,,,
,,,,space,1.0864,space,0.8642,space,0.3565,space,0.3929,space,0.722,space,0.3511,3,2.4006,1,2.3326,3,2.0283,2,1.199,2,0.8869,1,0,1,0,1,R_1EYAm4n1kovKRIe,1,2024-05-26_11h10.42.562,interaction task,2021.2.3,Linux x86_64,60.24096386,121505,,,,,,,,,,,,,,,,,,,,,,,,,,,,,,,,,,,,,,,,,,,,,,,,,,,,,,,,,
,,,,,,,,,,,,,,,,,,,,,,,,,,,,,,,R_1EYAm4n1kovKRIe,1,2024-05-26_11h10.42.562,interaction task,2021.2.3,Linux x86_64,60.24096386,121505,space,3.1781,"[""RightButton_2""]",0.305491686,-0.254922372,1,0,0,RightButton_2,0,0,0,2,1,RightButton_2,11dot1.png,Smaller,Greater,,,,,,,,,,,,,,,,,,,,,,,,,,,,,,,,,,,,,,,
,,,,,,,,,,,,,,,,,,,,,,,,,,,,,,,R_1EYAm4n1kovKRIe,1,2024-05-26_11h10.42.562,interaction task,2021.2.3,Linux x86_64,60.24096386,121505,,,"[""LeftButton_2""]",-0.245591561,-0.286544941,1,0,0,LeftButton_2,0,1,1,1,1,LeftButton_2,9dot2.png,Smaller,Greater,,,,,,,,,,,,,,,,,,,,,,,,,,,,,,,,,,,,,,,
,,,,,,,,,,,,,,,,,,,,,,,,,,,,,,,R_1EYAm4n1kovKRIe,1,2024-05-26_11h10.42.562,interaction task,2021.2.3,Linux x86_64,60.24096386,121505,,,"[""LeftButton_2""]",-0.244592746,-0.320199896,1,0,0,LeftButton_2,0,2,2,0,1,LeftButton_2,11dot2.png,Greater,Smaller,,,,,,,,,,,,,,,,,,,,,,,,,,,,,,,,,,,,,,,
,,,,,,,,,,,,,,,,,,,,,,,,,,,,,,,R_1EYAm4n1kovKRIe,1,2024-05-26_11h10.42.562,interaction task,2021.2.3,Linux x86_64,60.24096386,121505,,,,,,,,,,,,,,,,,Greater,Smaller,0.6,0.253443956,-0.487533004,1,0,0,RightButton,"[""RightButton""]",9,8.1934,space,0.9269,,,,,,,,,,,,,,0,0,0,0,1,1,both_wrong.png,0,RandomDot16.png,No answer,19,,,
,,,,,,,,,,,,,,,,,,,,,,,,,,,,,,,R_1EYAm4n1kovKRIe,1,2024-05-26_11h10.42.562,interaction task,2021.2.3,Linux x86_64,60.24096386,121505,,,,,,,,,,,,,,,,,Smaller,Greater,,0.25753355,-0.476695449,1,0,0,RightButton,"[""RightButton""]",,,,,,,,,,,,,67.4720199,6.926,space,38.38883056,9.8556,0,1,1,1,1,1,both_wrong.png,3,RandomDot29.png,No answer,19,0.4219,,
,,,,,,,,,,,,,,,,,,,,,,,,,,,,,,,R_1EYAm4n1kovKRIe,1,2024-05-26_11h10.42.562,interaction task,2021.2.3,Linux x86_64,60.24096386,121505,,,,,,,,,,,,,,,,,Greater,Smaller,,-0.227288644,-0.470589108,1,0,0,LeftButton,"[""LeftButton""]",,,,,,,,,,,,,,,,,,0,2,2,2,1,4,both_right.png,10,RandomDot41.png,LeftButton,5,,,
,,,,,,,,,,,,,,,,,,,,,,,,,,,,,,,R_1EYAm4n1kovKRIe,1,2024-05-26_11h10.42.562,interaction task,2021.2.3,Linux x86_64,60.24096386,121505,,,,,,,,,,,,,,,,,Smaller,Greater,,-0.272094727,-0.522073534,1,0,0,LeftButton,"[""LeftButton""]",,,,,,,,39,5.1396,space,57,9.9306,,,,,,0,3,3,3,1,3,only_sub_wrong.png,2,RandomDot15.png,No answer,20,,0.9942,
,,,,,,,,,,,,,,,,,,,,,,,,,,,,,,,R_1EYAm4n1kovKRIe,1,2024-05-26_11h10.42.562,interaction task,2021.2.3,Linux x86_64,60.24096386,121505,,,,,,,,,,,,,,,,,Greater,Smaller,,-0.258196513,-0.499501688,1,0,0,LeftButton,"[""LeftButton""]",,,,,0.108252962,7.4715,space,,,,,,,,,,,0,4,4,4,1,1,both_wrong.png,1,RandomDot27.png,No answer,19,,,0.7997
,,,,,,,,,,,,,,,,,,,,,,,,,,,,,,,R_1EYAm4n1kovKRIe,1,2024-05-26_11h10.42.562,interaction task,2021.2.3,Linux x86_64,60.24096386,121505,,,,,,,,,,,,,,,,,Greater,Smaller,,0.307921092,-0.50515634,1,0,0,RightButton,"[""RightButton""]",,,,,0.967090925,4.5356,space,,,,,,,,,,,0,5,5,5,1,3,only_sub_wrong.png,1,RandomDot8.png,No answer,21,,,2.2138
,,,,,,,,,,,,,,,,,,,,,,,,,,,,,,,R_1EYAm4n1kovKRIe,1,2024-05-26_11h10.42.562,interaction task,2021.2.3,Linux x86_64,60.24096386,121505,,,,,,,,,,,,,,,,,Smaller,Greater,,0.218138933,-0.525249481,1,0,0,RightButton,"[""RightButton""]",,,,,,,,,,,,,,,,,,0,6,6,6,1,0,both_right.png,2,RandomDot15.png,No answer,21,,,
,,,,,,,,,,,,,,,,,,,,,,,,,,,,,,,R_1EYAm4n1kovKRIe,1,2024-05-26_11h10.42.562,interaction task,2021.2.3,Linux x86_64,60.24096386,121505,,,,,,,,,,,,,,,,,Greater,Smaller,,-0.360983968,-0.496965338,1,0,0,LeftButton,"[""LeftButton""]",,,,,0.998162826,3.5474,space,,,,,,,,,,,0,7,7,7,1,1,both_wrong.png,1,RandomDot26.png,No answer,21,,,0.737
,,,,,,,,,,,,,,,,,,,,,,,,,,,,,,,R_1EYAm4n1kovKRIe,1,2024-05-26_11h10.42.562,interaction task,2021.2.3,Linux x86_64,60.24096386,121505,,,,,,,,,,,,,,,,,Greater,Smaller,,0.237463554,-0.524886379,1,0,0,RightButton,"[""RightButton""]",,,,,1.0032173,2.3914,space,,,,,,,,,,,0,8,8,8,1,2,only_sub_right.png,1,RandomDot32.png,No answer,19,,,0.5498
,,,,,,,,,,,,,,,,,,,,,,,,,,,,,,,R_1EYAm4n1kovKRIe,1,2024-05-26_11h10.42.562,interaction task,2021.2.3,Linux x86_64,60.24096386,121505,,,,,,,,,,,,,,,,,Smaller,Greater,,-0.2227482,-0.526031353,1,0,0,LeftButton,"[""LeftButton""]",,,,,,,,,,,,,69.09126738,4.0233,space,37.61134517,6.1854,0,9,9,9,1,2,only_sub_right.png,3,RandomDot18.png,No answer,20,0.4681,,
,,,,,,,,,,,,,,,,,,,,,,,,,,,,,,,R_1EYAm4n1kovKRIe,1,2024-05-26_11h10.42.562,interaction task,2021.2.3,Linux x86_64,60.24096386,121505,,,,,,,,,,,,,,,,,Smaller,Greater,,0.23197341,-0.51591308,1,0,0,RightButton,"[""RightButton""]",,,,,0.976032813,3.0551,space,,,,,,,,,,,0,10,10,10,1,2,only_sub_right.png,1,RandomDot34.png,No answer,19,,,5.6457
,,,,,,,,,,,,,,,,,,,,,,,,,,,,,,,R_1EYAm4n1kovKRIe,1,2024-05-26_11h10.42.562,interaction task,2021.2.3,Linux x86_64,60.24096386,121505,,,,,,,,,,,,,,,,,Smaller,Greater,,0.330441395,-0.500322413,1,0,0,RightButton,"[""RightButton""]",24,5.0674,space,0.7003,,,,,,,,,,,,,,0,11,11,11,1,2,only_sub_right.png,0,RandomDot21.png,No answer,21,,,
,,,,,,,,,,,,,,,,,,,,,,,,,,,,,,,R_1EYAm4n1kovKRIe,1,2024-05-26_11h10.42.562,interaction task,2021.2.3,Linux x86_64,60.24096386,121505,,,,,,,,,,,,,,,,,Smaller,Greater,,0.233483871,-0.516985717,1,0,0,RightButton,"[""RightButton""]",,,,,,,,44,3.3531,space,64,7.6722,,,,,,0,12,12,12,1,1,both_wrong.png,2,RandomDot8.png,No answer,20,,0.5539,
,,,,,,,,,,,,,,,,,,,,,,,,,,,,,,,R_1EYAm4n1kovKRIe,1,2024-05-26_11h10.42.562,interaction task,2021.2.3,Linux x86_64,60.24096386,121505,,,,,,,,,,,,,,,,,Greater,Smaller,,0.256523768,-0.499684228,1,0,0,RightButton,"[""RightButton""]",37,1.6282,space,0.3297,,,,,,,,,,,,,,0,13,13,13,1,3,only_sub_wrong.png,0,RandomDot24.png,No answer,20,,,
,,,,,,,,,,,,,,,,,,,,,,,,,,,,,,,R_1EYAm4n1kovKRIe,1,2024-05-26_11h10.42.562,interaction task,2021.2.3,Linux x86_64,60.24096386,121505,,,,,,,,,,,,,,,,,Greater,Smaller,,-0.204870303,-0.471217544,1,0,0,LeftButton,"[""LeftButton""]",,,,,,,,45,2.4082,space,70,3.4242,,,,,,0,14,14,14,1,2,only_sub_right.png,2,RandomDot18.png,No answer,19,,0.34,
,,,,,,,,,,,,,,,,,,,,,,,,,,,,,,,R_1EYAm4n1kovKRIe,1,2024-05-26_11h10.42.562,interaction task,2021.2.3,Linux x86_64,60.24096386,121505,,,,,,,,,,,,,,,,,Smaller,Greater,,-0.275013685,-0.506224032,1,0,0,LeftButton,"[""LeftButton""]",,,,,,,,,,,,,,,,,,0,15,15,15,1,0,both_right.png,0,RandomDot5.png,No answer,21,,,
,,,,,,,,,,,,,,,,,,,,,,,,,,,,,,,R_1EYAm4n1kovKRIe,1,2024-05-26_11h10.42.562,interaction task,2021.2.3,Linux x86_64,60.24096386,121505,,,,,,,,,,,,,,,,,Smaller,Greater,,0.25982666,-0.50422287,1,0,0,RightButton,"[""RightButton""]",38,2.1326,space,0.4697,,,,,,,,,,,,,,0,16,16,16,1,1,both_wrong.png,0,RandomDot23.png,No answer,20,,,
,,,,,,,,,,,,,,,,,,,,,,,,,,,,,,,R_1EYAm4n1kovKRIe,1,2024-05-26_11h10.42.562,interaction task,2021.2.3,Linux x86_64,60.24096386,121505,,,,,,,,,,,,,,,,,Smaller,Greater,,-0.26324741,-0.50643271,1,0,0,LeftButton,"[""LeftButton""]",,,,,,,,44,2.0831,space,66,3.5616,,,,,,0,17,17,17,1,3,only_sub_wrong.png,2,RandomDot15.png,No answer,21,,0.2953,
,,,,,,,,,,,,,,,,,,,,,,,,,,,,,,,R_1EYAm4n1kovKRIe,1,2024-05-26_11h10.42.562,interaction task,2021.2.3,Linux x86_64,60.24096386,121505,,,,,,,,,,,,,,,,,Greater,Smaller,,-0.209866921,-0.508516524,1,0,0,LeftButton,"[""LeftButton""]",30,2.0057,space,0.501,,,,,,,,,,,,,,0,18,18,18,1,1,both_wrong.png,0,RandomDot10.png,No answer,20,,,
,,,,,,,,,,,,,,,,,,,,,,,,,,,,,,,R_1EYAm4n1kovKRIe,1,2024-05-26_11h10.42.562,interaction task,2021.2.3,Linux x86_64,60.24096386,121505,,,,,,,,,,,,,,,,,Smaller,Greater,,0.221167167,-0.482962008,1,0,0,RightButton,"[""RightButton""]",,,,,0.965451002,8.0281,space,,,,,,,,,,,0,19,19,19,1,1,both_wrong.png,1,RandomDot29.png,No answer,19,,,0.4108
,,,,,,,,,,,,,,,,,,,,,,,,,,,,,,,R_1EYAm4n1kovKRIe,1,2024-05-26_11h10.42.562,interaction task,2021.2.3,Linux x86_64,60.24096386,121505,,,,,,,,,,,,,,,,,Smaller,Greater,,0.266777436,-0.467860328,1,0,0,RightButton,"[""RightButton""]",,,,,,,,,,,,,38.56034744,3.1099,space,61.46465841,4.12,0,20,20,20,1,2,only_sub_right.png,3,RandomDot30.png,No answer,20,0.2873,,
,,,,,,,,,,,,,,,,,,,,,,,,,,,,,,,R_1EYAm4n1kovKRIe,1,2024-05-26_11h10.42.562,interaction task,2021.2.3,Linux x86_64,60.24096386,121505,,,,,,,,,,,,,,,,,Greater,Smaller,,0.290767829,-0.53579726,1,0,0,RightButton,"[""RightButton""]",,,,,,,,39,1.3675,space,59,2.3866,,,,,,0,21,21,21,1,1,both_wrong.png,2,RandomDot10.png,No answer,20,,0.3554,
,,,,,,,,,,,,,,,,,,,,,,,,,,,,,,,R_1EYAm4n1kovKRIe,1,2024-05-26_11h10.42.562,interaction task,2021.2.3,Linux x86_64,60.24096386,121505,,,,,,,,,,,,,,,,,Greater,Smaller,,0.317651669,-0.509415238,1,0,0,RightButton,"[""RightButton""]",,,,,,,,,,,,,,,,,,0,22,22,22,1,0,both_right.png,3,RandomDot3.png,No answer,20,,,
,,,,,,,,,,,,,,,,,,,,,,,,,,,,,,,R_1EYAm4n1kovKRIe,1,2024-05-26_11h10.42.562,interaction task,2021.2.3,Linux x86_64,60.24096386,121505,,,,,,,,,,,,,,,,,Greater,Smaller,,0.233175198,-0.540066048,1,0,0,RightButton,"[""RightButton""]",29,5.4671,space,2.1877,,,,,,,,,,,,,,0,23,23,23,1,2,only_sub_right.png,0,RandomDot18.png,No answer,21,,,
,,,,,,,,,,,,,,,,,,,,,,,,,,,,,,,R_1EYAm4n1kovKRIe,1,2024-05-26_11h10.42.562,interaction task,2021.2.3,Linux x86_64,60.24096386,121505,,,,,,,,,,,,,,,,,Greater,Smaller,,-0.281296333,-0.480618936,1,0,0,LeftButton,"[""LeftButton""]",39,3.2267,space,0.8501,,,,,,,,,,,,,,0,24,24,24,1,3,only_sub_wrong.png,0,RandomDot5.png,No answer,20,,,
,,,,,,,,,,,,,,,,,,,,,,,,,,,,,,,R_1EYAm4n1kovKRIe,1,2024-05-26_11h10.42.562,interaction task,2021.2.3,Linux x86_64,60.24096386,121505,,,,,,,,,,,,,,,,,Greater,Smaller,,-0.278203964,-0.518986879,1,0,0,LeftButton,"[""LeftButton""]",,,,,,,,,,,,,,,,,,0,25,25,25,1,0,both_right.png,1,RandomDot35.png,No answer,21,,,
,,,,,,,,,,,,,,,,,,,,,,,,,,,,,,,R_1EYAm4n1kovKRIe,1,2024-05-26_11h10.42.562,interaction task,2021.2.3,Linux x86_64,60.24096386,121505,,,,,,,,,,,,,,,,,Greater,Smaller,,-0.227748315,-0.502030973,1,0,0,LeftButton,"[""LeftButton""]",31,3.4189,space,0.3373,,,,,,,,,,,,,,0,26,26,26,1,3,only_sub_wrong.png,0,RandomDot33.png,No answer,19,,,
,,,,,,,,,,,,,,,,,,,,,,,,,,,,,,,R_1EYAm4n1kovKRIe,1,2024-05-26_11h10.42.562,interaction task,2021.2.3,Linux x86_64,60.24096386,121505,,,,,,,,,,,,,,,,,Greater,Smaller,,0.304853837,-0.525275619,1,0,0,RightButton,"[""RightButton""]",,,,,,,,37,3.8193,space,63,4.7257,,,,,,0,27,27,27,1,1,both_wrong.png,2,RandomDot9.png,No answer,21,,0.2505,
,,,,,,,,,,,,,,,,,,,,,,,,,,,,,,,R_1EYAm4n1kovKRIe,1,2024-05-26_11h10.42.562,interaction task,2021.2.3,Linux x86_64,60.24096386,121505,,,,,,,,,,,,,,,,,Smaller,Greater,,-0.245423635,-0.517982059,1,0,0,LeftButton,"[""LeftButton""]",,,,,,,,,,,,,37.03877934,1.6427,space,63.45106247,2.6668,0,28,28,28,1,3,only_sub_wrong.png,3,RandomDot38.png,No answer,20,0.2378,,
,,,,,,,,,,,,,,,,,,,,,,,,,,,,,,,R_1EYAm4n1kovKRIe,1,2024-05-26_11h10.42.562,interaction task,2021.2.3,Linux x86_64,60.24096386,121505,,,,,,,,,,,,,,,,,Smaller,Greater,,0.223962307,-0.542145341,1,0,0,RightButton,"[""RightButton""]",,,,,,,,41,1.4842,space,62,2.5381,,,,,,0,29,29,29,1,3,only_sub_wrong.png,2,RandomDot17.png,No answer,19,,0.2889,
,,,,,,,,,,,,,,,,,,,,,,,,,,,,,,,R_1EYAm4n1kovKRIe,1,2024-05-26_11h10.42.562,interaction task,2021.2.3,Linux x86_64,60.24096386,121505,,,,,,,,,,,,,,,,,Smaller,Greater,,-0.183174213,-0.509730869,1,0,0,LeftButton,"[""LeftButton""]",,,,,,,,,,,,,39.49271661,1.7367,space,62.40208494,2.7101,0,30,30,30,1,3,only_sub_wrong.png,3,RandomDot36.png,No answer,21,0.2618,,
,,,,,,,,,,,,,,,,,,,,,,,,,,,,,,,R_1EYAm4n1kovKRIe,1,2024-05-26_11h10.42.562,interaction task,2021.2.3,Linux x86_64,60.24096386,121505,,,,,,,,,,,,,,,,,Smaller,Greater,,-0.190311829,-0.505796503,1,0,0,LeftButton,"[""LeftButton""]",,,,,,,,,,,,,40.41577381,1.7848,space,60.93184506,3.0416,0,31,31,31,1,2,only_sub_right.png,3,RandomDot25.png,No answer,21,0.2566,,
,,,,,,,,,,,,,,,,,,,,,,,,,,,,,,,R_1EYAm4n1kovKRIe,1,2024-05-26_11h10.42.562,interaction task,2021.2.3,Linux x86_64,60.24096386,121505,,,,,,,,,,,,,,,,,Smaller,Greater,,0.245980501,-0.532505035,1,0,0,RightButton,"[""RightButton""]",,,,,,,,38,6.654,space,63,7.5224,,,,,,0,32,32,32,1,2,only_sub_right.png,2,RandomDot22.png,No answer,20,,0.3136,
,,,,,,,,,,,,,,,,,,,,,,,,,,,,,,,R_1EYAm4n1kovKRIe,1,2024-05-26_11h10.42.562,interaction task,2021.2.3,Linux x86_64,60.24096386,121505,,,,,,,,,,,,,,,,,Smaller,Greater,,-0.309345643,-0.506367295,1,0,0,LeftButton,"[""LeftButton""]",,,,,1.041273673,2.2303,space,,,,,,,,,,,0,33,33,33,1,3,only_sub_wrong.png,1,RandomDot22.png,No answer,20,,,0.4517
,,,,,,,,,,,,,,,,,,,,,,,,,,,,,,,R_1EYAm4n1kovKRIe,1,2024-05-26_11h10.42.562,interaction task,2021.2.3,Linux x86_64,60.24096386,121505,,,,,,,,,,,,,,,,,Smaller,Greater,,-0.255863269,-0.524837211,1,0,0,LeftButton,"[""LeftButton""]",9,3.1615,space,1.0924,,,,,,,,,,,,,,0,34,34,34,1,2,only_sub_right.png,0,RandomDot17.png,No answer,20,,,
,,,,,,,,,,,,,,,,,,,,,,,,,,,,,,,R_1EYAm4n1kovKRIe,1,2024-05-26_11h10.42.562,interaction task,2021.2.3,Linux x86_64,60.24096386,121505,,,,,,,,,,,,,,,,,Greater,Smaller,,-0.276836236,-0.523383247,1,0,0,LeftButton,"[""LeftButton""]",,,,,,,,0,6.1698,space,100,7.5734,,,,,,0,35,35,35,1,2,only_sub_right.png,2,RandomDot20.png,No answer,20,,0.3345,
,,,,,,,,,,,,,,,,,,,,,,,,,,,,,,,R_1EYAm4n1kovKRIe,1,2024-05-26_11h10.42.562,interaction task,2021.2.3,Linux x86_64,60.24096386,121505,,,,,,,,,,,,,,,,,Smaller,Greater,,0.297735135,-0.513099953,1,0,0,RightButton,"[""RightButton""]",,,,,,,,,,,,,77.06696289,4.5711,space,29.45945271,7.124,0,36,36,36,1,1,both_wrong.png,3,RandomDot23.png,No answer,20,0.334,,
,,,,,,,,,,,,,,,,,,,,,,,,,,,,,,,R_1EYAm4n1kovKRIe,1,2024-05-26_11h10.42.562,interaction task,2021.2.3,Linux x86_64,60.24096386,121505,,,,,,,,,,,,,,,,,Smaller,Greater,,-0.289559046,-0.518735391,1,0,0,LeftButton,"[""LeftButton""]",,,,,1.06463472,3.7575,space,,,,,,,,,,,0,37,37,37,1,3,only_sub_wrong.png,1,RandomDot15.png,No answer,20,,,0.3349
,,,,,,,,,,,,,,,,,,,,,,,,,,,,,,,R_1EYAm4n1kovKRIe,1,2024-05-26_11h10.42.562,interaction task,2021.2.3,Linux x86_64,60.24096386,121505,,,,,,,,,,,,,,,,,Greater,Smaller,,0.296412945,-0.514478754,1,0,0,RightButton,"[""RightButton""]",,,,,0.740348498,1.9001,space,,,,,,,,,,,0,38,38,38,1,2,only_sub_right.png,1,RandomDot3.png,No answer,20,,,0.6764
,,,,,,,,,,,,,,,,,,,,,,,,,,,,,,,R_1EYAm4n1kovKRIe,1,2024-05-26_11h10.42.562,interaction task,2021.2.3,Linux x86_64,60.24096386,121505,,,,,,,,,,,,,,,,,Greater,Smaller,,-0.243041595,-0.516438661,1,0,0,LeftButton,"[""LeftButton""]",,,,,,,,,,,,,,,,,,0,39,39,39,1,5,both_right.png,10,RandomDot42.png,RightButton,19,,,
,,,,,,,,,,,,,,,,,,,,,,,,,,,,,,,R_1EYAm4n1kovKRIe,1,2024-05-26_11h10.42.562,interaction task,2021.2.3,Linux x86_64,60.24096386,121505,,,,,,,,,,,,,,,,,Greater,Smaller,,-0.257488807,-0.499976405,1,0,0,LeftButton,"[""LeftButton""]",,,,,,,,,,,,,56.86856633,2.4091,space,32.06169918,4.1122,0,40,40,40,1,1,both_wrong.png,3,RandomDot40.png,No answer,21,0.1672,,
,,,,,,,,,,,,,,,,,,,,,,,,,,,,,,,R_1EYAm4n1kovKRIe,1,2024-05-26_11h10.42.562,interaction task,2021.2.3,Linux x86_64,60.24096386,121505,,,,,,,,,,,,,,,,,Greater,Smaller,,-0.209574858,-0.482351798,1,0,0,LeftButton,"[""LeftButton""]",,,,,,,,,,,,,59.26647925,2.5948,space,36.85383235,3.509,0,41,41,41,1,3,only_sub_wrong.png,3,RandomDot34.png,No answer,20,0.3848,,
