chooserow,ParID,pre_instru_resp_2.keys,pre_instru_resp_2.rt,pre_instru_resp_3.keys,pre_instru_resp_3.rt,pre_instru_resp_9.keys,pre_instru_resp_9.rt,pre_instru_resp_8.keys,pre_instru_resp_8.rt,pre_instru_resp_4.keys,pre_instru_resp_4.rt,pre_instru_resp_5.keys,pre_instru_resp_5.rt,pre_instru_resp_6.keys,pre_instru_resp_6.rt,key_resp_3.keys,key_resp_3.rt,key_resp_4.keys,key_resp_4.rt,key_resp_5.keys,key_resp_5.rt,key_resp_6.keys,key_resp_6.rt,key_resp_7.keys,key_resp_7.rt,trials_2.thisRepN,trials_2.thisTrialN,trials_2.thisN,trials_2.thisIndex,trials_2.ran,participant,session,date,expName,psychopyVersion,OS,frameRate,SONAid,pre_instru_resp.keys,pre_instru_resp.rt,clicked,judge_2.x,judge_2.y,judge_2.leftButton,judge_2.midButton,judge_2.rightButton,judge_2.clicked_name,trials.thisRepN,trials.thisTrialN,trials.thisN,trials.thisIndex,trials.ran,prac_answer,prac_dot_sti,dotlefttext,dotrighttext,prac_acc,judge.x,judge.y,judge.leftButton,judge.midButton,judge.rightButton,judge.clicked_name,clicked_guilt,slider_guilt.response,slider_guilt.rt,key_guilt.keys,share_slider.response,share_slider.rt,key_share.keys,slider_apology.response,slider_apology.rt,key_apology.keys,slider_hide.response,slider_hide.rt,slider_forgiveness.response,slider_forgiveness.rt,key_forgiveness.keys,key_forgiveness.rt,slider_mad.response,slider_mad.rt,trialseq.thisRepN,trialseq.thisTrialN,trialseq.thisN,trialseq.thisIndex,trialseq.ran,type_trial,stipic,DV,picture,answer,number,key_guilt.rt,key_share.rt,key_apology.rt
"[186,6,23,202,139,97,86,26,66,65,135,122,105,84,78,149,101,180,80,115,176,109,127,40,118,189,130,62,159,153,81,167,55,146,85,195,179,56,143,173,160,48]",R_1Et4aI0weGQGovt,space,1.1359,space,238.2207,space,10.8487,space,79.5529,space,36.5969,space,17.8931,space,5.3483,1,7.002,3,10.519,3,6.8362,1,4.9419,3,4.3744,0,0,0,0,1,R_1Et4aI0weGQGovt,1,2024-05-02_17h23.39.576,interaction task,2021.2.3,MacIntel,59.88023952,120280,,,,,,,,,,,,,,,,,,,,,,,,,,,,,,,,,,,,,,,,,,,,,,,,,,,,,,,,,
,,,,space,1.3178,space,9.8258,space,4.2144,space,38.6757,space,3.9617,space,1.5968,3,3.6488,1,4.8759,3,4.1918,2,4.1604,2,3.9029,1,0,1,0,1,R_1Et4aI0weGQGovt,1,2024-05-02_17h23.39.576,interaction task,2021.2.3,MacIntel,59.88023952,120280,,,,,,,,,,,,,,,,,,,,,,,,,,,,,,,,,,,,,,,,,,,,,,,,,,,,,,,,,
,,,,,,,,,,,,,,,,,,,,,,,,,,,,,,,R_1Et4aI0weGQGovt,1,2024-05-02_17h23.39.576,interaction task,2021.2.3,MacIntel,59.88023952,120280,space,2.1375,"[""RightButton_2""]",0.311509487,-0.34718415,1,0,0,RightButton_2,0,0,0,1,1,LeftButton_2,9dot1.png,Smaller,Greater,,,,,,,,,,,,,,,,,,,,,,,,,,,,,,,,,,,,,,,
,,,,,,,,,,,,,,,,,,,,,,,,,,,,,,,R_1Et4aI0weGQGovt,1,2024-05-02_17h23.39.576,interaction task,2021.2.3,MacIntel,59.88023952,120280,,,"[""LeftButton_2""]",-0.259491257,-0.324294895,1,0,0,LeftButton_2,0,1,1,0,1,LeftButton_2,9dot2.png,Smaller,Greater,,,,,,,,,,,,,,,,,,,,,,,,,,,,,,,,,,,,,,,
,,,,,,,,,,,,,,,,,,,,,,,,,,,,,,,R_1Et4aI0weGQGovt,1,2024-05-02_17h23.39.576,interaction task,2021.2.3,MacIntel,59.88023952,120280,,,"[""RightButton_2""]",0.215908668,-0.320251584,1,0,0,RightButton_2,0,2,2,2,1,RightButton_2,11dot2.png,Smaller,Greater,,,,,,,,,,,,,,,,,,,,,,,,,,,,,,,,,,,,,,,
,,,,,,,,,,,,,,,,,,,,,,,,,,,,,,,R_1Et4aI0weGQGovt,1,2024-05-02_17h23.39.576,interaction task,2021.2.3,MacIntel,59.88023952,120280,,,,,,,,,,,,,,,,,Smaller,Greater,0.4,0.290713356,-0.516744335,1,0,0,RightButton,"[""RightButton""]",,,,,,,,,,,,50.20902853,15.1434,space,1.0058,49.64394691,20.5435,0,0,0,0,1,3,only_sub_wrong.png,3,RandomDot9.png,No answer,19,,,
,,,,,,,,,,,,,,,,,,,,,,,,,,,,,,,R_1Et4aI0weGQGovt,1,2024-05-02_17h23.39.576,interaction task,2021.2.3,MacIntel,59.88023952,120280,,,,,,,,,,,,,,,,,Smaller,Greater,,-0.255705915,-0.485882675,1,0,0,LeftButton,"[""LeftButton""]",,,,,,,,,,,,,,,,,,0,1,1,1,1,0,both_right.png,0,RandomDot22.png,No answer,19,,,
,,,,,,,,,,,,,,,,,,,,,,,,,,,,,,,R_1Et4aI0weGQGovt,1,2024-05-02_17h23.39.576,interaction task,2021.2.3,MacIntel,59.88023952,120280,,,,,,,,,,,,,,,,,Smaller,Greater,,-0.299874442,-0.543509381,1,0,0,LeftButton,"[""LeftButton""]",,,,,,,,,,,,,,,,,,0,2,2,2,1,0,both_right.png,1,RandomDot3.png,No answer,19,,,
,,,,,,,,,,,,,,,,,,,,,,,,,,,,,,,R_1Et4aI0weGQGovt,1,2024-05-02_17h23.39.576,interaction task,2021.2.3,MacIntel,59.88023952,120280,,,,,,,,,,,,,,,,,Smaller,Greater,,-0.23296596,-0.529795626,1,0,0,LeftButton,"[""LeftButton""]",,,,,,,,,,,,,,,,,,0,3,3,3,1,5,both_right.png,10,RandomDot42.png,LeftButton,21,,,
,,,,,,,,,,,,,,,,,,,,,,,,,,,,,,,R_1Et4aI0weGQGovt,1,2024-05-02_17h23.39.576,interaction task,2021.2.3,MacIntel,59.88023952,120280,,,,,,,,,,,,,,,,,Smaller,Greater,,-0.260365513,-0.526947795,1,0,0,LeftButton,"[""LeftButton""]",,,,,,,,,,,,100,2.7643,space,0.9918,0.149748978,7.6094,0,4,4,4,1,2,only_sub_right.png,3,RandomDot30.png,No answer,20,,,
,,,,,,,,,,,,,,,,,,,,,,,,,,,,,,,R_1Et4aI0weGQGovt,1,2024-05-02_17h23.39.576,interaction task,2021.2.3,MacIntel,59.88023952,120280,,,,,,,,,,,,,,,,,Greater,Smaller,,0.251762463,-0.474194384,1,0,0,RightButton,"[""RightButton""]",0,5.5777,space,,,,,,,,,,,,,,,0,5,5,5,1,2,only_sub_right.png,0,RandomDot8.png,No answer,20,0.9869,,
,,,,,,,,,,,,,,,,,,,,,,,,,,,,,,,R_1Et4aI0weGQGovt,1,2024-05-02_17h23.39.576,interaction task,2021.2.3,MacIntel,59.88023952,120280,,,,,,,,,,,,,,,,,Greater,Smaller,,0.243940662,-0.521031311,1,0,0,RightButton,"[""RightButton""]",,,,,,,,,,,,96.07787323,13.0781,space,4.7582,0.611960378,11.4771,0,6,6,6,1,1,both_wrong.png,3,RandomDot13.png,No answer,21,,,
,,,,,,,,,,,,,,,,,,,,,,,,,,,,,,,R_1Et4aI0weGQGovt,1,2024-05-02_17h23.39.576,interaction task,2021.2.3,MacIntel,59.88023952,120280,,,,,,,,,,,,,,,,,Greater,Smaller,,-0.305106027,-0.52399336,1,0,0,LeftButton,"[""LeftButton""]",,,,,,,,,,,,,,,,,,0,7,7,7,1,0,both_right.png,2,RandomDot36.png,No answer,19,,,
,,,,,,,,,,,,,,,,,,,,,,,,,,,,,,,R_1Et4aI0weGQGovt,1,2024-05-02_17h23.39.576,interaction task,2021.2.3,MacIntel,59.88023952,120280,,,,,,,,,,,,,,,,,Smaller,Greater,,-0.282142857,-0.510721248,1,0,0,LeftButton,"[""LeftButton""]",,,,3.007463728,10.7011,space,,,,,,,,,,,,0,8,8,8,1,1,both_wrong.png,1,RandomDot10.png,No answer,19,,1.0188,
,,,,,,,,,,,,,,,,,,,,,,,,,,,,,,,R_1Et4aI0weGQGovt,1,2024-05-02_17h23.39.576,interaction task,2021.2.3,MacIntel,59.88023952,120280,,,,,,,,,,,,,,,,,Greater,Smaller,,0.288736979,-0.534250122,1,0,0,RightButton,"[""RightButton""]",,,,3.016462054,3.1114,space,,,,,,,,,,,,0,9,9,9,1,1,both_wrong.png,1,RandomDot26.png,No answer,21,,1.4215,
,,,,,,,,,,,,,,,,,,,,,,,,,,,,,,,R_1Et4aI0weGQGovt,1,2024-05-02_17h23.39.576,interaction task,2021.2.3,MacIntel,59.88023952,120280,,,,,,,,,,,,,,,,,Greater,Smaller,,-0.25563151,-0.522379081,1,0,0,LeftButton,"[""LeftButton""]",,,,,,,,,,,,100,2.0476,space,0.4812,0,3.7119,0,10,10,10,1,2,only_sub_right.png,3,RandomDot26.png,No answer,20,,,
,,,,,,,,,,,,,,,,,,,,,,,,,,,,,,,R_1Et4aI0weGQGovt,1,2024-05-02_17h23.39.576,interaction task,2021.2.3,MacIntel,59.88023952,120280,,,,,,,,,,,,,,,,,Greater,Smaller,,0.297609747,-0.510211075,1,0,0,RightButton,"[""RightButton""]",,,,,,,0,4.288,space,0,7.0501,,,,,,,0,11,11,11,1,2,only_sub_right.png,2,RandomDot33.png,No answer,20,,,0.7774
,,,,,,,,,,,,,,,,,,,,,,,,,,,,,,,R_1Et4aI0weGQGovt,1,2024-05-02_17h23.39.576,interaction task,2021.2.3,MacIntel,59.88023952,120280,,,,,,,,,,,,,,,,,Smaller,Greater,,0.309412202,-0.520247015,1,0,0,RightButton,"[""RightButton""]",0,1.6561,space,,,,,,,,,,,,,,,0,12,12,12,1,2,only_sub_right.png,0,RandomDot17.png,No answer,20,0.474,,
,,,,,,,,,,,,,,,,,,,,,,,,,,,,,,,R_1Et4aI0weGQGovt,1,2024-05-02_17h23.39.576,interaction task,2021.2.3,MacIntel,59.88023952,120280,,,,,,,,,,,,,,,,,Greater,Smaller,,0.273958333,-0.524808114,1,0,0,RightButton,"[""RightButton""]",,,,,,,,,,,,99.54586791,3.5089,space,0.3556,0.568745491,5.4801,0,13,13,13,1,1,both_wrong.png,3,RandomDot6.png,No answer,20,,,
,,,,,,,,,,,,,,,,,,,,,,,,,,,,,,,R_1Et4aI0weGQGovt,1,2024-05-02_17h23.39.576,interaction task,2021.2.3,MacIntel,59.88023952,120280,,,,,,,,,,,,,,,,,Smaller,Greater,,-0.282831101,-0.492172271,1,0,0,LeftButton,"[""LeftButton""]",,,,,,,0,2.0197,space,0,4.1834,,,,,,,0,14,14,14,1,1,both_wrong.png,2,RandomDot19.png,No answer,19,,,0.2698
,,,,,,,,,,,,,,,,,,,,,,,,,,,,,,,R_1Et4aI0weGQGovt,1,2024-05-02_17h23.39.576,interaction task,2021.2.3,MacIntel,59.88023952,120280,,,,,,,,,,,,,,,,,Greater,Smaller,,0.277622768,-0.512061404,1,0,0,RightButton,"[""RightButton""]",72,1.9234,space,,,,,,,,,,,,,,,0,15,15,15,1,3,only_sub_wrong.png,0,RandomDot24.png,No answer,20,0.7019,,
,,,,,,,,,,,,,,,,,,,,,,,,,,,,,,,R_1Et4aI0weGQGovt,1,2024-05-02_17h23.39.576,interaction task,2021.2.3,MacIntel,59.88023952,120280,,,,,,,,,,,,,,,,,Greater,Smaller,,0.255287388,-0.517208821,1,0,0,RightButton,"[""RightButton""]",0,1.8177,space,,,,,,,,,,,,,,,0,16,16,16,1,2,only_sub_right.png,0,RandomDot18.png,No answer,21,0.3546,,
,,,,,,,,,,,,,,,,,,,,,,,,,,,,,,,R_1Et4aI0weGQGovt,1,2024-05-02_17h23.39.576,interaction task,2021.2.3,MacIntel,59.88023952,120280,,,,,,,,,,,,,,,,,Greater,Smaller,,-0.297205171,-0.491387975,1,0,0,LeftButton,"[""LeftButton""]",,,,,,,,,,,,38.56778349,2.8093,space,0.5844,58.05487915,4.1796,0,17,17,17,1,3,only_sub_wrong.png,3,RandomDot20.png,No answer,19,,,
,,,,,,,,,,,,,,,,,,,,,,,,,,,,,,,R_1Et4aI0weGQGovt,1,2024-05-02_17h23.39.576,interaction task,2021.2.3,MacIntel,59.88023952,120280,,,,,,,,,,,,,,,,,Smaller,Greater,,0.253059896,-0.544978984,1,0,0,RightButton,"[""RightButton""]",,,,,,,44,3.052,space,28,5.4813,,,,,,,0,18,18,18,1,1,both_wrong.png,2,RandomDot8.png,No answer,20,,,0.6861
,,,,,,,,,,,,,,,,,,,,,,,,,,,,,,,R_1Et4aI0weGQGovt,1,2024-05-02_17h23.39.576,interaction task,2021.2.3,MacIntel,59.88023952,120280,,,,,,,,,,,,,,,,,Smaller,Greater,,0.293178013,-0.522866411,1,0,0,RightButton,"[""RightButton""]",,,,2.036597842,5.5989,space,,,,,,,,,,,,0,19,19,19,1,2,only_sub_right.png,1,RandomDot14.png,No answer,20,,1.6695,
,,,,,,,,,,,,,,,,,,,,,,,,,,,,,,,R_1Et4aI0weGQGovt,1,2024-05-02_17h23.39.576,interaction task,2021.2.3,MacIntel,59.88023952,120280,,,,,,,,,,,,,,,,,Smaller,Greater,,-0.266922433,-0.523498416,1,0,0,LeftButton,"[""LeftButton""]",,,,,,,87,1.7484,space,38,4.1825,,,,,,,0,20,20,20,1,3,only_sub_wrong.png,2,RandomDot40.png,No answer,20,,,0.4019
,,,,,,,,,,,,,,,,,,,,,,,,,,,,,,,R_1Et4aI0weGQGovt,1,2024-05-02_17h23.39.576,interaction task,2021.2.3,MacIntel,59.88023952,120280,,,,,,,,,,,,,,,,,Greater,Smaller,,-0.260551525,-0.511338024,1,0,0,LeftButton,"[""LeftButton""]",,,,3.435221354,2.8019,space,,,,,,,,,,,,0,21,21,21,1,2,only_sub_right.png,1,RandomDot3.png,No answer,19,,1.7173,
,,,,,,,,,,,,,,,,,,,,,,,,,,,,,,,R_1Et4aI0weGQGovt,1,2024-05-02_17h23.39.576,interaction task,2021.2.3,MacIntel,59.88023952,120280,,,,,,,,,,,,,,,,,Smaller,Greater,,-0.279073661,-0.48700201,1,0,0,LeftButton,"[""LeftButton""]",,,,,,,1,1.9012,space,1,3.6172,,,,,,,0,22,22,22,1,2,only_sub_right.png,2,RandomDot22.png,No answer,19,,,0.3846
,,,,,,,,,,,,,,,,,,,,,,,,,,,,,,,R_1Et4aI0weGQGovt,1,2024-05-02_17h23.39.576,interaction task,2021.2.3,MacIntel,59.88023952,120280,,,,,,,,,,,,,,,,,Greater,Smaller,,-0.292764137,-0.508162768,1,0,0,LeftButton,"[""LeftButton""]",,,,,,,,,,,,,,,,,,0,23,23,23,1,0,both_right.png,3,RandomDot36.png,No answer,20,,,
,,,,,,,,,,,,,,,,,,,,,,,,,,,,,,,R_1Et4aI0weGQGovt,1,2024-05-02_17h23.39.576,interaction task,2021.2.3,MacIntel,59.88023952,120280,,,,,,,,,,,,,,,,,Smaller,Greater,,-0.285970052,-0.53547606,1,0,0,LeftButton,"[""LeftButton""]",,,,3.652227493,2.5201,space,,,,,,,,,,,,0,24,24,24,1,2,only_sub_right.png,1,RandomDot34.png,No answer,19,,0.6338,
,,,,,,,,,,,,,,,,,,,,,,,,,,,,,,,R_1Et4aI0weGQGovt,1,2024-05-02_17h23.39.576,interaction task,2021.2.3,MacIntel,59.88023952,120280,,,,,,,,,,,,,,,,,Smaller,Greater,,0.214355469,-0.514802632,1,0,0,RightButton,"[""RightButton""]",,,,,,,,,,,,51.47776124,1.6467,space,0.916,55.0913713,3.4677,0,25,25,25,1,3,only_sub_wrong.png,3,RandomDot38.png,No answer,20,,,
,,,,,,,,,,,,,,,,,,,,,,,,,,,,,,,R_1Et4aI0weGQGovt,1,2024-05-02_17h23.39.576,interaction task,2021.2.3,MacIntel,59.88023952,120280,,,,,,,,,,,,,,,,,Smaller,Greater,,-0.268503534,-0.513447247,1,0,0,LeftButton,"[""LeftButton""]",,,,,,,2,1.8389,space,2,3.2015,,,,,,,0,26,26,26,1,2,only_sub_right.png,2,RandomDot8.png,No answer,21,,,0.3002
,,,,,,,,,,,,,,,,,,,,,,,,,,,,,,,R_1Et4aI0weGQGovt,1,2024-05-02_17h23.39.576,interaction task,2021.2.3,MacIntel,59.88023952,120280,,,,,,,,,,,,,,,,,Greater,Smaller,,0.25922619,-0.514741715,1,0,0,RightButton,"[""RightButton""]",,,,4.434175037,3.3686,space,,,,,,,,,,,,0,27,27,27,1,1,both_wrong.png,1,RandomDot28.png,No answer,21,,1.6744,
,,,,,,,,,,,,,,,,,,,,,,,,,,,,,,,R_1Et4aI0weGQGovt,1,2024-05-02_17h23.39.576,interaction task,2021.2.3,MacIntel,59.88023952,120280,,,,,,,,,,,,,,,,,Greater,Smaller,,-0.301739211,-0.544103314,1,0,0,LeftButton,"[""LeftButton""]",,,,4.645926339,2.0297,space,,,,,,,,,,,,0,28,28,28,1,3,only_sub_wrong.png,1,RandomDot11.png,No answer,20,,0.8108,
,,,,,,,,,,,,,,,,,,,,,,,,,,,,,,,R_1Et4aI0weGQGovt,1,2024-05-02_17h23.39.576,interaction task,2021.2.3,MacIntel,59.88023952,120280,,,,,,,,,,,,,,,,,Smaller,Greater,,-0.282407924,-0.482334308,1,0,0,LeftButton,"[""LeftButton""]",84,1.6006,space,,,,,,,,,,,,,,,0,29,29,29,1,3,only_sub_wrong.png,0,RandomDot25.png,No answer,20,0.3367,,
,,,,,,,,,,,,,,,,,,,,,,,,,,,,,,,R_1Et4aI0weGQGovt,1,2024-05-02_17h23.39.576,interaction task,2021.2.3,MacIntel,59.88023952,120280,,,,,,,,,,,,,,,,,Smaller,Greater,,-0.307570685,-0.509548611,1,0,0,LeftButton,"[""LeftButton""]",,,,,,,44,1.6888,space,20,3.551,,,,,,,0,30,30,30,1,1,both_wrong.png,2,RandomDot21.png,No answer,20,,,1.067
,,,,,,,,,,,,,,,,,,,,,,,,,,,,,,,R_1Et4aI0weGQGovt,1,2024-05-02_17h23.39.576,interaction task,2021.2.3,MacIntel,59.88023952,120280,,,,,,,,,,,,,,,,,Smaller,Greater,,-0.272377232,-0.544689632,1,0,0,LeftButton,"[""LeftButton""]",,,,4.977864583,1.5379,space,,,,,,,,,,,,0,31,31,31,1,3,only_sub_wrong.png,1,RandomDot22.png,No answer,20,,0.3853,
,,,,,,,,,,,,,,,,,,,,,,,,,,,,,,,R_1Et4aI0weGQGovt,1,2024-05-02_17h23.39.576,interaction task,2021.2.3,MacIntel,59.88023952,120280,,,,,,,,,,,,,,,,,Smaller,Greater,,-0.273260789,-0.503792032,1,0,0,LeftButton,"[""LeftButton""]",27,2.2195,space,,,,,,,,,,,,,,,0,32,32,32,1,1,both_wrong.png,0,RandomDot28.png,No answer,19,0.3522,,
,,,,,,,,,,,,,,,,,,,,,,,,,,,,,,,R_1Et4aI0weGQGovt,1,2024-05-02_17h23.39.576,interaction task,2021.2.3,MacIntel,59.88023952,120280,,,,,,,,,,,,,,,,,Greater,Smaller,,0.28124535,-0.509145041,1,0,0,RightButton,"[""RightButton""]",84,2.0486,space,,,,,,,,,,,,,,,0,33,33,33,1,3,only_sub_wrong.png,0,RandomDot38.png,No answer,21,0.4312,,
,,,,,,,,,,,,,,,,,,,,,,,,,,,,,,,R_1Et4aI0weGQGovt,1,2024-05-02_17h23.39.576,interaction task,2021.2.3,MacIntel,59.88023952,120280,,,,,,,,,,,,,,,,,Greater,Smaller,,0.281259301,-0.493931226,1,0,0,RightButton,"[""RightButton""]",,,,,,,,,,,,72.93864989,2.1631,space,0.2841,26.91573473,3.9478,0,34,34,34,1,1,both_wrong.png,3,RandomDot40.png,No answer,21,,,
,,,,,,,,,,,,,,,,,,,,,,,,,,,,,,,R_1Et4aI0weGQGovt,1,2024-05-02_17h23.39.576,interaction task,2021.2.3,MacIntel,59.88023952,120280,,,,,,,,,,,,,,,,,Smaller,Greater,,0.291150484,-0.506670322,1,0,0,RightButton,"[""RightButton""]",,,,,,,,,,,,,,,,,,0,35,35,35,1,4,both_right.png,10,RandomDot41.png,RightButton,5,,,
,,,,,,,,,,,,,,,,,,,,,,,,,,,,,,,R_1Et4aI0weGQGovt,1,2024-05-02_17h23.39.576,interaction task,2021.2.3,MacIntel,59.88023952,120280,,,,,,,,,,,,,,,,,Smaller,Greater,,0.278031994,-0.510736477,1,0,0,RightButton,"[""RightButton""]",,,,,,,88,2.2819,space,31,4.0162,,,,,,,0,36,36,36,1,3,only_sub_wrong.png,2,RandomDot15.png,No answer,20,,,0.2504
,,,,,,,,,,,,,,,,,,,,,,,,,,,,,,,R_1Et4aI0weGQGovt,1,2024-05-02_17h23.39.576,interaction task,2021.2.3,MacIntel,59.88023952,120280,,,,,,,,,,,,,,,,,Smaller,Greater,,0.296196057,-0.507005361,1,0,0,RightButton,"[""RightButton""]",27,1.7015,space,,,,,,,,,,,,,,,0,37,37,37,1,1,both_wrong.png,0,RandomDot39.png,No answer,21,0.2348,,
,,,,,,,,,,,,,,,,,,,,,,,,,,,,,,,R_1Et4aI0weGQGovt,1,2024-05-02_17h23.39.576,interaction task,2021.2.3,MacIntel,59.88023952,120280,,,,,,,,,,,,,,,,,Smaller,Greater,,-0.301362537,-0.512883772,1,0,0,LeftButton,"[""LeftButton""]",,,,,,,,,,,,99.64873813,3.1534,space,0.1704,0.619945737,4.5164,0,38,38,38,1,2,only_sub_right.png,3,RandomDot31.png,No answer,19,,,
,,,,,,,,,,,,,,,,,,,,,,,,,,,,,,,R_1Et4aI0weGQGovt,1,2024-05-02_17h23.39.576,interaction task,2021.2.3,MacIntel,59.88023952,120280,,,,,,,,,,,,,,,,,Greater,Smaller,,-0.303162202,-0.531600268,1,0,0,LeftButton,"[""LeftButton""]",,,,,,,80,1.8169,space,36,5.171,,,,,,,0,39,39,39,1,3,only_sub_wrong.png,2,RandomDot20.png,No answer,19,,,1.9072
,,,,,,,,,,,,,,,,,,,,,,,,,,,,,,,R_1Et4aI0weGQGovt,1,2024-05-02_17h23.39.576,interaction task,2021.2.3,MacIntel,59.88023952,120280,,,,,,,,,,,,,,,,,Greater,Smaller,,0.331728981,-0.516538743,1,0,0,RightButton,"[""RightButton""]",,,,4.935639881,4.1141,space,,,,,,,,,,,,0,40,40,40,1,3,only_sub_wrong.png,1,RandomDot22.png,No answer,19,,0.3894,
,,,,,,,,,,,,,,,,,,,,,,,,,,,,,,,R_1Et4aI0weGQGovt,1,2024-05-02_17h23.39.576,interaction task,2021.2.3,MacIntel,59.88023952,120280,,,,,,,,,,,,,,,,,Greater,Smaller,,0.30921689,-0.507203338,1,0,0,RightButton,"[""RightButton""]",60,2.8809,space,,,,,,,,,,,,,,,0,41,41,41,1,1,both_wrong.png,0,RandomDot24.png,No answer,21,0.3027,,
