choose_trial,key_resp.keys,key_resp.rt,key_resp_4.keys,key_resp_4.rt,session_trait,slider_face_judge.response,slider_face_judge.rt,key_resp_3.keys,key_resp_3.rt,face_loop.thisRepN,face_loop.thisTrialN,face_loop.thisN,face_loop.thisIndex,face_loop.ran,face_serial,image_name,isCheck,answer,check_question,participant,session,date,expName,psychopyVersion,OS,frameRate,SONAid,session.thisRepN,session.thisTrialN,session.thisN,session.thisIndex,session.ran,session_serial,slider_judge_img
"[0,1,2,3,4,5,6,7,8,9,10,11,12,13,14,15,16,17,18,19,20,21,22,23,24,25,26,27,28,29,30,31,32,33,34,35,36,37,38,39,40,41,42,43,44,45,46,47,48,49,59,50,51]",space,11.3616,space,2.4192,friendly,1.981666667,4.0639,space,0.454,0,0,0,14,1,15,image/15.jpg,0,0,,R_1FlaYCokradBQ0u,2,2024-05-26_16h07.29.120,face trait task,2021.2.3,MacIntel,60.60606061,120461,,,,,,,
,,,,,,1.981666667,1.5456,space,0.3065,0,1,1,42,1,43,image/43.jpg,0,0,,R_1FlaYCokradBQ0u,2,2024-05-26_16h07.29.120,face trait task,2021.2.3,MacIntel,60.60606061,120461,,,,,,,
,,,,,,1.981666667,1.4965,space,0.5288,0,2,2,9,1,10,image/10.jpg,0,0,,R_1FlaYCokradBQ0u,2,2024-05-26_16h07.29.120,face trait task,2021.2.3,MacIntel,60.60606061,120461,,,,,,,
,,,,,,1.981666667,1.4796,space,0.5347,0,3,3,20,1,21,image/21.jpg,0,0,,R_1FlaYCokradBQ0u,2,2024-05-26_16h07.29.120,face trait task,2021.2.3,MacIntel,60.60606061,120461,,,,,,,
,,,,,,1.981666667,1.2804,space,0.5635,0,4,4,49,1,50,image/50.jpg,0,0,,R_1FlaYCokradBQ0u,2,2024-05-26_16h07.29.120,face trait task,2021.2.3,MacIntel,60.60606061,120461,,,,,,,
,,,,,,1.981666667,1.7964,space,0.4042,0,5,5,4,1,5,image/5.jpg,0,0,,R_1FlaYCokradBQ0u,2,2024-05-26_16h07.29.120,face trait task,2021.2.3,MacIntel,60.60606061,120461,,,,,,,
,,,,,,1.981666667,1.4971,space,0.5633,0,6,6,38,1,39,image/39.jpg,0,0,,R_1FlaYCokradBQ0u,2,2024-05-26_16h07.29.120,face trait task,2021.2.3,MacIntel,60.60606061,120461,,,,,,,
,,,,,,1.979921875,1.4645,space,0.403,0,7,7,46,1,47,image/47.jpg,0,0,,R_1FlaYCokradBQ0u,2,2024-05-26_16h07.29.120,face trait task,2021.2.3,MacIntel,60.60606061,120461,,,,,,,
,,,,,,1.979921875,1.2291,space,0.4007,0,8,8,31,1,32,image/32.jpg,0,0,,R_1FlaYCokradBQ0u,2,2024-05-26_16h07.29.120,face trait task,2021.2.3,MacIntel,60.60606061,120461,,,,,,,
,,,,,,1.974401042,1.0811,space,0.4335,0,9,9,32,1,33,image/33.jpg,0,0,,R_1FlaYCokradBQ0u,2,2024-05-26_16h07.29.120,face trait task,2021.2.3,MacIntel,60.60606061,120461,,,,,,,
,,,,,,1.969505208,1.4458,space,0.364,0,10,10,37,1,38,image/38.jpg,0,0,,R_1FlaYCokradBQ0u,2,2024-05-26_16h07.29.120,face trait task,2021.2.3,MacIntel,60.60606061,120461,,,,,,,
,,,,,,1.969505208,1.3472,space,0.3185,0,11,11,43,1,44,image/44.jpg,0,0,,R_1FlaYCokradBQ0u,2,2024-05-26_16h07.29.120,face trait task,2021.2.3,MacIntel,60.60606061,120461,,,,,,,
,,,,,,1.966380208,1.2145,space,0.4015,0,12,12,33,1,34,image/34.jpg,0,0,,R_1FlaYCokradBQ0u,2,2024-05-26_16h07.29.120,face trait task,2021.2.3,MacIntel,60.60606061,120461,,,,,,,
,,,,,,1.966380208,1.2144,space,0.3537,0,13,13,41,1,42,image/42.jpg,0,0,,R_1FlaYCokradBQ0u,2,2024-05-26_16h07.29.120,face trait task,2021.2.3,MacIntel,60.60606061,120461,,,,,,,
,,,,,,1.022760417,3.5274,space,0.5214,0,14,14,51,1,51,image/fill_img.png,1,1,Please move the slider all the way to the LEFT to show that you are paying attention.,R_1FlaYCokradBQ0u,2,2024-05-26_16h07.29.120,face trait task,2021.2.3,MacIntel,60.60606061,120461,,,,,,,
,,,,,,1.9859375,1.3456,space,0.3216,0,15,15,47,1,48,image/48.jpg,0,0,,R_1FlaYCokradBQ0u,2,2024-05-26_16h07.29.120,face trait task,2021.2.3,MacIntel,60.60606061,120461,,,,,,,
,,,,,,1.9859375,0.9479,space,0.568,0,16,16,1,1,2,image/2.jpg,0,0,,R_1FlaYCokradBQ0u,2,2024-05-26_16h07.29.120,face trait task,2021.2.3,MacIntel,60.60606061,120461,,,,,,,
,,,,,,1.9859375,0.9803,space,0.5513,0,17,17,45,1,46,image/46.jpg,0,0,,R_1FlaYCokradBQ0u,2,2024-05-26_16h07.29.120,face trait task,2021.2.3,MacIntel,60.60606061,120461,,,,,,,
,,,,,,1.981015625,1.0966,space,0.4517,0,18,18,44,1,45,image/45.jpg,0,0,,R_1FlaYCokradBQ0u,2,2024-05-26_16h07.29.120,face trait task,2021.2.3,MacIntel,60.60606061,120461,,,,,,,
,,,,,,2.0084375,2.3481,space,0.4016,0,19,19,19,1,20,image/20.jpg,0,0,,R_1FlaYCokradBQ0u,2,2024-05-26_16h07.29.120,face trait task,2021.2.3,MacIntel,60.60606061,120461,,,,,,,
,,,,,,2.0084375,1.1639,space,0.5111,0,20,20,2,1,3,image/3.jpg,0,0,,R_1FlaYCokradBQ0u,2,2024-05-26_16h07.29.120,face trait task,2021.2.3,MacIntel,60.60606061,120461,,,,,,,
,,,,,,2.0084375,1.8647,space,0.4706,0,21,21,15,1,16,image/16.jpg,0,0,,R_1FlaYCokradBQ0u,2,2024-05-26_16h07.29.120,face trait task,2021.2.3,MacIntel,60.60606061,120461,,,,,,,
,,,,,,2.006796875,1.0975,space,0.4007,0,22,22,8,1,9,image/9.jpg,0,0,,R_1FlaYCokradBQ0u,2,2024-05-26_16h07.29.120,face trait task,2021.2.3,MacIntel,60.60606061,120461,,,,,,,
,,,,,,2.006796875,1.3305,space,0.5345,0,23,23,0,1,1,image/1.jpg,0,0,,R_1FlaYCokradBQ0u,2,2024-05-26_16h07.29.120,face trait task,2021.2.3,MacIntel,60.60606061,120461,,,,,,,
,,,,,,2.005234375,1.5301,space,0.4336,0,24,24,7,1,8,image/8.jpg,0,0,,R_1FlaYCokradBQ0u,2,2024-05-26_16h07.29.120,face trait task,2021.2.3,MacIntel,60.60606061,120461,,,,,,,
,,,,,,2.003697917,1.064,space,0.4007,0,25,25,12,1,13,image/13.jpg,0,0,,R_1FlaYCokradBQ0u,2,2024-05-26_16h07.29.120,face trait task,2021.2.3,MacIntel,60.60606061,120461,,,,,,,
,,,,,,1.994036458,1.1307,space,0.3361,0,26,26,48,1,49,image/49.jpg,0,0,,R_1FlaYCokradBQ0u,2,2024-05-26_16h07.29.120,face trait task,2021.2.3,MacIntel,60.60606061,120461,,,,,,,
,,,,,,6.990546875,3.5746,space,0.5164,0,27,27,50,1,60,image/fill_img.png,1,7,Please move the slider all the way to the RIGHT to show that you are paying attention.,R_1FlaYCokradBQ0u,2,2024-05-26_16h07.29.120,face trait task,2021.2.3,MacIntel,60.60606061,120461,,,,,,,
,,,,,,2.028125,1.545,space,0.5179,0,28,28,17,1,18,image/18.jpg,0,0,,R_1FlaYCokradBQ0u,2,2024-05-26_16h07.29.120,face trait task,2021.2.3,MacIntel,60.60606061,120461,,,,,,,
,,,,,,1.998541667,1.3292,space,0.2849,0,29,29,23,1,24,image/24.jpg,0,0,,R_1FlaYCokradBQ0u,2,2024-05-26_16h07.29.120,face trait task,2021.2.3,MacIntel,60.60606061,120461,,,,,,,
,,,,,,1.002864583,2.2462,space,0.2731,0,30,30,52,1,52,image/fill_img.png,1,1,Please move the slider all the way to the LEFT to show that you are paying attention.,R_1FlaYCokradBQ0u,2,2024-05-26_16h07.29.120,face trait task,2021.2.3,MacIntel,60.60606061,120461,,,,,,,
,,,,,,2.023229167,1.3956,space,0.3008,0,31,31,3,1,4,image/4.jpg,0,0,,R_1FlaYCokradBQ0u,2,2024-05-26_16h07.29.120,face trait task,2021.2.3,MacIntel,60.60606061,120461,,,,,,,
,,,,,,2.023229167,0.9121,space,0.3198,0,32,32,39,1,40,image/40.jpg,0,0,,R_1FlaYCokradBQ0u,2,2024-05-26_16h07.29.120,face trait task,2021.2.3,MacIntel,60.60606061,120461,,,,,,,
,,,,,,2.023229167,1.2809,space,0.2858,0,33,33,18,1,19,image/19.jpg,0,0,,R_1FlaYCokradBQ0u,2,2024-05-26_16h07.29.120,face trait task,2021.2.3,MacIntel,60.60606061,120461,,,,,,,
,,,,,,2.023229167,1.0473,space,0.351,0,34,34,36,1,37,image/37.jpg,0,0,,R_1FlaYCokradBQ0u,2,2024-05-26_16h07.29.120,face trait task,2021.2.3,MacIntel,60.60606061,120461,,,,,,,
,,,,,,2.023229167,1.1492,space,0.3472,0,35,35,6,1,7,image/7.jpg,0,0,,R_1FlaYCokradBQ0u,2,2024-05-26_16h07.29.120,face trait task,2021.2.3,MacIntel,60.60606061,120461,,,,,,,
,,,,,,2.023229167,1.1964,space,0.368,0,36,36,21,1,22,image/22.jpg,0,0,,R_1FlaYCokradBQ0u,2,2024-05-26_16h07.29.120,face trait task,2021.2.3,MacIntel,60.60606061,120461,,,,,,,
,,,,,,2.023229167,0.9633,space,0.3359,0,37,37,26,1,27,image/27.jpg,0,0,,R_1FlaYCokradBQ0u,2,2024-05-26_16h07.29.120,face trait task,2021.2.3,MacIntel,60.60606061,120461,,,,,,,
,,,,,,2.023229167,0.9982,space,0.2502,0,38,38,16,1,17,image/17.jpg,0,0,,R_1FlaYCokradBQ0u,2,2024-05-26_16h07.29.120,face trait task,2021.2.3,MacIntel,60.60606061,120461,,,,,,,
,,,,,,2.023229167,1.0643,space,0.4534,0,39,39,22,1,23,image/23.jpg,0,0,,R_1FlaYCokradBQ0u,2,2024-05-26_16h07.29.120,face trait task,2021.2.3,MacIntel,60.60606061,120461,,,,,,,
,,,,,,2.023229167,1.2342,space,0.3321,0,40,40,13,1,14,image/14.jpg,0,0,,R_1FlaYCokradBQ0u,2,2024-05-26_16h07.29.120,face trait task,2021.2.3,MacIntel,60.60606061,120461,,,,,,,
,,,,,,2.023229167,0.9672,space,0.396,0,41,41,11,1,12,image/12.jpg,0,0,,R_1FlaYCokradBQ0u,2,2024-05-26_16h07.29.120,face trait task,2021.2.3,MacIntel,60.60606061,120461,,,,,,,
,,,,,,2.023229167,1.0798,space,0.3065,0,42,42,5,1,6,image/6.jpg,0,0,,R_1FlaYCokradBQ0u,2,2024-05-26_16h07.29.120,face trait task,2021.2.3,MacIntel,60.60606061,120461,,,,,,,
,,,,,,2.023229167,1.2808,space,0.1899,0,43,43,40,1,41,image/41.jpg,0,0,,R_1FlaYCokradBQ0u,2,2024-05-26_16h07.29.120,face trait task,2021.2.3,MacIntel,60.60606061,120461,,,,,,,
,,,,,,2.023229167,1.3344,space,0.6731,0,44,44,28,1,29,image/29.jpg,0,0,,R_1FlaYCokradBQ0u,2,2024-05-26_16h07.29.120,face trait task,2021.2.3,MacIntel,60.60606061,120461,,,,,,,
,,,,,,2.023229167,1.0467,space,0.8462,0,45,45,29,1,30,image/30.jpg,0,0,,R_1FlaYCokradBQ0u,2,2024-05-26_16h07.29.120,face trait task,2021.2.3,MacIntel,60.60606061,120461,,,,,,,
,,,,,,2.985885417,2.8152,space,1.6317,0,46,46,35,1,36,image/36.jpg,0,0,,R_1FlaYCokradBQ0u,2,2024-05-26_16h07.29.120,face trait task,2021.2.3,MacIntel,60.60606061,120461,,,,,,,
,,,,,,1.9753125,1.7825,space,0.4023,0,47,47,24,1,25,image/25.jpg,0,0,,R_1FlaYCokradBQ0u,2,2024-05-26_16h07.29.120,face trait task,2021.2.3,MacIntel,60.60606061,120461,,,,,,,
,,,,,,1.00453125,3.4297,space,0.3246,0,48,48,30,1,31,image/31.jpg,0,0,,R_1FlaYCokradBQ0u,2,2024-05-26_16h07.29.120,face trait task,2021.2.3,MacIntel,60.60606061,120461,,,,,,,
,,,,,,1.999401042,1.3465,space,0.368,0,49,49,25,1,26,image/26.jpg,0,0,,R_1FlaYCokradBQ0u,2,2024-05-26_16h07.29.120,face trait task,2021.2.3,MacIntel,60.60606061,120461,,,,,,,
,,,,,,2.025078125,1.2484,space,0.6042,0,50,50,10,1,11,image/11.jpg,0,0,,R_1FlaYCokradBQ0u,2,2024-05-26_16h07.29.120,face trait task,2021.2.3,MacIntel,60.60606061,120461,,,,,,,
,,,,,,2.025078125,1.6814,space,0.8395,0,51,51,34,1,35,image/35.jpg,0,0,,R_1FlaYCokradBQ0u,2,2024-05-26_16h07.29.120,face trait task,2021.2.3,MacIntel,60.60606061,120461,,,,,,,
,,,,,,2.025078125,1.5628,space,1.4983,0,52,52,27,1,28,image/28.jpg,0,0,,R_1FlaYCokradBQ0u,2,2024-05-26_16h07.29.120,face trait task,2021.2.3,MacIntel,60.60606061,120461,,,,,,,
,,,,,,,,,,,,,,,,,,,,R_1FlaYCokradBQ0u,2,2024-05-26_16h07.29.120,face trait task,2021.2.3,MacIntel,60.60606061,120461,0,0,0,3,1,3,friendly.png
,,,,,trustworthy,2.998567708,3.1248,space,0.3353,0,0,0,12,1,13,image/13.jpg,0,0,,R_1FlaYCokradBQ0u,2,2024-05-26_16h07.29.120,face trait task,2021.2.3,MacIntel,60.60606061,120461,,,,,,,
,,,,,,2.998567708,2.8977,space,0.4134,0,1,1,10,1,11,image/11.jpg,0,0,,R_1FlaYCokradBQ0u,2,2024-05-26_16h07.29.120,face trait task,2021.2.3,MacIntel,60.60606061,120461,,,,,,,
,,,,,,3.995703125,2.5295,space,1.6024,0,2,2,2,1,3,image/3.jpg,0,0,,R_1FlaYCokradBQ0u,2,2024-05-26_16h07.29.120,face trait task,2021.2.3,MacIntel,60.60606061,120461,,,,,,,
,,,,,,4.021640625,0.9672,space,0.3193,0,3,3,19,1,20,image/20.jpg,0,0,,R_1FlaYCokradBQ0u,2,2024-05-26_16h07.29.120,face trait task,2021.2.3,MacIntel,60.60606061,120461,,,,,,,
,,,,,,4.017526042,1.93,space,0.3027,0,4,4,26,1,27,image/27.jpg,0,0,,R_1FlaYCokradBQ0u,2,2024-05-26_16h07.29.120,face trait task,2021.2.3,MacIntel,60.60606061,120461,,,,,,,
,,,,,,4.017526042,1.1792,space,0.5546,0,5,5,4,1,5,image/5.jpg,0,0,,R_1FlaYCokradBQ0u,2,2024-05-26_16h07.29.120,face trait task,2021.2.3,MacIntel,60.60606061,120461,,,,,,,
,,,,,,4.017526042,1.0299,space,0.5365,0,6,6,7,1,8,image/8.jpg,0,0,,R_1FlaYCokradBQ0u,2,2024-05-26_16h07.29.120,face trait task,2021.2.3,MacIntel,60.60606061,120461,,,,,,,
,,,,,,4.017526042,1.4132,space,0.3663,0,7,7,6,1,7,image/7.jpg,0,0,,R_1FlaYCokradBQ0u,2,2024-05-26_16h07.29.120,face trait task,2021.2.3,MacIntel,60.60606061,120461,,,,,,,
,,,,,,4.017526042,1.1958,space,0.5803,0,8,8,25,1,26,image/26.jpg,0,0,,R_1FlaYCokradBQ0u,2,2024-05-26_16h07.29.120,face trait task,2021.2.3,MacIntel,60.60606061,120461,,,,,,,
,,,,,,4.015989583,0.8978,space,0.5044,0,9,9,44,1,45,image/45.jpg,0,0,,R_1FlaYCokradBQ0u,2,2024-05-26_16h07.29.120,face trait task,2021.2.3,MacIntel,60.60606061,120461,,,,,,,
,,,,,,4.015989583,0.9975,space,0.6409,0,10,10,37,1,38,image/38.jpg,0,0,,R_1FlaYCokradBQ0u,2,2024-05-26_16h07.29.120,face trait task,2021.2.3,MacIntel,60.60606061,120461,,,,,,,
,,,,,,1.020755208,4.2916,space,0.3381,0,11,11,52,1,52,image/fill_img.png,1,1,Please move the slider all the way to the LEFT to show that you are paying attention.,R_1FlaYCokradBQ0u,2,2024-05-26_16h07.29.120,face trait task,2021.2.3,MacIntel,60.60606061,120461,,,,,,,
,,,,,,4.031848958,1.2768,space,0.6841,0,12,12,32,1,33,image/33.jpg,0,0,,R_1FlaYCokradBQ0u,2,2024-05-26_16h07.29.120,face trait task,2021.2.3,MacIntel,60.60606061,120461,,,,,,,
,,,,,,4.014010417,1.2151,space,0.3161,0,13,13,41,1,42,image/42.jpg,0,0,,R_1FlaYCokradBQ0u,2,2024-05-26_16h07.29.120,face trait task,2021.2.3,MacIntel,60.60606061,120461,,,,,,,
,,,,,,4.00578125,0.9473,space,0.5151,0,14,14,48,1,49,image/49.jpg,0,0,,R_1FlaYCokradBQ0u,2,2024-05-26_16h07.29.120,face trait task,2021.2.3,MacIntel,60.60606061,120461,,,,,,,
,,,,,,4.00578125,1.13,space,0.3689,0,15,15,38,1,39,image/39.jpg,0,0,,R_1FlaYCokradBQ0u,2,2024-05-26_16h07.29.120,face trait task,2021.2.3,MacIntel,60.60606061,120461,,,,,,,
,,,,,,4.005,0.9304,space,0.5505,0,16,16,34,1,35,image/35.jpg,0,0,,R_1FlaYCokradBQ0u,2,2024-05-26_16h07.29.120,face trait task,2021.2.3,MacIntel,60.60606061,120461,,,,,,,
,,,,,,4.000052083,0.9996,space,0.5481,0,17,17,5,1,6,image/6.jpg,0,0,,R_1FlaYCokradBQ0u,2,2024-05-26_16h07.29.120,face trait task,2021.2.3,MacIntel,60.60606061,120461,,,,,,,
,,,,,,3.996666667,1.0292,space,0.697,0,18,18,18,1,19,image/19.jpg,0,0,,R_1FlaYCokradBQ0u,2,2024-05-26_16h07.29.120,face trait task,2021.2.3,MacIntel,60.60606061,120461,,,,,,,
,,,,,,3.995130208,1.0126,space,0.6178,0,19,19,9,1,10,image/10.jpg,0,0,,R_1FlaYCokradBQ0u,2,2024-05-26_16h07.29.120,face trait task,2021.2.3,MacIntel,60.60606061,120461,,,,,,,
,,,,,,3.995130208,1.5971,space,0.6952,0,20,20,39,1,40,image/40.jpg,0,0,,R_1FlaYCokradBQ0u,2,2024-05-26_16h07.29.120,face trait task,2021.2.3,MacIntel,60.60606061,120461,,,,,,,
,,,,,,3.990286458,1.03,space,0.6506,0,21,21,17,1,18,image/18.jpg,0,0,,R_1FlaYCokradBQ0u,2,2024-05-26_16h07.29.120,face trait task,2021.2.3,MacIntel,60.60606061,120461,,,,,,,
,,,,,,3.990286458,1.4138,space,0.6819,0,22,22,46,1,47,image/47.jpg,0,0,,R_1FlaYCokradBQ0u,2,2024-05-26_16h07.29.120,face trait task,2021.2.3,MacIntel,60.60606061,120461,,,,,,,
,,,,,,3.988697917,1.6968,space,0.7169,0,23,23,8,1,9,image/9.jpg,0,0,,R_1FlaYCokradBQ0u,2,2024-05-26_16h07.29.120,face trait task,2021.2.3,MacIntel,60.60606061,120461,,,,,,,
,,,,,,3.985572917,1.1969,space,0.7178,0,24,24,43,1,44,image/44.jpg,0,0,,R_1FlaYCokradBQ0u,2,2024-05-26_16h07.29.120,face trait task,2021.2.3,MacIntel,60.60606061,120461,,,,,,,
,,,,,,3.97765625,1.1798,space,0.5887,0,25,25,35,1,36,image/36.jpg,0,0,,R_1FlaYCokradBQ0u,2,2024-05-26_16h07.29.120,face trait task,2021.2.3,MacIntel,60.60606061,120461,,,,,,,
,,,,,,3.952604167,1.3458,space,0.6503,0,26,26,16,1,17,image/17.jpg,0,0,,R_1FlaYCokradBQ0u,2,2024-05-26_16h07.29.120,face trait task,2021.2.3,MacIntel,60.60606061,120461,,,,,,,
,,,,,,3.935598958,1.6813,space,0.4511,0,27,27,33,1,34,image/34.jpg,0,0,,R_1FlaYCokradBQ0u,2,2024-05-26_16h07.29.120,face trait task,2021.2.3,MacIntel,60.60606061,120461,,,,,,,
,,,,,,3.932265625,1.347,space,0.77,0,28,28,14,1,15,image/15.jpg,0,0,,R_1FlaYCokradBQ0u,2,2024-05-26_16h07.29.120,face trait task,2021.2.3,MacIntel,60.60606061,120461,,,,,,,
,,,,,,3.932265625,1.2801,space,0.6529,0,29,29,29,1,30,image/30.jpg,0,0,,R_1FlaYCokradBQ0u,2,2024-05-26_16h07.29.120,face trait task,2021.2.3,MacIntel,60.60606061,120461,,,,,,,
,,,,,,6.977291667,3.2125,space,0.2843,0,30,30,50,1,60,image/fill_img.png,1,7,Please move the slider all the way to the RIGHT to show that you are paying attention.,R_1FlaYCokradBQ0u,2,2024-05-26_16h07.29.120,face trait task,2021.2.3,MacIntel,60.60606061,120461,,,,,,,
,,,,,,4.009505208,1.2794,space,0.3021,0,31,31,45,1,46,image/46.jpg,0,0,,R_1FlaYCokradBQ0u,2,2024-05-26_16h07.29.120,face trait task,2021.2.3,MacIntel,60.60606061,120461,,,,,,,
,,,,,,3.967369792,1.2795,space,0.4509,0,32,32,1,1,2,image/2.jpg,0,0,,R_1FlaYCokradBQ0u,2,2024-05-26_16h07.29.120,face trait task,2021.2.3,MacIntel,60.60606061,120461,,,,,,,
,,,,,,2.941744792,1.7296,space,0.3006,0,33,33,15,1,16,image/16.jpg,0,0,,R_1FlaYCokradBQ0u,2,2024-05-26_16h07.29.120,face trait task,2021.2.3,MacIntel,60.60606061,120461,,,,,,,
,,,,,,4.021848958,1.3139,space,0.2964,0,34,34,3,1,4,image/4.jpg,0,0,,R_1FlaYCokradBQ0u,2,2024-05-26_16h07.29.120,face trait task,2021.2.3,MacIntel,60.60606061,120461,,,,,,,
,,,,,,4.018515625,1.2296,space,0.6978,0,35,35,23,1,24,image/24.jpg,0,0,,R_1FlaYCokradBQ0u,2,2024-05-26_16h07.29.120,face trait task,2021.2.3,MacIntel,60.60606061,120461,,,,,,,
,,,,,,4.018515625,1.3297,space,0.8898,0,36,36,28,1,29,image/29.jpg,0,0,,R_1FlaYCokradBQ0u,2,2024-05-26_16h07.29.120,face trait task,2021.2.3,MacIntel,60.60606061,120461,,,,,,,
,,,,,,4.018515625,1.1963,space,0.7197,0,37,37,27,1,28,image/28.jpg,0,0,,R_1FlaYCokradBQ0u,2,2024-05-26_16h07.29.120,face trait task,2021.2.3,MacIntel,60.60606061,120461,,,,,,,
,,,,,,4.018515625,0.9972,space,0.9523,0,38,38,13,1,14,image/14.jpg,0,0,,R_1FlaYCokradBQ0u,2,2024-05-26_16h07.29.120,face trait task,2021.2.3,MacIntel,60.60606061,120461,,,,,,,
,,,,,,4.018515625,1.214,space,1.0689,0,39,39,21,1,22,image/22.jpg,0,0,,R_1FlaYCokradBQ0u,2,2024-05-26_16h07.29.120,face trait task,2021.2.3,MacIntel,60.60606061,120461,,,,,,,
,,,,,,4.018515625,0.9803,space,0.8678,0,40,40,22,1,23,image/23.jpg,0,0,,R_1FlaYCokradBQ0u,2,2024-05-26_16h07.29.120,face trait task,2021.2.3,MacIntel,60.60606061,120461,,,,,,,
,,,,,,4.018515625,1.0469,space,0.9875,0,41,41,31,1,32,image/32.jpg,0,0,,R_1FlaYCokradBQ0u,2,2024-05-26_16h07.29.120,face trait task,2021.2.3,MacIntel,60.60606061,120461,,,,,,,
,,,,,,1.041640625,3.1244,space,0.6342,0,42,42,51,1,51,image/fill_img.png,1,1,Please move the slider all the way to the LEFT to show that you are paying attention.,R_1FlaYCokradBQ0u,2,2024-05-26_16h07.29.120,face trait task,2021.2.3,MacIntel,60.60606061,120461,,,,,,,
,,,,,,3.981015625,1.5621,space,0.2969,0,43,43,40,1,41,image/41.jpg,0,0,,R_1FlaYCokradBQ0u,2,2024-05-26_16h07.29.120,face trait task,2021.2.3,MacIntel,60.60606061,120461,,,,,,,
,,,,,,3.981015625,0.9561,space,0.5861,0,44,44,20,1,21,image/21.jpg,0,0,,R_1FlaYCokradBQ0u,2,2024-05-26_16h07.29.120,face trait task,2021.2.3,MacIntel,60.60606061,120461,,,,,,,
,,,,,,3.981015625,1.0637,space,0.4841,0,45,45,24,1,25,image/25.jpg,0,0,,R_1FlaYCokradBQ0u,2,2024-05-26_16h07.29.120,face trait task,2021.2.3,MacIntel,60.60606061,120461,,,,,,,
,,,,,,3.994348958,1.5134,space,0.3696,0,46,46,47,1,48,image/48.jpg,0,0,,R_1FlaYCokradBQ0u,2,2024-05-26_16h07.29.120,face trait task,2021.2.3,MacIntel,60.60606061,120461,,,,,,,
,,,,,,3.994348958,0.9636,space,0.9512,0,47,47,11,1,12,image/12.jpg,0,0,,R_1FlaYCokradBQ0u,2,2024-05-26_16h07.29.120,face trait task,2021.2.3,MacIntel,60.60606061,120461,,,,,,,
,,,,,,3.994348958,1.0792,space,0.5862,0,48,48,36,1,37,image/37.jpg,0,0,,R_1FlaYCokradBQ0u,2,2024-05-26_16h07.29.120,face trait task,2021.2.3,MacIntel,60.60606061,120461,,,,,,,
,,,,,,3.994348958,1.0647,space,0.604,0,49,49,42,1,43,image/43.jpg,0,0,,R_1FlaYCokradBQ0u,2,2024-05-26_16h07.29.120,face trait task,2021.2.3,MacIntel,60.60606061,120461,,,,,,,
,,,,,,3.986302083,1.1967,space,0.4003,0,50,50,30,1,31,image/31.jpg,0,0,,R_1FlaYCokradBQ0u,2,2024-05-26_16h07.29.120,face trait task,2021.2.3,MacIntel,60.60606061,120461,,,,,,,
,,,,,,3.986302083,1.0621,space,0.3521,0,51,51,0,1,1,image/1.jpg,0,0,,R_1FlaYCokradBQ0u,2,2024-05-26_16h07.29.120,face trait task,2021.2.3,MacIntel,60.60606061,120461,,,,,,,
,,,,,,3.986302083,1.1803,space,0.2843,0,52,52,49,1,50,image/50.jpg,0,0,,R_1FlaYCokradBQ0u,2,2024-05-26_16h07.29.120,face trait task,2021.2.3,MacIntel,60.60606061,120461,,,,,,,
,,,,,,,,,,,,,,,,,,,,R_1FlaYCokradBQ0u,2,2024-05-26_16h07.29.120,face trait task,2021.2.3,MacIntel,60.60606061,120461,0,1,1,2,1,2,trustworthy.png
,,,,,competent,3.963125,7.5871,space,0.8677,0,0,0,15,1,16,image/16.jpg,0,0,,R_1FlaYCokradBQ0u,2,2024-05-26_16h07.29.120,face trait task,2021.2.3,MacIntel,60.60606061,120461,,,,,,,
,,,,,,3.963125,0.5458,space,0.4371,0,1,1,47,1,48,image/48.jpg,0,0,,R_1FlaYCokradBQ0u,2,2024-05-26_16h07.29.120,face trait task,2021.2.3,MacIntel,60.60606061,120461,,,,,,,
,,,,,,3.963125,1.5485,space,0.2711,0,2,2,43,1,44,image/44.jpg,0,0,,R_1FlaYCokradBQ0u,2,2024-05-26_16h07.29.120,face trait task,2021.2.3,MacIntel,60.60606061,120461,,,,,,,
,,,,,,3.963125,1.0294,space,0.7338,0,3,3,37,1,38,image/38.jpg,0,0,,R_1FlaYCokradBQ0u,2,2024-05-26_16h07.29.120,face trait task,2021.2.3,MacIntel,60.60606061,120461,,,,,,,
,,,,,,3.963125,0.9303,space,0.3176,0,4,4,28,1,29,image/29.jpg,0,0,,R_1FlaYCokradBQ0u,2,2024-05-26_16h07.29.120,face trait task,2021.2.3,MacIntel,60.60606061,120461,,,,,,,
,,,,,,3.963125,0.7802,space,0.4839,0,5,5,46,1,47,image/47.jpg,0,0,,R_1FlaYCokradBQ0u,2,2024-05-26_16h07.29.120,face trait task,2021.2.3,MacIntel,60.60606061,120461,,,,,,,
,,,,,,3.963125,0.9801,space,0.5793,0,6,6,3,1,4,image/4.jpg,0,0,,R_1FlaYCokradBQ0u,2,2024-05-26_16h07.29.120,face trait task,2021.2.3,MacIntel,60.60606061,120461,,,,,,,
,,,,,,1.002473958,3.4794,space,0.4614,0,7,7,52,1,52,image/fill_img.png,1,1,Please move the slider all the way to the LEFT to show that you are paying attention.,R_1FlaYCokradBQ0u,2,2024-05-26_16h07.29.120,face trait task,2021.2.3,MacIntel,60.60606061,120461,,,,,,,
,,,,,,3.991328125,1.4643,space,0.2542,0,8,8,9,1,10,image/10.jpg,0,0,,R_1FlaYCokradBQ0u,2,2024-05-26_16h07.29.120,face trait task,2021.2.3,MacIntel,60.60606061,120461,,,,,,,
,,,,,,3.991328125,0.897,space,0.4542,0,9,9,0,1,1,image/1.jpg,0,0,,R_1FlaYCokradBQ0u,2,2024-05-26_16h07.29.120,face trait task,2021.2.3,MacIntel,60.60606061,120461,,,,,,,
,,,,,,3.991328125,0.5818,space,1.0282,0,10,10,14,1,15,image/15.jpg,0,0,,R_1FlaYCokradBQ0u,2,2024-05-26_16h07.29.120,face trait task,2021.2.3,MacIntel,60.60606061,120461,,,,,,,
,,,,,,3.991328125,1.0127,space,0.4511,0,11,11,35,1,36,image/36.jpg,0,0,,R_1FlaYCokradBQ0u,2,2024-05-26_16h07.29.120,face trait task,2021.2.3,MacIntel,60.60606061,120461,,,,,,,
,,,,,,3.990546875,1.0128,space,0.2011,0,12,12,30,1,31,image/31.jpg,0,0,,R_1FlaYCokradBQ0u,2,2024-05-26_16h07.29.120,face trait task,2021.2.3,MacIntel,60.60606061,120461,,,,,,,
,,,,,,3.985651042,0.8967,space,0.3653,0,13,13,7,1,8,image/8.jpg,0,0,,R_1FlaYCokradBQ0u,2,2024-05-26_16h07.29.120,face trait task,2021.2.3,MacIntel,60.60606061,120461,,,,,,,
,,,,,,3.984088542,1.0123,space,0.3163,0,14,14,42,1,43,image/43.jpg,0,0,,R_1FlaYCokradBQ0u,2,2024-05-26_16h07.29.120,face trait task,2021.2.3,MacIntel,60.60606061,120461,,,,,,,
,,,,,,3.984088542,1.2802,space,0.3221,0,15,15,29,1,30,image/30.jpg,0,0,,R_1FlaYCokradBQ0u,2,2024-05-26_16h07.29.120,face trait task,2021.2.3,MacIntel,60.60606061,120461,,,,,,,
,,,,,,3.984088542,1.0286,space,0.4552,0,16,16,45,1,46,image/46.jpg,0,0,,R_1FlaYCokradBQ0u,2,2024-05-26_16h07.29.120,face trait task,2021.2.3,MacIntel,60.60606061,120461,,,,,,,
,,,,,,3.982552083,0.9126,space,0.5008,0,17,17,1,1,2,image/2.jpg,0,0,,R_1FlaYCokradBQ0u,2,2024-05-26_16h07.29.120,face trait task,2021.2.3,MacIntel,60.60606061,120461,,,,,,,
,,,,,,3.981770833,0.9466,space,0.2622,0,18,18,5,1,6,image/6.jpg,0,0,,R_1FlaYCokradBQ0u,2,2024-05-26_16h07.29.120,face trait task,2021.2.3,MacIntel,60.60606061,120461,,,,,,,
,,,,,,3.9784375,0.9793,space,0.4183,0,19,19,31,1,32,image/32.jpg,0,0,,R_1FlaYCokradBQ0u,2,2024-05-26_16h07.29.120,face trait task,2021.2.3,MacIntel,60.60606061,120461,,,,,,,
,,,,,,3.9784375,0.9469,space,0.3505,0,20,20,6,1,7,image/7.jpg,0,0,,R_1FlaYCokradBQ0u,2,2024-05-26_16h07.29.120,face trait task,2021.2.3,MacIntel,60.60606061,120461,,,,,,,
,,,,,,3.9784375,1.2468,space,0.34,0,21,21,27,1,28,image/28.jpg,0,0,,R_1FlaYCokradBQ0u,2,2024-05-26_16h07.29.120,face trait task,2021.2.3,MacIntel,60.60606061,120461,,,,,,,
,,,,,,3.9784375,0.8635,space,0.4858,0,22,22,13,1,14,image/14.jpg,0,0,,R_1FlaYCokradBQ0u,2,2024-05-26_16h07.29.120,face trait task,2021.2.3,MacIntel,60.60606061,120461,,,,,,,
,,,,,,3.9784375,0.9137,space,0.3044,0,23,23,36,1,37,image/37.jpg,0,0,,R_1FlaYCokradBQ0u,2,2024-05-26_16h07.29.120,face trait task,2021.2.3,MacIntel,60.60606061,120461,,,,,,,
,,,,,,3.9784375,0.7452,space,0.5573,0,24,24,8,1,9,image/9.jpg,0,0,,R_1FlaYCokradBQ0u,2,2024-05-26_16h07.29.120,face trait task,2021.2.3,MacIntel,60.60606061,120461,,,,,,,
,,,,,,3.9784375,1.2966,space,0.2138,0,25,25,49,1,50,image/50.jpg,0,0,,R_1FlaYCokradBQ0u,2,2024-05-26_16h07.29.120,face trait task,2021.2.3,MacIntel,60.60606061,120461,,,,,,,
,,,,,,3.9784375,0.9134,space,0.4693,0,26,26,26,1,27,image/27.jpg,0,0,,R_1FlaYCokradBQ0u,2,2024-05-26_16h07.29.120,face trait task,2021.2.3,MacIntel,60.60606061,120461,,,,,,,
,,,,,,3.9784375,1.4139,space,0.2212,0,27,27,40,1,41,image/41.jpg,0,0,,R_1FlaYCokradBQ0u,2,2024-05-26_16h07.29.120,face trait task,2021.2.3,MacIntel,60.60606061,120461,,,,,,,
,,,,,,3.9784375,1.1806,space,0.3547,0,28,28,24,1,25,image/25.jpg,0,0,,R_1FlaYCokradBQ0u,2,2024-05-26_16h07.29.120,face trait task,2021.2.3,MacIntel,60.60606061,120461,,,,,,,
,,,,,,3.972083333,1.1471,space,0.2376,0,29,29,4,1,5,image/5.jpg,0,0,,R_1FlaYCokradBQ0u,2,2024-05-26_16h07.29.120,face trait task,2021.2.3,MacIntel,60.60606061,120461,,,,,,,
,,,,,,3.972083333,0.9134,space,0.4797,0,30,30,12,1,13,image/13.jpg,0,0,,R_1FlaYCokradBQ0u,2,2024-05-26_16h07.29.120,face trait task,2021.2.3,MacIntel,60.60606061,120461,,,,,,,
,,,,,,3.972083333,1.2298,space,0.4176,0,31,31,44,1,45,image/45.jpg,0,0,,R_1FlaYCokradBQ0u,2,2024-05-26_16h07.29.120,face trait task,2021.2.3,MacIntel,60.60606061,120461,,,,,,,
,,,,,,1.05328125,2.8937,space,0.4891,0,32,32,51,1,51,image/fill_img.png,1,1,Please move the slider all the way to the LEFT to show that you are paying attention.,R_1FlaYCokradBQ0u,2,2024-05-26_16h07.29.120,face trait task,2021.2.3,MacIntel,60.60606061,120461,,,,,,,
,,,,,,4.0103125,1.8806,space,0.2287,0,33,33,21,1,22,image/22.jpg,0,0,,R_1FlaYCokradBQ0u,2,2024-05-26_16h07.29.120,face trait task,2021.2.3,MacIntel,60.60606061,120461,,,,,,,
,,,,,,4.013645833,0.7788,space,0.5865,0,34,34,34,1,35,image/35.jpg,0,0,,R_1FlaYCokradBQ0u,2,2024-05-26_16h07.29.120,face trait task,2021.2.3,MacIntel,60.60606061,120461,,,,,,,
,,,,,,4.013645833,0.8946,space,0.4528,0,35,35,39,1,40,image/40.jpg,0,0,,R_1FlaYCokradBQ0u,2,2024-05-26_16h07.29.120,face trait task,2021.2.3,MacIntel,60.60606061,120461,,,,,,,
,,,,,,4.013645833,0.9469,space,0.2703,0,36,36,22,1,23,image/23.jpg,0,0,,R_1FlaYCokradBQ0u,2,2024-05-26_16h07.29.120,face trait task,2021.2.3,MacIntel,60.60606061,120461,,,,,,,
,,,,,,4.013645833,0.9458,space,0.901,0,37,37,38,1,39,image/39.jpg,0,0,,R_1FlaYCokradBQ0u,2,2024-05-26_16h07.29.120,face trait task,2021.2.3,MacIntel,60.60606061,120461,,,,,,,
,,,,,,4.013645833,0.8813,space,0.7053,0,38,38,48,1,49,image/49.jpg,0,0,,R_1FlaYCokradBQ0u,2,2024-05-26_16h07.29.120,face trait task,2021.2.3,MacIntel,60.60606061,120461,,,,,,,
,,,,,,4.0078125,1.0316,space,0.3462,0,39,39,17,1,18,image/18.jpg,0,0,,R_1FlaYCokradBQ0u,2,2024-05-26_16h07.29.120,face trait task,2021.2.3,MacIntel,60.60606061,120461,,,,,,,
,,,,,,6.987864583,2.8568,space,0.3371,0,40,40,50,1,60,image/fill_img.png,1,7,Please move the slider all the way to the RIGHT to show that you are paying attention.,R_1FlaYCokradBQ0u,2,2024-05-26_16h07.29.120,face trait task,2021.2.3,MacIntel,60.60606061,120461,,,,,,,
,,,,,,3.983489583,2.3162,space,0.183,0,41,41,11,1,12,image/12.jpg,0,0,,R_1FlaYCokradBQ0u,2,2024-05-26_16h07.29.120,face trait task,2021.2.3,MacIntel,60.60606061,120461,,,,,,,
,,,,,,3.964765625,1.2293,space,0.7625,0,42,42,19,1,20,image/20.jpg,0,0,,R_1FlaYCokradBQ0u,2,2024-05-26_16h07.29.120,face trait task,2021.2.3,MacIntel,60.60606061,120461,,,,,,,
,,,,,,4.008541667,2.2169,space,0.166,0,43,43,16,1,17,image/17.jpg,0,0,,R_1FlaYCokradBQ0u,2,2024-05-26_16h07.29.120,face trait task,2021.2.3,MacIntel,60.60606061,120461,,,,,,,
,,,,,,3.965026042,1.7839,space,0.9004,0,44,44,18,1,19,image/19.jpg,0,0,,R_1FlaYCokradBQ0u,2,2024-05-26_16h07.29.120,face trait task,2021.2.3,MacIntel,60.60606061,120461,,,,,,,
,,,,,,4.019947917,2.4462,space,0.5725,0,45,45,23,1,24,image/24.jpg,0,0,,R_1FlaYCokradBQ0u,2,2024-05-26_16h07.29.120,face trait task,2021.2.3,MacIntel,60.60606061,120461,,,,,,,
,,,,,,3.98671875,1.215,space,0.8354,0,46,46,32,1,33,image/33.jpg,0,0,,R_1FlaYCokradBQ0u,2,2024-05-26_16h07.29.120,face trait task,2021.2.3,MacIntel,60.60606061,120461,,,,,,,
,,,,,,4.00421875,2.1306,space,0.4286,0,47,47,41,1,42,image/42.jpg,0,0,,R_1FlaYCokradBQ0u,2,2024-05-26_16h07.29.120,face trait task,2021.2.3,MacIntel,60.60606061,120461,,,,,,,
,,,,,,3.978958333,1.2952,space,0.4051,0,48,48,10,1,11,image/11.jpg,0,0,,R_1FlaYCokradBQ0u,2,2024-05-26_16h07.29.120,face trait task,2021.2.3,MacIntel,60.60606061,120461,,,,,,,
,,,,,,4.027708333,0.9804,space,0.5944,0,49,49,25,1,26,image/26.jpg,0,0,,R_1FlaYCokradBQ0u,2,2024-05-26_16h07.29.120,face trait task,2021.2.3,MacIntel,60.60606061,120461,,,,,,,
,,,,,,4.024375,0.9973,space,1.0343,0,50,50,2,1,3,image/3.jpg,0,0,,R_1FlaYCokradBQ0u,2,2024-05-26_16h07.29.120,face trait task,2021.2.3,MacIntel,60.60606061,120461,,,,,,,
,,,,,,4.024375,0.9956,space,1.0723,0,51,51,20,1,21,image/21.jpg,0,0,,R_1FlaYCokradBQ0u,2,2024-05-26_16h07.29.120,face trait task,2021.2.3,MacIntel,60.60606061,120461,,,,,,,
,,,,,,4.024375,1.0316,space,0.648,0,52,52,33,1,34,image/34.jpg,0,0,,R_1FlaYCokradBQ0u,2,2024-05-26_16h07.29.120,face trait task,2021.2.3,MacIntel,60.60606061,120461,,,,,,,
,,,,,,,,,,,,,,,,,,,,R_1FlaYCokradBQ0u,2,2024-05-26_16h07.29.120,face trait task,2021.2.3,MacIntel,60.60606061,120461,0,2,2,1,1,1,competent.png
,,,,,critical,4.550677083,4.6375,space,1.9292,0,0,0,20,1,21,image/21.jpg,0,0,,R_1FlaYCokradBQ0u,2,2024-05-26_16h07.29.120,face trait task,2021.2.3,MacIntel,60.60606061,120461,,,,,,,
,,,,,,4.557760417,0.9129,space,0.6209,0,1,1,31,1,32,image/32.jpg,0,0,,R_1FlaYCokradBQ0u,2,2024-05-26_16h07.29.120,face trait task,2021.2.3,MacIntel,60.60606061,120461,,,,,,,
,,,,,,4.557760417,0.8811,space,0.8366,0,2,2,6,1,7,image/7.jpg,0,0,,R_1FlaYCokradBQ0u,2,2024-05-26_16h07.29.120,face trait task,2021.2.3,MacIntel,60.60606061,120461,,,,,,,
,,,,,,5.000260417,1.2159,space,0.2866,0,3,3,43,1,44,image/44.jpg,0,0,,R_1FlaYCokradBQ0u,2,2024-05-26_16h07.29.120,face trait task,2021.2.3,MacIntel,60.60606061,120461,,,,,,,
,,,,,,5.000260417,0.9467,space,0.5222,0,4,4,27,1,28,image/28.jpg,0,0,,R_1FlaYCokradBQ0u,2,2024-05-26_16h07.29.120,face trait task,2021.2.3,MacIntel,60.60606061,120461,,,,,,,
,,,,,,1.006328125,3.2186,space,0.4455,0,5,5,51,1,51,image/fill_img.png,1,1,Please move the slider all the way to the LEFT to show that you are paying attention.,R_1FlaYCokradBQ0u,2,2024-05-26_16h07.29.120,face trait task,2021.2.3,MacIntel,60.60606061,120461,,,,,,,
,,,,,,4.967760417,1.2463,space,0.3512,0,6,6,11,1,12,image/12.jpg,0,0,,R_1FlaYCokradBQ0u,2,2024-05-26_16h07.29.120,face trait task,2021.2.3,MacIntel,60.60606061,120461,,,,,,,
,,,,,,4.967760417,0.9183,space,0.6213,0,7,7,0,1,1,image/1.jpg,0,0,,R_1FlaYCokradBQ0u,2,2024-05-26_16h07.29.120,face trait task,2021.2.3,MacIntel,60.60606061,120461,,,,,,,
,,,,,,4.967760417,1.1629,space,0.3181,0,8,8,32,1,33,image/33.jpg,0,0,,R_1FlaYCokradBQ0u,2,2024-05-26_16h07.29.120,face trait task,2021.2.3,MacIntel,60.60606061,120461,,,,,,,
,,,,,,4.967760417,0.9635,space,0.5534,0,9,9,25,1,26,image/26.jpg,0,0,,R_1FlaYCokradBQ0u,2,2024-05-26_16h07.29.120,face trait task,2021.2.3,MacIntel,60.60606061,120461,,,,,,,
,,,,,,4.966223958,1.3815,space,0.4187,0,10,10,48,1,49,image/49.jpg,0,0,,R_1FlaYCokradBQ0u,2,2024-05-26_16h07.29.120,face trait task,2021.2.3,MacIntel,60.60606061,120461,,,,,,,
,,,,,,4.966223958,0.9806,space,0.6662,0,11,11,21,1,22,image/22.jpg,0,0,,R_1FlaYCokradBQ0u,2,2024-05-26_16h07.29.120,face trait task,2021.2.3,MacIntel,60.60606061,120461,,,,,,,
,,,,,,4.966223958,1.347,space,0.7809,0,12,12,35,1,36,image/36.jpg,0,0,,R_1FlaYCokradBQ0u,2,2024-05-26_16h07.29.120,face trait task,2021.2.3,MacIntel,60.60606061,120461,,,,,,,
,,,,,,4.966223958,1.0855,space,0.8325,0,13,13,14,1,15,image/15.jpg,0,0,,R_1FlaYCokradBQ0u,2,2024-05-26_16h07.29.120,face trait task,2021.2.3,MacIntel,60.60606061,120461,,,,,,,
,,,,,,1.01140625,2.5474,space,0.5074,0,14,14,52,1,52,image/fill_img.png,1,1,Please move the slider all the way to the LEFT to show that you are paying attention.,R_1FlaYCokradBQ0u,2,2024-05-26_16h07.29.120,face trait task,2021.2.3,MacIntel,60.60606061,120461,,,,,,,
,,,,,,4.989427083,1.5469,space,0.3192,0,15,15,23,1,24,image/24.jpg,0,0,,R_1FlaYCokradBQ0u,2,2024-05-26_16h07.29.120,face trait task,2021.2.3,MacIntel,60.60606061,120461,,,,,,,
,,,,,,4.987890625,1.3132,space,0.6852,0,16,16,47,1,48,image/48.jpg,0,0,,R_1FlaYCokradBQ0u,2,2024-05-26_16h07.29.120,face trait task,2021.2.3,MacIntel,60.60606061,120461,,,,,,,
,,,,,,4.987890625,1.7968,space,0.8174,0,17,17,46,1,47,image/47.jpg,0,0,,R_1FlaYCokradBQ0u,2,2024-05-26_16h07.29.120,face trait task,2021.2.3,MacIntel,60.60606061,120461,,,,,,,
,,,,,,4.987890625,1.5315,space,0.484,0,18,18,8,1,9,image/9.jpg,0,0,,R_1FlaYCokradBQ0u,2,2024-05-26_16h07.29.120,face trait task,2021.2.3,MacIntel,60.60606061,120461,,,,,,,
,,,,,,4.965755208,1.2812,space,0.8016,0,19,19,39,1,40,image/40.jpg,0,0,,R_1FlaYCokradBQ0u,2,2024-05-26_16h07.29.120,face trait task,2021.2.3,MacIntel,60.60606061,120461,,,,,,,
,,,,,,5.007473958,1.3299,space,0.7845,0,20,20,42,1,43,image/43.jpg,0,0,,R_1FlaYCokradBQ0u,2,2024-05-26_16h07.29.120,face trait task,2021.2.3,MacIntel,60.60606061,120461,,,,,,,
,,,,,,4.996171875,1.3445,space,0.7192,0,21,21,9,1,10,image/10.jpg,0,0,,R_1FlaYCokradBQ0u,2,2024-05-26_16h07.29.120,face trait task,2021.2.3,MacIntel,60.60606061,120461,,,,,,,
,,,,,,4.993020833,1.2305,space,0.6692,0,22,22,24,1,25,image/25.jpg,0,0,,R_1FlaYCokradBQ0u,2,2024-05-26_16h07.29.120,face trait task,2021.2.3,MacIntel,60.60606061,120461,,,,,,,
,,,,,,4.992239583,1.1318,space,0.7181,0,23,23,37,1,38,image/38.jpg,0,0,,R_1FlaYCokradBQ0u,2,2024-05-26_16h07.29.120,face trait task,2021.2.3,MacIntel,60.60606061,120461,,,,,,,
,,,,,,4.98890625,1.2476,space,0.3848,0,24,24,33,1,34,image/34.jpg,0,0,,R_1FlaYCokradBQ0u,2,2024-05-26_16h07.29.120,face trait task,2021.2.3,MacIntel,60.60606061,120461,,,,,,,
,,,,,,4.984973958,1.0139,space,0.8627,0,25,25,12,1,13,image/13.jpg,0,0,,R_1FlaYCokradBQ0u,2,2024-05-26_16h07.29.120,face trait task,2021.2.3,MacIntel,60.60606061,120461,,,,,,,
,,,,,,4.981640625,0.981,space,0.6466,0,26,26,40,1,41,image/41.jpg,0,0,,R_1FlaYCokradBQ0u,2,2024-05-26_16h07.29.120,face trait task,2021.2.3,MacIntel,60.60606061,120461,,,,,,,
,,,,,,4.981640625,1.031,space,0.6059,0,27,27,49,1,50,image/50.jpg,0,0,,R_1FlaYCokradBQ0u,2,2024-05-26_16h07.29.120,face trait task,2021.2.3,MacIntel,60.60606061,120461,,,,,,,
,,,,,,4.981640625,1.1637,space,0.6516,0,28,28,30,1,31,image/31.jpg,0,0,,R_1FlaYCokradBQ0u,2,2024-05-26_16h07.29.120,face trait task,2021.2.3,MacIntel,60.60606061,120461,,,,,,,
,,,,,,4.981640625,1.1487,space,0.7022,0,29,29,3,1,4,image/4.jpg,0,0,,R_1FlaYCokradBQ0u,2,2024-05-26_16h07.29.120,face trait task,2021.2.3,MacIntel,60.60606061,120461,,,,,,,
,,,,,,4.981640625,1.9641,space,0.6014,0,30,30,15,1,16,image/16.jpg,0,0,,R_1FlaYCokradBQ0u,2,2024-05-26_16h07.29.120,face trait task,2021.2.3,MacIntel,60.60606061,120461,,,,,,,
,,,,,,4.981640625,1.1637,space,0.8522,0,31,31,13,1,14,image/14.jpg,0,0,,R_1FlaYCokradBQ0u,2,2024-05-26_16h07.29.120,face trait task,2021.2.3,MacIntel,60.60606061,120461,,,,,,,
,,,,,,4.981640625,1.1798,space,0.9207,0,32,32,18,1,19,image/19.jpg,0,0,,R_1FlaYCokradBQ0u,2,2024-05-26_16h07.29.120,face trait task,2021.2.3,MacIntel,60.60606061,120461,,,,,,,
,,,,,,4.981640625,1.0296,space,0.6799,0,33,33,36,1,37,image/37.jpg,0,0,,R_1FlaYCokradBQ0u,2,2024-05-26_16h07.29.120,face trait task,2021.2.3,MacIntel,60.60606061,120461,,,,,,,
,,,,,,4.981640625,0.9807,space,0.8353,0,34,34,7,1,8,image/8.jpg,0,0,,R_1FlaYCokradBQ0u,2,2024-05-26_16h07.29.120,face trait task,2021.2.3,MacIntel,60.60606061,120461,,,,,,,
,,,,,,4.981640625,0.9465,space,0.7683,0,35,35,34,1,35,image/35.jpg,0,0,,R_1FlaYCokradBQ0u,2,2024-05-26_16h07.29.120,face trait task,2021.2.3,MacIntel,60.60606061,120461,,,,,,,
,,,,,,6.989088542,3.9746,space,0.3418,0,36,36,50,1,60,image/fill_img.png,1,7,Please move the slider all the way to the RIGHT to show that you are paying attention.,R_1FlaYCokradBQ0u,2,2024-05-26_16h07.29.120,face trait task,2021.2.3,MacIntel,60.60606061,120461,,,,,,,
,,,,,,4.969088542,1.281,space,0.4831,0,37,37,2,1,3,image/3.jpg,0,0,,R_1FlaYCokradBQ0u,2,2024-05-26_16h07.29.120,face trait task,2021.2.3,MacIntel,60.60606061,120461,,,,,,,
,,,,,,4.966901042,1.2302,space,0.6478,0,38,38,28,1,29,image/29.jpg,0,0,,R_1FlaYCokradBQ0u,2,2024-05-26_16h07.29.120,face trait task,2021.2.3,MacIntel,60.60606061,120461,,,,,,,
,,,,,,4.925494792,1.1688,space,0.6126,0,39,39,44,1,45,image/45.jpg,0,0,,R_1FlaYCokradBQ0u,2,2024-05-26_16h07.29.120,face trait task,2021.2.3,MacIntel,60.60606061,120461,,,,,,,
,,,,,,4.978932292,1.2801,space,0.6073,0,40,40,10,1,11,image/11.jpg,0,0,,R_1FlaYCokradBQ0u,2,2024-05-26_16h07.29.120,face trait task,2021.2.3,MacIntel,60.60606061,120461,,,,,,,
,,,,,,4.979739583,1.4647,space,0.2673,0,41,41,17,1,18,image/18.jpg,0,0,,R_1FlaYCokradBQ0u,2,2024-05-26_16h07.29.120,face trait task,2021.2.3,MacIntel,60.60606061,120461,,,,,,,
,,,,,,4.978177083,0.9142,space,0.7193,0,42,42,5,1,6,image/6.jpg,0,0,,R_1FlaYCokradBQ0u,2,2024-05-26_16h07.29.120,face trait task,2021.2.3,MacIntel,60.60606061,120461,,,,,,,
,,,,,,4.99125,1.4628,space,0.6017,0,43,43,41,1,42,image/42.jpg,0,0,,R_1FlaYCokradBQ0u,2,2024-05-26_16h07.29.120,face trait task,2021.2.3,MacIntel,60.60606061,120461,,,,,,,
,,,,,,4.977395833,1.1475,space,0.6968,0,44,44,38,1,39,image/39.jpg,0,0,,R_1FlaYCokradBQ0u,2,2024-05-26_16h07.29.120,face trait task,2021.2.3,MacIntel,60.60606061,120461,,,,,,,
,,,,,,4.977395833,1.1466,space,1.3463,0,45,45,22,1,23,image/23.jpg,0,0,,R_1FlaYCokradBQ0u,2,2024-05-26_16h07.29.120,face trait task,2021.2.3,MacIntel,60.60606061,120461,,,,,,,
,,,,,,4.977395833,1.0169,space,0.3525,0,46,46,1,1,2,image/2.jpg,0,0,,R_1FlaYCokradBQ0u,2,2024-05-26_16h07.29.120,face trait task,2021.2.3,MacIntel,60.60606061,120461,,,,,,,
,,,,,,4.977395833,1.5142,space,0.6687,0,47,47,4,1,5,image/5.jpg,0,0,,R_1FlaYCokradBQ0u,2,2024-05-26_16h07.29.120,face trait task,2021.2.3,MacIntel,60.60606061,120461,,,,,,,
,,,,,,4.974296875,0.98,space,0.5533,0,48,48,45,1,46,image/46.jpg,0,0,,R_1FlaYCokradBQ0u,2,2024-05-26_16h07.29.120,face trait task,2021.2.3,MacIntel,60.60606061,120461,,,,,,,
,,,,,,4.964375,0.9802,space,0.9699,0,49,49,19,1,20,image/20.jpg,0,0,,R_1FlaYCokradBQ0u,2,2024-05-26_16h07.29.120,face trait task,2021.2.3,MacIntel,60.60606061,120461,,,,,,,
,,,,,,4.964375,1.1639,space,0.9159,0,50,50,29,1,30,image/30.jpg,0,0,,R_1FlaYCokradBQ0u,2,2024-05-26_16h07.29.120,face trait task,2021.2.3,MacIntel,60.60606061,120461,,,,,,,
,,,,,,4.964375,1.1469,space,0.9387,0,51,51,16,1,17,image/17.jpg,0,0,,R_1FlaYCokradBQ0u,2,2024-05-26_16h07.29.120,face trait task,2021.2.3,MacIntel,60.60606061,120461,,,,,,,
,,,,,,4.955755208,1.0142,space,1.2022,0,52,52,26,1,27,image/27.jpg,0,0,,R_1FlaYCokradBQ0u,2,2024-05-26_16h07.29.120,face trait task,2021.2.3,MacIntel,60.60606061,120461,,,,,,,
,,,,,,,,,,,,,,,,,,,,R_1FlaYCokradBQ0u,2,2024-05-26_16h07.29.120,face trait task,2021.2.3,MacIntel,60.60606061,120461,0,3,3,0,1,0,critical.png
