key_resp.keys,key_resp.rt,key_resp_4.keys,key_resp_4.rt,slider_face_judge.response,slider_face_judge.rt,key_resp_3.keys,key_resp_3.rt,face_loop.thisRepN,face_loop.thisTrialN,face_loop.thisN,face_loop.thisIndex,face_loop.ran,face_serial,image_name,isCheck,participant,session,date,expName,psychopyVersion,OS,frameRate,SONAid,session.thisRepN,session.thisTrialN,session.thisN,session.thisIndex,session.ran,session_serial,slider_judge_img
space,35.966,space,18.886,1.986666667,5.707,space,0.389,0,0,0,29,1,30,image/30.jpg,0,R_1FEbkzkWgC4zflT,2,2024-04-14_15h11.29.262,face trait task,2021.2.3,MacIntel,30.3030303,120351,,,,,,,
,,,,3.473333333,2.835,space,0.24,0,1,1,14,1,15,image/15.jpg,0,R_1FEbkzkWgC4zflT,2,2024-04-14_15h11.29.262,face trait task,2021.2.3,MacIntel,30.3030303,120351,,,,,,,
,,,,1.92,2.969,space,0.381,0,2,2,13,1,14,image/14.jpg,0,R_1FEbkzkWgC4zflT,2,2024-04-14_15h11.29.262,face trait task,2021.2.3,MacIntel,30.3030303,120351,,,,,,,
,,,,1.566666667,2.585,space,0.216,0,3,3,38,1,39,image/39.jpg,0,R_1FEbkzkWgC4zflT,2,2024-04-14_15h11.29.262,face trait task,2021.2.3,MacIntel,30.3030303,120351,,,,,,,
,,,,5.046666667,4.203,space,2.049,0,4,4,7,1,8,image/8.jpg,0,R_1FEbkzkWgC4zflT,2,2024-04-14_15h11.29.262,face trait task,2021.2.3,MacIntel,30.3030303,120351,,,,,,,
,,,,5.98,1.753,space,0.222,0,5,5,20,1,21,image/21.jpg,0,R_1FEbkzkWgC4zflT,2,2024-04-14_15h11.29.262,face trait task,2021.2.3,MacIntel,30.3030303,120351,,,,,,,
,,,,4,2.102,space,0.163,0,6,6,22,1,23,image/23.jpg,0,R_1FEbkzkWgC4zflT,2,2024-04-14_15h11.29.262,face trait task,2021.2.3,MacIntel,30.3030303,120351,,,,,,,
,,,,1.913333333,2.436,space,0.541,0,7,7,50,1,57,image/57.jpg,1,R_1FEbkzkWgC4zflT,2,2024-04-14_15h11.29.262,face trait task,2021.2.3,MacIntel,30.3030303,120351,,,,,,,
,,,,6.653333333,13.769,space,0.816,0,8,8,49,1,50,image/50.jpg,0,R_1FEbkzkWgC4zflT,2,2024-04-14_15h11.29.262,face trait task,2021.2.3,MacIntel,30.3030303,120351,,,,,,,
,,,,4.5,5.318,space,2.103,0,9,9,1,1,2,image/2.jpg,0,R_1FEbkzkWgC4zflT,2,2024-04-14_15h11.29.262,face trait task,2021.2.3,MacIntel,30.3030303,120351,,,,,,,
,,,,5.126666667,1.852,space,0.41,0,10,10,2,1,3,image/3.jpg,0,R_1FEbkzkWgC4zflT,2,2024-04-14_15h11.29.262,face trait task,2021.2.3,MacIntel,30.3030303,120351,,,,,,,
,,,,3.486666667,3.337,space,0.279,0,11,11,47,1,48,image/48.jpg,0,R_1FEbkzkWgC4zflT,2,2024-04-14_15h11.29.262,face trait task,2021.2.3,MacIntel,30.3030303,120351,,,,,,,
,,,,4.993333333,2.569,space,0.744,0,12,12,11,1,12,image/12.jpg,0,R_1FEbkzkWgC4zflT,2,2024-04-14_15h11.29.262,face trait task,2021.2.3,MacIntel,30.3030303,120351,,,,,,,
,,,,5,4.503,space,2.343,0,13,13,41,1,42,image/42.jpg,0,R_1FEbkzkWgC4zflT,2,2024-04-14_15h11.29.262,face trait task,2021.2.3,MacIntel,30.3030303,120351,,,,,,,
,,,,3.986666667,3.218,space,0.417,0,14,14,6,1,7,image/7.jpg,0,R_1FEbkzkWgC4zflT,2,2024-04-14_15h11.29.262,face trait task,2021.2.3,MacIntel,30.3030303,120351,,,,,,,
,,,,4.533333333,3.502,space,0.485,0,15,15,19,1,20,image/20.jpg,0,R_1FEbkzkWgC4zflT,2,2024-04-14_15h11.29.262,face trait task,2021.2.3,MacIntel,30.3030303,120351,,,,,,,
,,,,4.64,4.219,space,0.679,0,16,16,24,1,25,image/25.jpg,0,R_1FEbkzkWgC4zflT,2,2024-04-14_15h11.29.262,face trait task,2021.2.3,MacIntel,30.3030303,120351,,,,,,,
,,,,6.96,2.336,space,0.371,0,17,17,17,1,18,image/18.jpg,0,R_1FEbkzkWgC4zflT,2,2024-04-14_15h11.29.262,face trait task,2021.2.3,MacIntel,30.3030303,120351,,,,,,,
,,,,6.02,2.385,space,1.112,0,18,18,16,1,17,image/17.jpg,0,R_1FEbkzkWgC4zflT,2,2024-04-14_15h11.29.262,face trait task,2021.2.3,MacIntel,30.3030303,120351,,,,,,,
,,,,3.993333333,2.519,space,0.632,0,19,19,23,1,24,image/24.jpg,0,R_1FEbkzkWgC4zflT,2,2024-04-14_15h11.29.262,face trait task,2021.2.3,MacIntel,30.3030303,120351,,,,,,,
,,,,2.96,3.286,space,0.277,0,20,20,9,1,10,image/10.jpg,0,R_1FEbkzkWgC4zflT,2,2024-04-14_15h11.29.262,face trait task,2021.2.3,MacIntel,30.3030303,120351,,,,,,,
,,,,3.493333333,3.802,space,0.521,0,21,21,40,1,41,image/41.jpg,0,R_1FEbkzkWgC4zflT,2,2024-04-14_15h11.29.262,face trait task,2021.2.3,MacIntel,30.3030303,120351,,,,,,,
,,,,3.5,4.569,space,0.918,0,22,22,3,1,4,image/4.jpg,0,R_1FEbkzkWgC4zflT,2,2024-04-14_15h11.29.262,face trait task,2021.2.3,MacIntel,30.3030303,120351,,,,,,,
,,,,2.013333333,5.085,space,0.404,0,23,23,28,1,29,image/29.jpg,0,R_1FEbkzkWgC4zflT,2,2024-04-14_15h11.29.262,face trait task,2021.2.3,MacIntel,30.3030303,120351,,,,,,,
,,,,4.993333333,4.518,space,0.689,0,24,24,51,1,57,image/57.jpg,1,R_1FEbkzkWgC4zflT,2,2024-04-14_15h11.29.262,face trait task,2021.2.3,MacIntel,30.3030303,120351,,,,,,,
,,,,4.42,7.936,space,0.254,0,25,25,21,1,22,image/22.jpg,0,R_1FEbkzkWgC4zflT,2,2024-04-14_15h11.29.262,face trait task,2021.2.3,MacIntel,30.3030303,120351,,,,,,,
,,,,4.933333333,18.335,space,0.958,0,26,26,35,1,36,image/36.jpg,0,R_1FEbkzkWgC4zflT,2,2024-04-14_15h11.29.262,face trait task,2021.2.3,MacIntel,30.3030303,120351,,,,,,,
,,,,3.98,2.402,space,0.494,0,27,27,37,1,38,image/38.jpg,0,R_1FEbkzkWgC4zflT,2,2024-04-14_15h11.29.262,face trait task,2021.2.3,MacIntel,30.3030303,120351,,,,,,,
,,,,3.26,6.269,space,0.273,0,28,28,4,1,5,image/5.jpg,0,R_1FEbkzkWgC4zflT,2,2024-04-14_15h11.29.262,face trait task,2021.2.3,MacIntel,30.3030303,120351,,,,,,,
,,,,2.006666667,3.47,space,0.238,0,29,29,34,1,35,image/35.jpg,0,R_1FEbkzkWgC4zflT,2,2024-04-14_15h11.29.262,face trait task,2021.2.3,MacIntel,30.3030303,120351,,,,,,,
,,,,1.913333333,1.918,space,0.44,0,30,30,48,1,49,image/49.jpg,0,R_1FEbkzkWgC4zflT,2,2024-04-14_15h11.29.262,face trait task,2021.2.3,MacIntel,30.3030303,120351,,,,,,,
,,,,1.073333333,2.137,space,0.649,0,31,31,39,1,40,image/40.jpg,0,R_1FEbkzkWgC4zflT,2,2024-04-14_15h11.29.262,face trait task,2021.2.3,MacIntel,30.3030303,120351,,,,,,,
,,,,1.993333333,2.119,space,0.489,0,32,32,32,1,33,image/33.jpg,0,R_1FEbkzkWgC4zflT,2,2024-04-14_15h11.29.262,face trait task,2021.2.3,MacIntel,30.3030303,120351,,,,,,,
,,,,3.506666667,2.637,space,0.432,0,33,33,36,1,37,image/37.jpg,0,R_1FEbkzkWgC4zflT,2,2024-04-14_15h11.29.262,face trait task,2021.2.3,MacIntel,30.3030303,120351,,,,,,,
,,,,1.06,2.184,space,0.393,0,34,34,52,1,58,image/58.jpg,1,R_1FEbkzkWgC4zflT,2,2024-04-14_15h11.29.262,face trait task,2021.2.3,MacIntel,30.3030303,120351,,,,,,,
,,,,1.973333333,1.903,space,0.619,0,35,35,8,1,9,image/9.jpg,0,R_1FEbkzkWgC4zflT,2,2024-04-14_15h11.29.262,face trait task,2021.2.3,MacIntel,30.3030303,120351,,,,,,,
,,,,2.04,3.102,space,0.971,0,36,36,46,1,47,image/47.jpg,0,R_1FEbkzkWgC4zflT,2,2024-04-14_15h11.29.262,face trait task,2021.2.3,MacIntel,30.3030303,120351,,,,,,,
,,,,1.033333333,3.135,space,0.554,0,37,37,27,1,28,image/28.jpg,0,R_1FEbkzkWgC4zflT,2,2024-04-14_15h11.29.262,face trait task,2021.2.3,MacIntel,30.3030303,120351,,,,,,,
,,,,4.02,2.684,space,0.453,0,38,38,0,1,1,image/1.jpg,0,R_1FEbkzkWgC4zflT,2,2024-04-14_15h11.29.262,face trait task,2021.2.3,MacIntel,30.3030303,120351,,,,,,,
,,,,4.486666667,4.386,space,1.624,0,39,39,31,1,32,image/32.jpg,0,R_1FEbkzkWgC4zflT,2,2024-04-14_15h11.29.262,face trait task,2021.2.3,MacIntel,30.3030303,120351,,,,,,,
,,,,1.04,2.018,space,0.325,0,40,40,42,1,43,image/43.jpg,0,R_1FEbkzkWgC4zflT,2,2024-04-14_15h11.29.262,face trait task,2021.2.3,MacIntel,30.3030303,120351,,,,,,,
,,,,3.993333333,1.752,space,0.549,0,41,41,5,1,6,image/6.jpg,0,R_1FEbkzkWgC4zflT,2,2024-04-14_15h11.29.262,face trait task,2021.2.3,MacIntel,30.3030303,120351,,,,,,,
,,,,3.4,3.219,space,0.369,0,42,42,12,1,13,image/13.jpg,0,R_1FEbkzkWgC4zflT,2,2024-04-14_15h11.29.262,face trait task,2021.2.3,MacIntel,30.3030303,120351,,,,,,,
,,,,6.426666667,3.902,space,0.465,0,43,43,33,1,34,image/34.jpg,0,R_1FEbkzkWgC4zflT,2,2024-04-14_15h11.29.262,face trait task,2021.2.3,MacIntel,30.3030303,120351,,,,,,,
,,,,4,2.519,space,1.034,0,44,44,25,1,26,image/26.jpg,0,R_1FEbkzkWgC4zflT,2,2024-04-14_15h11.29.262,face trait task,2021.2.3,MacIntel,30.3030303,120351,,,,,,,
,,,,5.313333333,2.452,space,0.444,0,45,45,10,1,11,image/11.jpg,0,R_1FEbkzkWgC4zflT,2,2024-04-14_15h11.29.262,face trait task,2021.2.3,MacIntel,30.3030303,120351,,,,,,,
,,,,3.373333333,2.152,space,0.567,0,46,46,15,1,16,image/16.jpg,0,R_1FEbkzkWgC4zflT,2,2024-04-14_15h11.29.262,face trait task,2021.2.3,MacIntel,30.3030303,120351,,,,,,,
,,,,3.506666667,20.086,space,0.394,0,47,47,45,1,46,image/46.jpg,0,R_1FEbkzkWgC4zflT,2,2024-04-14_15h11.29.262,face trait task,2021.2.3,MacIntel,30.3030303,120351,,,,,,,
,,,,3.413333333,2.268,space,0.219,0,48,48,18,1,19,image/19.jpg,0,R_1FEbkzkWgC4zflT,2,2024-04-14_15h11.29.262,face trait task,2021.2.3,MacIntel,30.3030303,120351,,,,,,,
,,,,3.353333333,4.903,space,2.152,0,49,49,26,1,27,image/27.jpg,0,R_1FEbkzkWgC4zflT,2,2024-04-14_15h11.29.262,face trait task,2021.2.3,MacIntel,30.3030303,120351,,,,,,,
,,,,1.366666667,1.818,space,0.385,0,50,50,30,1,31,image/31.jpg,0,R_1FEbkzkWgC4zflT,2,2024-04-14_15h11.29.262,face trait task,2021.2.3,MacIntel,30.3030303,120351,,,,,,,
,,,,3.533333333,1.834,space,0.255,0,51,51,44,1,45,image/45.jpg,0,R_1FEbkzkWgC4zflT,2,2024-04-14_15h11.29.262,face trait task,2021.2.3,MacIntel,30.3030303,120351,,,,,,,
,,,,1.48,2.136,space,0.316,0,52,52,43,1,44,image/44.jpg,0,R_1FEbkzkWgC4zflT,2,2024-04-14_15h11.29.262,face trait task,2021.2.3,MacIntel,30.3030303,120351,,,,,,,
,,,,,,,,,,,,,,,,R_1FEbkzkWgC4zflT,2,2024-04-14_15h11.29.262,face trait task,2021.2.3,MacIntel,30.3030303,120351,0,0,0,2,1,2,trustworthy.png
,,,,4.366666667,5.17,space,0.76,0,0,0,32,1,33,image/33.jpg,0,R_1FEbkzkWgC4zflT,2,2024-04-14_15h11.29.262,face trait task,2021.2.3,MacIntel,30.3030303,120351,,,,,,,
,,,,3.006666667,2.368,space,0.297,0,1,1,15,1,16,image/16.jpg,0,R_1FEbkzkWgC4zflT,2,2024-04-14_15h11.29.262,face trait task,2021.2.3,MacIntel,30.3030303,120351,,,,,,,
,,,,3.986666667,3.318,space,0.138,0,2,2,6,1,7,image/7.jpg,0,R_1FEbkzkWgC4zflT,2,2024-04-14_15h11.29.262,face trait task,2021.2.3,MacIntel,30.3030303,120351,,,,,,,
,,,,2.986666667,2.902,space,0.607,0,3,3,28,1,29,image/29.jpg,0,R_1FEbkzkWgC4zflT,2,2024-04-14_15h11.29.262,face trait task,2021.2.3,MacIntel,30.3030303,120351,,,,,,,
,,,,3.793333333,4.652,space,0.424,0,4,4,25,1,26,image/26.jpg,0,R_1FEbkzkWgC4zflT,2,2024-04-14_15h11.29.262,face trait task,2021.2.3,MacIntel,30.3030303,120351,,,,,,,
,,,,3.993333333,4.637,space,2.503,0,5,5,5,1,6,image/6.jpg,0,R_1FEbkzkWgC4zflT,2,2024-04-14_15h11.29.262,face trait task,2021.2.3,MacIntel,30.3030303,120351,,,,,,,
,,,,4.346666667,2.769,space,0.801,0,6,6,18,1,19,image/19.jpg,0,R_1FEbkzkWgC4zflT,2,2024-04-14_15h11.29.262,face trait task,2021.2.3,MacIntel,30.3030303,120351,,,,,,,
,,,,3.46,1.868,space,0.495,0,7,7,19,1,20,image/20.jpg,0,R_1FEbkzkWgC4zflT,2,2024-04-14_15h11.29.262,face trait task,2021.2.3,MacIntel,30.3030303,120351,,,,,,,
,,,,4.286666667,2.501,space,0.654,0,8,8,23,1,24,image/24.jpg,0,R_1FEbkzkWgC4zflT,2,2024-04-14_15h11.29.262,face trait task,2021.2.3,MacIntel,30.3030303,120351,,,,,,,
,,,,2.38,2.336,space,0.397,0,9,9,21,1,22,image/22.jpg,0,R_1FEbkzkWgC4zflT,2,2024-04-14_15h11.29.262,face trait task,2021.2.3,MacIntel,30.3030303,120351,,,,,,,
,,,,4.993333333,3.801,space,3.005,0,10,10,50,1,57,image/57.jpg,1,R_1FEbkzkWgC4zflT,2,2024-04-14_15h11.29.262,face trait task,2021.2.3,MacIntel,30.3030303,120351,,,,,,,
,,,,2.986666667,4.086,space,0.376,0,11,11,45,1,46,image/46.jpg,0,R_1FEbkzkWgC4zflT,2,2024-04-14_15h11.29.262,face trait task,2021.2.3,MacIntel,30.3030303,120351,,,,,,,
,,,,2.46,2.336,space,0.568,0,12,12,38,1,39,image/39.jpg,0,R_1FEbkzkWgC4zflT,2,2024-04-14_15h11.29.262,face trait task,2021.2.3,MacIntel,30.3030303,120351,,,,,,,
,,,,4.353333333,4.184,space,0.599,0,13,13,44,1,45,image/45.jpg,0,R_1FEbkzkWgC4zflT,2,2024-04-14_15h11.29.262,face trait task,2021.2.3,MacIntel,30.3030303,120351,,,,,,,
,,,,3.98,2.286,space,0.758,0,14,14,47,1,48,image/48.jpg,0,R_1FEbkzkWgC4zflT,2,2024-04-14_15h11.29.262,face trait task,2021.2.3,MacIntel,30.3030303,120351,,,,,,,
,,,,3.44,3.252,space,1.062,0,15,15,27,1,28,image/28.jpg,0,R_1FEbkzkWgC4zflT,2,2024-04-14_15h11.29.262,face trait task,2021.2.3,MacIntel,30.3030303,120351,,,,,,,
,,,,5,2.602,space,0.664,0,16,16,26,1,27,image/27.jpg,0,R_1FEbkzkWgC4zflT,2,2024-04-14_15h11.29.262,face trait task,2021.2.3,MacIntel,30.3030303,120351,,,,,,,
,,,,4.52,2.236,space,0.687,0,17,17,12,1,13,image/13.jpg,0,R_1FEbkzkWgC4zflT,2,2024-04-14_15h11.29.262,face trait task,2021.2.3,MacIntel,30.3030303,120351,,,,,,,
,,,,3.28,3.136,space,0.836,0,18,18,40,1,41,image/41.jpg,0,R_1FEbkzkWgC4zflT,2,2024-04-14_15h11.29.262,face trait task,2021.2.3,MacIntel,30.3030303,120351,,,,,,,
,,,,5.98,3.036,space,0.39,0,19,19,3,1,4,image/4.jpg,0,R_1FEbkzkWgC4zflT,2,2024-04-14_15h11.29.262,face trait task,2021.2.3,MacIntel,30.3030303,120351,,,,,,,
,,,,4.646666667,4.319,space,0.42,0,20,20,30,1,31,image/31.jpg,0,R_1FEbkzkWgC4zflT,2,2024-04-14_15h11.29.262,face trait task,2021.2.3,MacIntel,30.3030303,120351,,,,,,,
,,,,4.94,2.286,space,0.903,0,21,21,48,1,49,image/49.jpg,0,R_1FEbkzkWgC4zflT,2,2024-04-14_15h11.29.262,face trait task,2021.2.3,MacIntel,30.3030303,120351,,,,,,,
,,,,6.506666667,2.085,space,0.986,0,22,22,2,1,3,image/3.jpg,0,R_1FEbkzkWgC4zflT,2,2024-04-14_15h11.29.262,face trait task,2021.2.3,MacIntel,30.3030303,120351,,,,,,,
,,,,5.64,2.086,space,0.871,0,23,23,22,1,23,image/23.jpg,0,R_1FEbkzkWgC4zflT,2,2024-04-14_15h11.29.262,face trait task,2021.2.3,MacIntel,30.3030303,120351,,,,,,,
,,,,4.793333333,4.035,space,2.246,0,24,24,10,1,11,image/11.jpg,0,R_1FEbkzkWgC4zflT,2,2024-04-14_15h11.29.262,face trait task,2021.2.3,MacIntel,30.3030303,120351,,,,,,,
,,,,3.946666667,3.302,space,2.09,0,25,25,43,1,44,image/44.jpg,0,R_1FEbkzkWgC4zflT,2,2024-04-14_15h11.29.262,face trait task,2021.2.3,MacIntel,30.3030303,120351,,,,,,,
,,,,4.846666667,4.851,space,2.949,0,26,26,13,1,14,image/14.jpg,0,R_1FEbkzkWgC4zflT,2,2024-04-14_15h11.29.262,face trait task,2021.2.3,MacIntel,30.3030303,120351,,,,,,,
,,,,3.846666667,2.786,space,0.865,0,27,27,11,1,12,image/12.jpg,0,R_1FEbkzkWgC4zflT,2,2024-04-14_15h11.29.262,face trait task,2021.2.3,MacIntel,30.3030303,120351,,,,,,,
,,,,6.873333333,2.235,space,1.008,0,28,28,31,1,32,image/32.jpg,0,R_1FEbkzkWgC4zflT,2,2024-04-14_15h11.29.262,face trait task,2021.2.3,MacIntel,30.3030303,120351,,,,,,,
,,,,5.02,2.552,space,1.062,0,29,29,34,1,35,image/35.jpg,0,R_1FEbkzkWgC4zflT,2,2024-04-14_15h11.29.262,face trait task,2021.2.3,MacIntel,30.3030303,120351,,,,,,,
,,,,4.973333333,2.269,space,1.28,0,30,30,24,1,25,image/25.jpg,0,R_1FEbkzkWgC4zflT,2,2024-04-14_15h11.29.262,face trait task,2021.2.3,MacIntel,30.3030303,120351,,,,,,,
,,,,3.406666667,2.403,space,0.616,0,31,31,46,1,47,image/47.jpg,0,R_1FEbkzkWgC4zflT,2,2024-04-14_15h11.29.262,face trait task,2021.2.3,MacIntel,30.3030303,120351,,,,,,,
,,,,2.673333333,3.602,space,0.507,0,32,32,37,1,38,image/38.jpg,0,R_1FEbkzkWgC4zflT,2,2024-04-14_15h11.29.262,face trait task,2021.2.3,MacIntel,30.3030303,120351,,,,,,,
,,,,5.94,2.753,space,0.809,0,33,33,16,1,17,image/17.jpg,0,R_1FEbkzkWgC4zflT,2,2024-04-14_15h11.29.262,face trait task,2021.2.3,MacIntel,30.3030303,120351,,,,,,,
,,,,6.98,2.035,space,0.616,0,34,34,17,1,18,image/18.jpg,0,R_1FEbkzkWgC4zflT,2,2024-04-14_15h11.29.262,face trait task,2021.2.3,MacIntel,30.3030303,120351,,,,,,,
,,,,5.006666667,3.285,space,0.682,0,35,35,20,1,21,image/21.jpg,0,R_1FEbkzkWgC4zflT,2,2024-04-14_15h11.29.262,face trait task,2021.2.3,MacIntel,30.3030303,120351,,,,,,,
,,,,4.633333333,2.953,space,0.535,0,36,36,14,1,15,image/15.jpg,0,R_1FEbkzkWgC4zflT,2,2024-04-14_15h11.29.262,face trait task,2021.2.3,MacIntel,30.3030303,120351,,,,,,,
,,,,4.453333333,12.836,space,0.338,0,37,37,7,1,8,image/8.jpg,0,R_1FEbkzkWgC4zflT,2,2024-04-14_15h11.29.262,face trait task,2021.2.3,MacIntel,30.3030303,120351,,,,,,,
,,,,4.16,11.204,space,0.434,0,38,38,9,1,10,image/10.jpg,0,R_1FEbkzkWgC4zflT,2,2024-04-14_15h11.29.262,face trait task,2021.2.3,MacIntel,30.3030303,120351,,,,,,,
,,,,3.313333333,3.303,space,0.458,0,39,39,36,1,37,image/37.jpg,0,R_1FEbkzkWgC4zflT,2,2024-04-14_15h11.29.262,face trait task,2021.2.3,MacIntel,30.3030303,120351,,,,,,,
,,,,1.42,1.635,space,0.942,0,40,40,39,1,40,image/40.jpg,0,R_1FEbkzkWgC4zflT,2,2024-04-14_15h11.29.262,face trait task,2021.2.3,MacIntel,30.3030303,120351,,,,,,,
,,,,4.246666667,4.352,space,2.101,0,41,41,41,1,42,image/42.jpg,0,R_1FEbkzkWgC4zflT,2,2024-04-14_15h11.29.262,face trait task,2021.2.3,MacIntel,30.3030303,120351,,,,,,,
,,,,6.766666667,2.568,space,0.694,0,42,42,52,1,58,image/58.jpg,1,R_1FEbkzkWgC4zflT,2,2024-04-14_15h11.29.262,face trait task,2021.2.3,MacIntel,30.3030303,120351,,,,,,,
,,,,5.96,13.068,space,0.617,0,43,43,49,1,50,image/50.jpg,0,R_1FEbkzkWgC4zflT,2,2024-04-14_15h11.29.262,face trait task,2021.2.3,MacIntel,30.3030303,120351,,,,,,,
,,,,3.473333333,4.819,space,1.15,0,44,44,0,1,1,image/1.jpg,0,R_1FEbkzkWgC4zflT,2,2024-04-14_15h11.29.262,face trait task,2021.2.3,MacIntel,30.3030303,120351,,,,,,,
,,,,6.96,3.202,space,0.711,0,45,45,33,1,34,image/34.jpg,0,R_1FEbkzkWgC4zflT,2,2024-04-14_15h11.29.262,face trait task,2021.2.3,MacIntel,30.3030303,120351,,,,,,,
,,,,2.96,26.102,space,0.283,0,46,46,42,1,43,image/43.jpg,0,R_1FEbkzkWgC4zflT,2,2024-04-14_15h11.29.262,face trait task,2021.2.3,MacIntel,30.3030303,120351,,,,,,,
,,,,3.44,6.202,space,0.409,0,47,47,1,1,2,image/2.jpg,0,R_1FEbkzkWgC4zflT,2,2024-04-14_15h11.29.262,face trait task,2021.2.3,MacIntel,30.3030303,120351,,,,,,,
,,,,4.993333333,2.136,space,0.545,0,48,48,35,1,36,image/36.jpg,0,R_1FEbkzkWgC4zflT,2,2024-04-14_15h11.29.262,face trait task,2021.2.3,MacIntel,30.3030303,120351,,,,,,,
,,,,1.7,2.821,space,0.315,0,49,49,8,1,9,image/9.jpg,0,R_1FEbkzkWgC4zflT,2,2024-04-14_15h11.29.262,face trait task,2021.2.3,MacIntel,30.3030303,120351,,,,,,,
,,,,5.013333333,4.468,space,0.516,0,50,50,51,1,57,image/57.jpg,1,R_1FEbkzkWgC4zflT,2,2024-04-14_15h11.29.262,face trait task,2021.2.3,MacIntel,30.3030303,120351,,,,,,,
,,,,4.48,6.669,space,0.591,0,51,51,4,1,5,image/5.jpg,0,R_1FEbkzkWgC4zflT,2,2024-04-14_15h11.29.262,face trait task,2021.2.3,MacIntel,30.3030303,120351,,,,,,,
,,,,4.706666667,5.937,space,2.406,0,52,52,29,1,30,image/30.jpg,0,R_1FEbkzkWgC4zflT,2,2024-04-14_15h11.29.262,face trait task,2021.2.3,MacIntel,30.3030303,120351,,,,,,,
,,,,,,,,,,,,,,,,R_1FEbkzkWgC4zflT,2,2024-04-14_15h11.29.262,face trait task,2021.2.3,MacIntel,30.3030303,120351,0,1,1,3,1,3,friendly.png
,,,,4.78,3.075,space,0.628,0,0,0,12,1,13,image/13.jpg,0,R_1FEbkzkWgC4zflT,2,2024-04-14_15h11.29.262,face trait task,2021.2.3,MacIntel,30.3030303,120351,,,,,,,
,,,,5.633333333,2.902,space,0.529,0,1,1,6,1,7,image/7.jpg,0,R_1FEbkzkWgC4zflT,2,2024-04-14_15h11.29.262,face trait task,2021.2.3,MacIntel,30.3030303,120351,,,,,,,
,,,,5,2.785,space,1.122,0,2,2,43,1,44,image/44.jpg,0,R_1FEbkzkWgC4zflT,2,2024-04-14_15h11.29.262,face trait task,2021.2.3,MacIntel,30.3030303,120351,,,,,,,
,,,,2.98,2.137,space,0.735,0,3,3,34,1,35,image/35.jpg,0,R_1FEbkzkWgC4zflT,2,2024-04-14_15h11.29.262,face trait task,2021.2.3,MacIntel,30.3030303,120351,,,,,,,
,,,,6.953333333,3.235,space,0.369,0,4,4,10,1,11,image/11.jpg,0,R_1FEbkzkWgC4zflT,2,2024-04-14_15h11.29.262,face trait task,2021.2.3,MacIntel,30.3030303,120351,,,,,,,
,,,,6.86,1.919,space,1.352,0,5,5,46,1,47,image/47.jpg,0,R_1FEbkzkWgC4zflT,2,2024-04-14_15h11.29.262,face trait task,2021.2.3,MacIntel,30.3030303,120351,,,,,,,
,,,,5.973333333,2.552,space,0.475,0,6,6,7,1,8,image/8.jpg,0,R_1FEbkzkWgC4zflT,2,2024-04-14_15h11.29.262,face trait task,2021.2.3,MacIntel,30.3030303,120351,,,,,,,
,,,,4.466666667,3.469,space,0.382,0,7,7,47,1,48,image/48.jpg,0,R_1FEbkzkWgC4zflT,2,2024-04-14_15h11.29.262,face trait task,2021.2.3,MacIntel,30.3030303,120351,,,,,,,
,,,,5.493333333,6.585,space,0.295,0,8,8,32,1,33,image/33.jpg,0,R_1FEbkzkWgC4zflT,2,2024-04-14_15h11.29.262,face trait task,2021.2.3,MacIntel,30.3030303,120351,,,,,,,
,,,,5,6.869,space,0.537,0,9,9,15,1,16,image/16.jpg,0,R_1FEbkzkWgC4zflT,2,2024-04-14_15h11.29.262,face trait task,2021.2.3,MacIntel,30.3030303,120351,,,,,,,
,,,,5.413333333,4.437,space,2.198,0,10,10,9,1,10,image/10.jpg,0,R_1FEbkzkWgC4zflT,2,2024-04-14_15h11.29.262,face trait task,2021.2.3,MacIntel,30.3030303,120351,,,,,,,
,,,,5.98,4.936,space,2.9,0,11,11,27,1,28,image/28.jpg,0,R_1FEbkzkWgC4zflT,2,2024-04-14_15h11.29.262,face trait task,2021.2.3,MacIntel,30.3030303,120351,,,,,,,
,,,,6.993333333,2.303,space,1.569,0,12,12,29,1,30,image/30.jpg,0,R_1FEbkzkWgC4zflT,2,2024-04-14_15h11.29.262,face trait task,2021.2.3,MacIntel,30.3030303,120351,,,,,,,
,,,,5,3.686,space,1.188,0,13,13,23,1,24,image/24.jpg,0,R_1FEbkzkWgC4zflT,2,2024-04-14_15h11.29.262,face trait task,2021.2.3,MacIntel,30.3030303,120351,,,,,,,
,,,,4.993333333,1.902,space,0.511,0,14,14,52,1,58,image/58.jpg,1,R_1FEbkzkWgC4zflT,2,2024-04-14_15h11.29.262,face trait task,2021.2.3,MacIntel,30.3030303,120351,,,,,,,
,,,,6.993333333,2.218,space,0.359,0,15,15,21,1,22,image/22.jpg,0,R_1FEbkzkWgC4zflT,2,2024-04-14_15h11.29.262,face trait task,2021.2.3,MacIntel,30.3030303,120351,,,,,,,
,,,,6.993333333,1.486,space,0.695,0,16,16,33,1,34,image/34.jpg,0,R_1FEbkzkWgC4zflT,2,2024-04-14_15h11.29.262,face trait task,2021.2.3,MacIntel,30.3030303,120351,,,,,,,
,,,,5.526666667,2.218,space,0.605,0,17,17,0,1,1,image/1.jpg,0,R_1FEbkzkWgC4zflT,2,2024-04-14_15h11.29.262,face trait task,2021.2.3,MacIntel,30.3030303,120351,,,,,,,
,,,,6.98,2.485,space,0.441,0,18,18,18,1,19,image/19.jpg,0,R_1FEbkzkWgC4zflT,2,2024-04-14_15h11.29.262,face trait task,2021.2.3,MacIntel,30.3030303,120351,,,,,,,
,,,,5.46,2.903,space,1.208,0,19,19,35,1,36,image/36.jpg,0,R_1FEbkzkWgC4zflT,2,2024-04-14_15h11.29.262,face trait task,2021.2.3,MacIntel,30.3030303,120351,,,,,,,
,,,,6.546666667,3.118,space,0.481,0,20,20,4,1,5,image/5.jpg,0,R_1FEbkzkWgC4zflT,2,2024-04-14_15h11.29.262,face trait task,2021.2.3,MacIntel,30.3030303,120351,,,,,,,
,,,,5.446666667,3.285,space,0.365,0,21,21,1,1,2,image/2.jpg,0,R_1FEbkzkWgC4zflT,2,2024-04-14_15h11.29.262,face trait task,2021.2.3,MacIntel,30.3030303,120351,,,,,,,
,,,,6.986666667,2.942,space,0.251,0,22,22,20,1,21,image/21.jpg,0,R_1FEbkzkWgC4zflT,2,2024-04-14_15h11.29.262,face trait task,2021.2.3,MacIntel,30.3030303,120351,,,,,,,
,,,,6.986666667,2.352,space,0.888,0,23,23,45,1,46,image/46.jpg,0,R_1FEbkzkWgC4zflT,2,2024-04-14_15h11.29.262,face trait task,2021.2.3,MacIntel,30.3030303,120351,,,,,,,
,,,,5.473333333,2.419,space,0.551,0,24,24,24,1,25,image/25.jpg,0,R_1FEbkzkWgC4zflT,2,2024-04-14_15h11.29.262,face trait task,2021.2.3,MacIntel,30.3030303,120351,,,,,,,
,,,,3.966666667,3.002,space,0.625,0,25,25,22,1,23,image/23.jpg,0,R_1FEbkzkWgC4zflT,2,2024-04-14_15h11.29.262,face trait task,2021.2.3,MacIntel,30.3030303,120351,,,,,,,
,,,,6.546666667,3.986,space,0.504,0,26,26,14,1,15,image/15.jpg,0,R_1FEbkzkWgC4zflT,2,2024-04-14_15h11.29.262,face trait task,2021.2.3,MacIntel,30.3030303,120351,,,,,,,
,,,,6.966666667,3.051,space,0.366,0,27,27,44,1,45,image/45.jpg,0,R_1FEbkzkWgC4zflT,2,2024-04-14_15h11.29.262,face trait task,2021.2.3,MacIntel,30.3030303,120351,,,,,,,
,,,,4.96,3.653,space,0.449,0,28,28,42,1,43,image/43.jpg,0,R_1FEbkzkWgC4zflT,2,2024-04-14_15h11.29.262,face trait task,2021.2.3,MacIntel,30.3030303,120351,,,,,,,
,,,,4.993333333,3.051,space,0.52,0,29,29,50,1,57,image/57.jpg,1,R_1FEbkzkWgC4zflT,2,2024-04-14_15h11.29.262,face trait task,2021.2.3,MacIntel,30.3030303,120351,,,,,,,
,,,,6.993333333,2.418,space,0.329,0,30,30,17,1,18,image/18.jpg,0,R_1FEbkzkWgC4zflT,2,2024-04-14_15h11.29.262,face trait task,2021.2.3,MacIntel,30.3030303,120351,,,,,,,
,,,,5.886666667,3.186,space,0.465,0,31,31,5,1,6,image/6.jpg,0,R_1FEbkzkWgC4zflT,2,2024-04-14_15h11.29.262,face trait task,2021.2.3,MacIntel,30.3030303,120351,,,,,,,
,,,,5.993333333,3.302,space,0.651,0,32,32,3,1,4,image/4.jpg,0,R_1FEbkzkWgC4zflT,2,2024-04-14_15h11.29.262,face trait task,2021.2.3,MacIntel,30.3030303,120351,,,,,,,
,,,,3.48,6.152,space,4.267,0,33,33,13,1,14,image/14.jpg,0,R_1FEbkzkWgC4zflT,2,2024-04-14_15h11.29.262,face trait task,2021.2.3,MacIntel,30.3030303,120351,,,,,,,
,,,,5.513333333,4.518,space,0.478,0,34,34,36,1,37,image/37.jpg,0,R_1FEbkzkWgC4zflT,2,2024-04-14_15h11.29.262,face trait task,2021.2.3,MacIntel,30.3030303,120351,,,,,,,
,,,,6.993333333,2.718,space,0.454,0,35,35,31,1,32,image/32.jpg,0,R_1FEbkzkWgC4zflT,2,2024-04-14_15h11.29.262,face trait task,2021.2.3,MacIntel,30.3030303,120351,,,,,,,
,,,,5.98,3.402,space,0.238,0,36,36,41,1,42,image/42.jpg,0,R_1FEbkzkWgC4zflT,2,2024-04-14_15h11.29.262,face trait task,2021.2.3,MacIntel,30.3030303,120351,,,,,,,
,,,,4.98,3.553,space,0.517,0,37,37,38,1,39,image/39.jpg,0,R_1FEbkzkWgC4zflT,2,2024-04-14_15h11.29.262,face trait task,2021.2.3,MacIntel,30.3030303,120351,,,,,,,
,,,,6.993333333,3.518,space,0.622,0,38,38,30,1,31,image/31.jpg,0,R_1FEbkzkWgC4zflT,2,2024-04-14_15h11.29.262,face trait task,2021.2.3,MacIntel,30.3030303,120351,,,,,,,
,,,,2.413333333,2.519,space,0.471,0,39,39,39,1,40,image/40.jpg,0,R_1FEbkzkWgC4zflT,2,2024-04-14_15h11.29.262,face trait task,2021.2.3,MacIntel,30.3030303,120351,,,,,,,
,,,,5.953333333,3.069,space,0.762,0,40,40,2,1,3,image/3.jpg,0,R_1FEbkzkWgC4zflT,2,2024-04-14_15h11.29.262,face trait task,2021.2.3,MacIntel,30.3030303,120351,,,,,,,
,,,,6.98,2.018,space,0.399,0,41,41,49,1,50,image/50.jpg,0,R_1FEbkzkWgC4zflT,2,2024-04-14_15h11.29.262,face trait task,2021.2.3,MacIntel,30.3030303,120351,,,,,,,
,,,,5.773333333,4.552,space,0.716,0,42,42,11,1,12,image/12.jpg,0,R_1FEbkzkWgC4zflT,2,2024-04-14_15h11.29.262,face trait task,2021.2.3,MacIntel,30.3030303,120351,,,,,,,
,,,,6.553333333,2.854,space,0.474,0,43,43,25,1,26,image/26.jpg,0,R_1FEbkzkWgC4zflT,2,2024-04-14_15h11.29.262,face trait task,2021.2.3,MacIntel,30.3030303,120351,,,,,,,
,,,,4.526666667,4.419,space,0.504,0,44,44,28,1,29,image/29.jpg,0,R_1FEbkzkWgC4zflT,2,2024-04-14_15h11.29.262,face trait task,2021.2.3,MacIntel,30.3030303,120351,,,,,,,
,,,,2.52,3.034,space,0.682,0,45,45,8,1,9,image/9.jpg,0,R_1FEbkzkWgC4zflT,2,2024-04-14_15h11.29.262,face trait task,2021.2.3,MacIntel,30.3030303,120351,,,,,,,
,,,,6.953333333,3.619,space,0.512,0,46,46,16,1,17,image/17.jpg,0,R_1FEbkzkWgC4zflT,2,2024-04-14_15h11.29.262,face trait task,2021.2.3,MacIntel,30.3030303,120351,,,,,,,
,,,,6.44,3.137,space,1.882,0,47,47,19,1,20,image/20.jpg,0,R_1FEbkzkWgC4zflT,2,2024-04-14_15h11.29.262,face trait task,2021.2.3,MacIntel,30.3030303,120351,,,,,,,
,,,,5.006666667,2.035,space,0.599,0,48,48,51,1,57,image/57.jpg,1,R_1FEbkzkWgC4zflT,2,2024-04-14_15h11.29.262,face trait task,2021.2.3,MacIntel,30.3030303,120351,,,,,,,
,,,,6.32,3.319,space,0.676,0,49,49,26,1,27,image/27.jpg,0,R_1FEbkzkWgC4zflT,2,2024-04-14_15h11.29.262,face trait task,2021.2.3,MacIntel,30.3030303,120351,,,,,,,
,,,,5.006666667,5.187,space,2.693,0,50,50,40,1,41,image/41.jpg,0,R_1FEbkzkWgC4zflT,2,2024-04-14_15h11.29.262,face trait task,2021.2.3,MacIntel,30.3030303,120351,,,,,,,
,,,,5.013333333,2.319,space,0.514,0,51,51,48,1,49,image/49.jpg,0,R_1FEbkzkWgC4zflT,2,2024-04-14_15h11.29.262,face trait task,2021.2.3,MacIntel,30.3030303,120351,,,,,,,
,,,,3.54,3.185,space,0.855,0,52,52,37,1,38,image/38.jpg,0,R_1FEbkzkWgC4zflT,2,2024-04-14_15h11.29.262,face trait task,2021.2.3,MacIntel,30.3030303,120351,,,,,,,
,,,,,,,,,,,,,,,,R_1FEbkzkWgC4zflT,2,2024-04-14_15h11.29.262,face trait task,2021.2.3,MacIntel,30.3030303,120351,0,2,2,1,1,1,competent.png
,,,,3.12,5.819,space,0.367,0,0,0,33,1,34,image/34.jpg,0,R_1FEbkzkWgC4zflT,2,2024-04-14_15h11.29.262,face trait task,2021.2.3,MacIntel,30.3030303,120351,,,,,,,
,,,,5.426666667,3.652,space,0.384,0,1,1,20,1,21,image/21.jpg,0,R_1FEbkzkWgC4zflT,2,2024-04-14_15h11.29.262,face trait task,2021.2.3,MacIntel,30.3030303,120351,,,,,,,
,,,,2.026666667,3.652,space,0.334,0,2,2,2,1,3,image/3.jpg,0,R_1FEbkzkWgC4zflT,2,2024-04-14_15h11.29.262,face trait task,2021.2.3,MacIntel,30.3030303,120351,,,,,,,
,,,,5.006666667,2.335,space,0.557,0,3,3,51,1,57,image/57.jpg,1,R_1FEbkzkWgC4zflT,2,2024-04-14_15h11.29.262,face trait task,2021.2.3,MacIntel,30.3030303,120351,,,,,,,
,,,,2.46,4.504,space,0.422,0,4,4,14,1,15,image/15.jpg,0,R_1FEbkzkWgC4zflT,2,2024-04-14_15h11.29.262,face trait task,2021.2.3,MacIntel,30.3030303,120351,,,,,,,
,,,,1.726666667,3.003,space,0.677,0,5,5,35,1,36,image/36.jpg,0,R_1FEbkzkWgC4zflT,2,2024-04-14_15h11.29.262,face trait task,2021.2.3,MacIntel,30.3030303,120351,,,,,,,
,,,,1.446666667,2.285,space,0.501,0,6,6,12,1,13,image/13.jpg,0,R_1FEbkzkWgC4zflT,2,2024-04-14_15h11.29.262,face trait task,2021.2.3,MacIntel,30.3030303,120351,,,,,,,
,,,,4.493333333,3.151,space,0.54,0,7,7,16,1,17,image/17.jpg,0,R_1FEbkzkWgC4zflT,2,2024-04-14_15h11.29.262,face trait task,2021.2.3,MacIntel,30.3030303,120351,,,,,,,
,,,,2.96,3.318,space,0.418,0,8,8,37,1,38,image/38.jpg,0,R_1FEbkzkWgC4zflT,2,2024-04-14_15h11.29.262,face trait task,2021.2.3,MacIntel,30.3030303,120351,,,,,,,
,,,,6.213333333,2.919,space,1.083,0,9,9,29,1,30,image/30.jpg,0,R_1FEbkzkWgC4zflT,2,2024-04-14_15h11.29.262,face trait task,2021.2.3,MacIntel,30.3030303,120351,,,,,,,
,,,,1.706666667,2.918,space,0.345,0,10,10,22,1,23,image/23.jpg,0,R_1FEbkzkWgC4zflT,2,2024-04-14_15h11.29.262,face trait task,2021.2.3,MacIntel,30.3030303,120351,,,,,,,
,,,,3.406666667,2.952,space,0.795,0,11,11,7,1,8,image/8.jpg,0,R_1FEbkzkWgC4zflT,2,2024-04-14_15h11.29.262,face trait task,2021.2.3,MacIntel,30.3030303,120351,,,,,,,
,,,,3.533333333,4.32,space,1.053,0,12,12,48,1,49,image/49.jpg,0,R_1FEbkzkWgC4zflT,2,2024-04-14_15h11.29.262,face trait task,2021.2.3,MacIntel,30.3030303,120351,,,,,,,
,,,,5.433333333,2.053,space,1.262,0,13,13,46,1,47,image/47.jpg,0,R_1FEbkzkWgC4zflT,2,2024-04-14_15h11.29.262,face trait task,2021.2.3,MacIntel,30.3030303,120351,,,,,,,
,,,,2.886666667,2.302,space,0.586,0,14,14,5,1,6,image/6.jpg,0,R_1FEbkzkWgC4zflT,2,2024-04-14_15h11.29.262,face trait task,2021.2.3,MacIntel,30.3030303,120351,,,,,,,
,,,,5.466666667,5.035,space,0.482,0,15,15,1,1,2,image/2.jpg,0,R_1FEbkzkWgC4zflT,2,2024-04-14_15h11.29.262,face trait task,2021.2.3,MacIntel,30.3030303,120351,,,,,,,
,,,,4.993333333,2.185,space,0.708,0,16,16,52,1,58,image/58.jpg,1,R_1FEbkzkWgC4zflT,2,2024-04-14_15h11.29.262,face trait task,2021.2.3,MacIntel,30.3030303,120351,,,,,,,
,,,,1.893333333,3.785,space,0.42,0,17,17,26,1,27,image/27.jpg,0,R_1FEbkzkWgC4zflT,2,2024-04-14_15h11.29.262,face trait task,2021.2.3,MacIntel,30.3030303,120351,,,,,,,
,,,,6.613333333,2.219,space,0.818,0,18,18,25,1,26,image/26.jpg,0,R_1FEbkzkWgC4zflT,2,2024-04-14_15h11.29.262,face trait task,2021.2.3,MacIntel,30.3030303,120351,,,,,,,
,,,,4.52,2.584,space,0.946,0,19,19,11,1,12,image/12.jpg,0,R_1FEbkzkWgC4zflT,2,2024-04-14_15h11.29.262,face trait task,2021.2.3,MacIntel,30.3030303,120351,,,,,,,
,,,,6.386666667,2.703,space,0.741,0,20,20,0,1,1,image/1.jpg,0,R_1FEbkzkWgC4zflT,2,2024-04-14_15h11.29.262,face trait task,2021.2.3,MacIntel,30.3030303,120351,,,,,,,
,,,,2.146666667,3.618,space,0.804,0,21,21,32,1,33,image/33.jpg,0,R_1FEbkzkWgC4zflT,2,2024-04-14_15h11.29.262,face trait task,2021.2.3,MacIntel,30.3030303,120351,,,,,,,
,,,,3.493333333,4.718,space,0.836,0,22,22,28,1,29,image/29.jpg,0,R_1FEbkzkWgC4zflT,2,2024-04-14_15h11.29.262,face trait task,2021.2.3,MacIntel,30.3030303,120351,,,,,,,
,,,,4.973333333,4.651,space,1.273,0,23,23,40,1,41,image/41.jpg,0,R_1FEbkzkWgC4zflT,2,2024-04-14_15h11.29.262,face trait task,2021.2.3,MacIntel,30.3030303,120351,,,,,,,
,,,,5.986666667,2.151,space,1.455,0,24,24,18,1,19,image/19.jpg,0,R_1FEbkzkWgC4zflT,2,2024-04-14_15h11.29.262,face trait task,2021.2.3,MacIntel,30.3030303,120351,,,,,,,
,,,,6.58,3.152,space,1.092,0,25,25,27,1,28,image/28.jpg,0,R_1FEbkzkWgC4zflT,2,2024-04-14_15h11.29.262,face trait task,2021.2.3,MacIntel,30.3030303,120351,,,,,,,
,,,,2.686666667,3.185,space,0.958,0,26,26,13,1,14,image/14.jpg,0,R_1FEbkzkWgC4zflT,2,2024-04-14_15h11.29.262,face trait task,2021.2.3,MacIntel,30.3030303,120351,,,,,,,
,,,,1.626666667,4.287,space,0.728,0,27,27,49,1,50,image/50.jpg,0,R_1FEbkzkWgC4zflT,2,2024-04-14_15h11.29.262,face trait task,2021.2.3,MacIntel,30.3030303,120351,,,,,,,
,,,,4.986666667,3.669,space,0.984,0,28,28,34,1,35,image/35.jpg,0,R_1FEbkzkWgC4zflT,2,2024-04-14_15h11.29.262,face trait task,2021.2.3,MacIntel,30.3030303,120351,,,,,,,
,,,,5,1.899,space,0.682,0,29,29,50,1,57,image/57.jpg,1,R_1FEbkzkWgC4zflT,2,2024-04-14_15h11.29.262,face trait task,2021.2.3,MacIntel,30.3030303,120351,,,,,,,
,,,,6.733333333,2.953,space,0.861,0,30,30,45,1,46,image/46.jpg,0,R_1FEbkzkWgC4zflT,2,2024-04-14_15h11.29.262,face trait task,2021.2.3,MacIntel,30.3030303,120351,,,,,,,
,,,,4.96,5.036,space,3.065,0,31,31,38,1,39,image/39.jpg,0,R_1FEbkzkWgC4zflT,2,2024-04-14_15h11.29.262,face trait task,2021.2.3,MacIntel,30.3030303,120351,,,,,,,
,,,,1.98,3.668,space,0.962,0,32,32,6,1,7,image/7.jpg,0,R_1FEbkzkWgC4zflT,2,2024-04-14_15h11.29.262,face trait task,2021.2.3,MacIntel,30.3030303,120351,,,,,,,
,,,,4.44,2.451,space,1.012,0,33,33,4,1,5,image/5.jpg,0,R_1FEbkzkWgC4zflT,2,2024-04-14_15h11.29.262,face trait task,2021.2.3,MacIntel,30.3030303,120351,,,,,,,
,,,,5.993333333,2.185,space,1.121,0,34,34,21,1,22,image/22.jpg,0,R_1FEbkzkWgC4zflT,2,2024-04-14_15h11.29.262,face trait task,2021.2.3,MacIntel,30.3030303,120351,,,,,,,
,,,,4.946666667,2.319,space,1.183,0,35,35,47,1,48,image/48.jpg,0,R_1FEbkzkWgC4zflT,2,2024-04-14_15h11.29.262,face trait task,2021.2.3,MacIntel,30.3030303,120351,,,,,,,
,,,,6.24,2.753,space,1.257,0,36,36,9,1,10,image/10.jpg,0,R_1FEbkzkWgC4zflT,2,2024-04-14_15h11.29.262,face trait task,2021.2.3,MacIntel,30.3030303,120351,,,,,,,
,,,,3.993333333,3.118,space,0.778,0,37,37,36,1,37,image/37.jpg,0,R_1FEbkzkWgC4zflT,2,2024-04-14_15h11.29.262,face trait task,2021.2.3,MacIntel,30.3030303,120351,,,,,,,
,,,,3.393333333,11.852,space,0.786,0,38,38,44,1,45,image/45.jpg,0,R_1FEbkzkWgC4zflT,2,2024-04-14_15h11.29.262,face trait task,2021.2.3,MacIntel,30.3030303,120351,,,,,,,
,,,,4.986666667,3.519,space,1.05,0,39,39,30,1,31,image/31.jpg,0,R_1FEbkzkWgC4zflT,2,2024-04-14_15h11.29.262,face trait task,2021.2.3,MacIntel,30.3030303,120351,,,,,,,
,,,,5.613333333,3.752,space,0.668,0,40,40,43,1,44,image/44.jpg,0,R_1FEbkzkWgC4zflT,2,2024-04-14_15h11.29.262,face trait task,2021.2.3,MacIntel,30.3030303,120351,,,,,,,
,,,,1.026666667,2.386,space,0.549,0,41,41,3,1,4,image/4.jpg,0,R_1FEbkzkWgC4zflT,2,2024-04-14_15h11.29.262,face trait task,2021.2.3,MacIntel,30.3030303,120351,,,,,,,
,,,,2.58,3.937,space,0.916,0,42,42,39,1,40,image/40.jpg,0,R_1FEbkzkWgC4zflT,2,2024-04-14_15h11.29.262,face trait task,2021.2.3,MacIntel,30.3030303,120351,,,,,,,
,,,,2.64,2.636,space,0.702,0,43,43,31,1,32,image/32.jpg,0,R_1FEbkzkWgC4zflT,2,2024-04-14_15h11.29.262,face trait task,2021.2.3,MacIntel,30.3030303,120351,,,,,,,
,,,,2.206666667,3.903,space,0.578,0,44,44,19,1,20,image/20.jpg,0,R_1FEbkzkWgC4zflT,2,2024-04-14_15h11.29.262,face trait task,2021.2.3,MacIntel,30.3030303,120351,,,,,,,
,,,,1.52,2.169,space,0.947,0,45,45,24,1,25,image/25.jpg,0,R_1FEbkzkWgC4zflT,2,2024-04-14_15h11.29.262,face trait task,2021.2.3,MacIntel,30.3030303,120351,,,,,,,
,,,,1.4,1.936,space,0.666,0,46,46,23,1,24,image/24.jpg,0,R_1FEbkzkWgC4zflT,2,2024-04-14_15h11.29.262,face trait task,2021.2.3,MacIntel,30.3030303,120351,,,,,,,
,,,,4,3.337,space,0.662,0,47,47,42,1,43,image/43.jpg,0,R_1FEbkzkWgC4zflT,2,2024-04-14_15h11.29.262,face trait task,2021.2.3,MacIntel,30.3030303,120351,,,,,,,
,,,,5.926666667,3.385,space,0.725,0,48,48,41,1,42,image/42.jpg,0,R_1FEbkzkWgC4zflT,2,2024-04-14_15h11.29.262,face trait task,2021.2.3,MacIntel,30.3030303,120351,,,,,,,
,,,,4.013333333,3.318,space,0.725,0,49,49,8,1,9,image/9.jpg,0,R_1FEbkzkWgC4zflT,2,2024-04-14_15h11.29.262,face trait task,2021.2.3,MacIntel,30.3030303,120351,,,,,,,
,,,,1.82,2.885,space,0.732,0,50,50,15,1,16,image/16.jpg,0,R_1FEbkzkWgC4zflT,2,2024-04-14_15h11.29.262,face trait task,2021.2.3,MacIntel,30.3030303,120351,,,,,,,
,,,,1.086666667,2.952,space,0.716,0,51,51,10,1,11,image/11.jpg,0,R_1FEbkzkWgC4zflT,2,2024-04-14_15h11.29.262,face trait task,2021.2.3,MacIntel,30.3030303,120351,,,,,,,
,,,,5,2.485,space,1.141,0,52,52,17,1,18,image/18.jpg,0,R_1FEbkzkWgC4zflT,2,2024-04-14_15h11.29.262,face trait task,2021.2.3,MacIntel,30.3030303,120351,,,,,,,
,,,,,,,,,,,,,,,,R_1FEbkzkWgC4zflT,2,2024-04-14_15h11.29.262,face trait task,2021.2.3,MacIntel,30.3030303,120351,0,3,3,0,1,0,critical.png
