choose_trial,key_resp.keys,key_resp.rt,key_resp_4.keys,key_resp_4.rt,session_trait,slider_face_judge.response,slider_face_judge.rt,key_resp_3.keys,key_resp_3.rt,face_loop.thisRepN,face_loop.thisTrialN,face_loop.thisN,face_loop.thisIndex,face_loop.ran,face_serial,image_name,isCheck,answer,check_question,participant,session,date,expName,psychopyVersion,OS,frameRate,SONAid,session.thisRepN,session.thisTrialN,session.thisN,session.thisIndex,session.ran,session_serial,slider_judge_img
"[0,1,2,3,4,5,6,7,8,9,10,11,12,13,14,15,16,17,18,19,20,21,22,23,24,25,26,27,28,29,30,31,32,33,34,35,36,37,38,39,40,41,42,43,44,45,46,47,48,49,51,52,58]",space,1.2994,space,5.2333,competent,1.977239583,2.0624,space,0.2891,0,0,0,33,1,34,image/34.jpg,0,0,,R_1FQhiEgg2BqpONz,2,2024-04-16_16h21.36.150,face trait task,2021.2.3,MacIntel,30.00120005,120316,,,,,,,
,,,,,,6.037135417,1.8527,space,0.4538,0,1,1,35,1,36,image/36.jpg,0,0,,R_1FQhiEgg2BqpONz,2,2024-04-16_16h21.36.150,face trait task,2021.2.3,MacIntel,30.00120005,120316,,,,,,,
,,,,,,4.642369792,1.7334,space,0.4576,0,2,2,6,1,7,image/7.jpg,0,0,,R_1FQhiEgg2BqpONz,2,2024-04-16_16h21.36.150,face trait task,2021.2.3,MacIntel,30.00120005,120316,,,,,,,
,,,,,,2.965859375,2.8003,space,0.3565,0,3,3,36,1,37,image/37.jpg,0,0,,R_1FQhiEgg2BqpONz,2,2024-04-16_16h21.36.150,face trait task,2021.2.3,MacIntel,30.00120005,120316,,,,,,,
,,,,,,1.696536458,1.5381,space,0.2931,0,4,4,16,1,17,image/17.jpg,0,0,,R_1FQhiEgg2BqpONz,2,2024-04-16_16h21.36.150,face trait task,2021.2.3,MacIntel,30.00120005,120316,,,,,,,
,,,,,,2.969010417,1.6998,space,0.3431,0,5,5,31,1,32,image/32.jpg,0,0,,R_1FQhiEgg2BqpONz,2,2024-04-16_16h21.36.150,face trait task,2021.2.3,MacIntel,30.00120005,120316,,,,,,,
,,,,,,5.577057292,2.4679,space,0.332,0,6,6,20,1,21,image/21.jpg,0,0,,R_1FQhiEgg2BqpONz,2,2024-04-16_16h21.36.150,face trait task,2021.2.3,MacIntel,30.00120005,120316,,,,,,,
,,,,,,4.538619792,1.6507,space,0.2908,0,7,7,1,1,2,image/2.jpg,0,0,,R_1FQhiEgg2BqpONz,2,2024-04-16_16h21.36.150,face trait task,2021.2.3,MacIntel,30.00120005,120316,,,,,,,
,,,,,,6.445911458,3.104,space,1.5019,0,8,8,11,1,12,image/12.jpg,0,0,,R_1FQhiEgg2BqpONz,2,2024-04-16_16h21.36.150,face trait task,2021.2.3,MacIntel,30.00120005,120316,,,,,,,
,,,,,,2.968880208,2.3681,space,0.7686,0,9,9,18,1,19,image/19.jpg,0,0,,R_1FQhiEgg2BqpONz,2,2024-04-16_16h21.36.150,face trait task,2021.2.3,MacIntel,30.00120005,120316,,,,,,,
,,,,,,2.965807292,1.8038,space,0.4249,0,10,10,26,1,27,image/27.jpg,0,0,,R_1FQhiEgg2BqpONz,2,2024-04-16_16h21.36.150,face trait task,2021.2.3,MacIntel,30.00120005,120316,,,,,,,
,,,,,,4.006666667,2.6692,space,0.3047,0,11,11,27,1,28,image/28.jpg,0,0,,R_1FQhiEgg2BqpONz,2,2024-04-16_16h21.36.150,face trait task,2021.2.3,MacIntel,30.00120005,120316,,,,,,,
,,,,,,5.624973958,2.2351,space,0.3892,0,12,12,45,1,46,image/46.jpg,0,0,,R_1FQhiEgg2BqpONz,2,2024-04-16_16h21.36.150,face trait task,2021.2.3,MacIntel,30.00120005,120316,,,,,,,
,,,,,,4.580625,2.2045,space,0.3816,0,13,13,23,1,24,image/24.jpg,0,0,,R_1FQhiEgg2BqpONz,2,2024-04-16_16h21.36.150,face trait task,2021.2.3,MacIntel,30.00120005,120316,,,,,,,
,,,,,,5.963984375,2.0353,space,0.3451,0,14,14,44,1,45,image/45.jpg,0,0,,R_1FQhiEgg2BqpONz,2,2024-04-16_16h21.36.150,face trait task,2021.2.3,MacIntel,30.00120005,120316,,,,,,,
,,,,,,4.016223958,1.5522,space,0.3383,0,15,15,29,1,30,image/30.jpg,0,0,,R_1FQhiEgg2BqpONz,2,2024-04-16_16h21.36.150,face trait task,2021.2.3,MacIntel,30.00120005,120316,,,,,,,
,,,,,,5.63875,2.702,space,0.2874,0,16,16,5,1,6,image/6.jpg,0,0,,R_1FQhiEgg2BqpONz,2,2024-04-16_16h21.36.150,face trait task,2021.2.3,MacIntel,30.00120005,120316,,,,,,,
,,,,,,4.894765625,2.1347,space,0.3456,0,17,17,3,1,4,image/4.jpg,0,0,,R_1FQhiEgg2BqpONz,2,2024-04-16_16h21.36.150,face trait task,2021.2.3,MacIntel,30.00120005,120316,,,,,,,
,,,,,,6.230859375,1.6698,space,0.5313,0,18,18,50,1,52,image/52.jpg,1,3,Please drag the slider to around 3 to indicate that you are paying attention,R_1FQhiEgg2BqpONz,2,2024-04-16_16h21.36.150,face trait task,2021.2.3,MacIntel,30.00120005,120316,,,,,,,
,,,,,,2.42140625,6.5097,space,1.5256,0,19,19,25,1,26,image/26.jpg,0,0,,R_1FQhiEgg2BqpONz,2,2024-04-16_16h21.36.150,face trait task,2021.2.3,MacIntel,30.00120005,120316,,,,,,,
,,,,,,1.647630208,2.2158,space,0.4,0,20,20,40,1,41,image/41.jpg,0,0,,R_1FQhiEgg2BqpONz,2,2024-04-16_16h21.36.150,face trait task,2021.2.3,MacIntel,30.00120005,120316,,,,,,,
,,,,,,4.003177083,1.9352,space,0.3436,0,21,21,52,1,59,image/59.jpg,1,3,Please drag the slider to around 3 to indicate that you are paying attention,R_1FQhiEgg2BqpONz,2,2024-04-16_16h21.36.150,face trait task,2021.2.3,MacIntel,30.00120005,120316,,,,,,,
,,,,,,3.449713542,2.2867,space,0.3875,0,22,22,34,1,35,image/35.jpg,0,0,,R_1FQhiEgg2BqpONz,2,2024-04-16_16h21.36.150,face trait task,2021.2.3,MacIntel,30.00120005,120316,,,,,,,
,,,,,,4.33484375,1.7669,space,0.3489,0,23,23,42,1,43,image/43.jpg,0,0,,R_1FQhiEgg2BqpONz,2,2024-04-16_16h21.36.150,face trait task,2021.2.3,MacIntel,30.00120005,120316,,,,,,,
,,,,,,2.741223958,1.9057,space,0.3227,0,24,24,46,1,47,image/47.jpg,0,0,,R_1FQhiEgg2BqpONz,2,2024-04-16_16h21.36.150,face trait task,2021.2.3,MacIntel,30.00120005,120316,,,,,,,
,,,,,,3.489921875,2.0659,space,0.3067,0,25,25,39,1,40,image/40.jpg,0,0,,R_1FQhiEgg2BqpONz,2,2024-04-16_16h21.36.150,face trait task,2021.2.3,MacIntel,30.00120005,120316,,,,,,,
,,,,,,4.280052083,3.009,space,0.2593,0,26,26,13,1,14,image/14.jpg,0,0,,R_1FQhiEgg2BqpONz,2,2024-04-16_16h21.36.150,face trait task,2021.2.3,MacIntel,30.00120005,120316,,,,,,,
,,,,,,5.129453125,1.6018,space,0.4481,0,27,27,48,1,49,image/49.jpg,0,0,,R_1FQhiEgg2BqpONz,2,2024-04-16_16h21.36.150,face trait task,2021.2.3,MacIntel,30.00120005,120316,,,,,,,
,,,,,,3.875286458,1.9015,space,0.4495,0,28,28,9,1,10,image/10.jpg,0,0,,R_1FQhiEgg2BqpONz,2,2024-04-16_16h21.36.150,face trait task,2021.2.3,MacIntel,30.00120005,120316,,,,,,,
,,,,,,3.462864583,2.5024,space,0.324,0,29,29,37,1,38,image/38.jpg,0,0,,R_1FQhiEgg2BqpONz,2,2024-04-16_16h21.36.150,face trait task,2021.2.3,MacIntel,30.00120005,120316,,,,,,,
,,,,,,5.874947917,2.737,space,1.1052,0,30,30,41,1,42,image/42.jpg,0,0,,R_1FQhiEgg2BqpONz,2,2024-04-16_16h21.36.150,face trait task,2021.2.3,MacIntel,30.00120005,120316,,,,,,,
,,,,,,4.076432292,3.4996,space,1.9398,0,31,31,21,1,22,image/22.jpg,0,0,,R_1FQhiEgg2BqpONz,2,2024-04-16_16h21.36.150,face trait task,2021.2.3,MacIntel,30.00120005,120316,,,,,,,
,,,,,,4.940416667,2.384,space,1.159,0,32,32,22,1,23,image/23.jpg,0,0,,R_1FQhiEgg2BqpONz,2,2024-04-16_16h21.36.150,face trait task,2021.2.3,MacIntel,30.00120005,120316,,,,,,,
,,,,,,2.428255208,1.4366,space,0.2436,0,33,33,2,1,3,image/3.jpg,0,0,,R_1FQhiEgg2BqpONz,2,2024-04-16_16h21.36.150,face trait task,2021.2.3,MacIntel,30.00120005,120316,,,,,,,
,,,,,,3.244947917,2.7085,space,0.604,0,34,34,12,1,13,image/13.jpg,0,0,,R_1FQhiEgg2BqpONz,2,2024-04-16_16h21.36.150,face trait task,2021.2.3,MacIntel,30.00120005,120316,,,,,,,
,,,,,,5.985729167,2.0665,space,0.33,0,35,35,43,1,44,image/44.jpg,0,0,,R_1FQhiEgg2BqpONz,2,2024-04-16_16h21.36.150,face trait task,2021.2.3,MacIntel,30.00120005,120316,,,,,,,
,,,,,,1.195026042,1.8322,space,0.3318,0,36,36,32,1,33,image/33.jpg,0,0,,R_1FQhiEgg2BqpONz,2,2024-04-16_16h21.36.150,face trait task,2021.2.3,MacIntel,30.00120005,120316,,,,,,,
,,,,,,1.9653125,2.8665,space,1.2618,0,37,37,28,1,29,image/29.jpg,0,0,,R_1FQhiEgg2BqpONz,2,2024-04-16_16h21.36.150,face trait task,2021.2.3,MacIntel,30.00120005,120316,,,,,,,
,,,,,,3.024791667,2.4523,space,0.3589,0,38,38,4,1,5,image/5.jpg,0,0,,R_1FQhiEgg2BqpONz,2,2024-04-16_16h21.36.150,face trait task,2021.2.3,MacIntel,30.00120005,120316,,,,,,,
,,,,,,4.320598958,2.6174,space,1.1902,0,39,39,8,1,9,image/9.jpg,0,0,,R_1FQhiEgg2BqpONz,2,2024-04-16_16h21.36.150,face trait task,2021.2.3,MacIntel,30.00120005,120316,,,,,,,
,,,,,,2.82921875,1.4854,space,0.3117,0,40,40,0,1,1,image/1.jpg,0,0,,R_1FQhiEgg2BqpONz,2,2024-04-16_16h21.36.150,face trait task,2021.2.3,MacIntel,30.00120005,120316,,,,,,,
,,,,,,3.683984375,1.7194,space,0.2822,0,41,41,38,1,39,image/39.jpg,0,0,,R_1FQhiEgg2BqpONz,2,2024-04-16_16h21.36.150,face trait task,2021.2.3,MacIntel,30.00120005,120316,,,,,,,
,,,,,,4.293854167,1.6385,space,0.5341,0,42,42,10,1,11,image/11.jpg,0,0,,R_1FQhiEgg2BqpONz,2,2024-04-16_16h21.36.150,face trait task,2021.2.3,MacIntel,30.00120005,120316,,,,,,,
,,,,,,2.837083333,1.4346,space,0.3906,0,43,43,15,1,16,image/16.jpg,0,0,,R_1FQhiEgg2BqpONz,2,2024-04-16_16h21.36.150,face trait task,2021.2.3,MacIntel,30.00120005,120316,,,,,,,
,,,,,,1.69203125,1.5549,space,0.2482,0,44,44,51,1,53,image/53.jpg,1,4,Please drag the slider to around 4 to indicate that you are paying attention,R_1FQhiEgg2BqpONz,2,2024-04-16_16h21.36.150,face trait task,2021.2.3,MacIntel,30.00120005,120316,,,,,,,
,,,,,,5.943489583,5.4608,space,0.313,0,45,45,47,1,48,image/48.jpg,0,0,,R_1FQhiEgg2BqpONz,2,2024-04-16_16h21.36.150,face trait task,2021.2.3,MacIntel,30.00120005,120316,,,,,,,
,,,,,,1.919635417,2.5867,space,0.4356,0,46,46,14,1,15,image/15.jpg,0,0,,R_1FQhiEgg2BqpONz,2,2024-04-16_16h21.36.150,face trait task,2021.2.3,MacIntel,30.00120005,120316,,,,,,,
,,,,,,3.011953125,3.0502,space,1.6392,0,47,47,30,1,31,image/31.jpg,0,0,,R_1FQhiEgg2BqpONz,2,2024-04-16_16h21.36.150,face trait task,2021.2.3,MacIntel,30.00120005,120316,,,,,,,
,,,,,,3.669713542,2.4,space,0.4377,0,48,48,49,1,50,image/50.jpg,0,0,,R_1FQhiEgg2BqpONz,2,2024-04-16_16h21.36.150,face trait task,2021.2.3,MacIntel,30.00120005,120316,,,,,,,
,,,,,,3.380546875,4.3169,space,0.9894,0,49,49,24,1,25,image/25.jpg,0,0,,R_1FQhiEgg2BqpONz,2,2024-04-16_16h21.36.150,face trait task,2021.2.3,MacIntel,30.00120005,120316,,,,,,,
,,,,,,3.018203125,2.9835,space,1.7575,0,50,50,17,1,18,image/18.jpg,0,0,,R_1FQhiEgg2BqpONz,2,2024-04-16_16h21.36.150,face trait task,2021.2.3,MacIntel,30.00120005,120316,,,,,,,
,,,,,,3.977526042,2.7885,space,0.395,0,51,51,19,1,20,image/20.jpg,0,0,,R_1FQhiEgg2BqpONz,2,2024-04-16_16h21.36.150,face trait task,2021.2.3,MacIntel,30.00120005,120316,,,,,,,
,,,,,,6.295260417,2.1958,space,0.4203,0,52,52,7,1,8,image/8.jpg,0,0,,R_1FQhiEgg2BqpONz,2,2024-04-16_16h21.36.150,face trait task,2021.2.3,MacIntel,30.00120005,120316,,,,,,,
,,,,,,,,,,,,,,,,,,,,R_1FQhiEgg2BqpONz,2,2024-04-16_16h21.36.150,face trait task,2021.2.3,MacIntel,30.00120005,120316,0,0,0,1,1,1,competent.png
,,,,,friendly,1.9959375,2.7795,space,0.807,0,0,0,28,1,29,image/29.jpg,0,0,,R_1FQhiEgg2BqpONz,2,2024-04-16_16h21.36.150,face trait task,2021.2.3,MacIntel,30.00120005,120316,,,,,,,
,,,,,,3.979427083,4.4668,space,0.3247,0,1,1,43,1,44,image/44.jpg,0,0,,R_1FQhiEgg2BqpONz,2,2024-04-16_16h21.36.150,face trait task,2021.2.3,MacIntel,30.00120005,120316,,,,,,,
,,,,,,3.218151042,3.3976,space,0.434,0,2,2,29,1,30,image/30.jpg,0,0,,R_1FQhiEgg2BqpONz,2,2024-04-16_16h21.36.150,face trait task,2021.2.3,MacIntel,30.00120005,120316,,,,,,,
,,,,,,2.003463542,2.9844,space,1.7028,0,3,3,9,1,10,image/10.jpg,0,0,,R_1FQhiEgg2BqpONz,2,2024-04-16_16h21.36.150,face trait task,2021.2.3,MacIntel,30.00120005,120316,,,,,,,
,,,,,,1.378229167,1.4665,space,0.703,0,4,4,18,1,19,image/19.jpg,0,0,,R_1FQhiEgg2BqpONz,2,2024-04-16_16h21.36.150,face trait task,2021.2.3,MacIntel,30.00120005,120316,,,,,,,
,,,,,,2.257916667,2.151,space,0.3374,0,5,5,45,1,46,image/46.jpg,0,0,,R_1FQhiEgg2BqpONz,2,2024-04-16_16h21.36.150,face trait task,2021.2.3,MacIntel,30.00120005,120316,,,,,,,
,,,,,,3.144609375,2.6368,space,0.6581,0,6,6,3,1,4,image/4.jpg,0,0,,R_1FQhiEgg2BqpONz,2,2024-04-16_16h21.36.150,face trait task,2021.2.3,MacIntel,30.00120005,120316,,,,,,,
,,,,,,1.4278125,3.2375,space,2.0806,0,7,7,30,1,31,image/31.jpg,0,0,,R_1FQhiEgg2BqpONz,2,2024-04-16_16h21.36.150,face trait task,2021.2.3,MacIntel,30.00120005,120316,,,,,,,
,,,,,,3.530052083,4.201,space,0.3232,0,8,8,25,1,26,image/26.jpg,0,0,,R_1FQhiEgg2BqpONz,2,2024-04-16_16h21.36.150,face trait task,2021.2.3,MacIntel,30.00120005,120316,,,,,,,
,,,,,,4.349192708,2.0006,space,0.5915,0,9,9,38,1,39,image/39.jpg,0,0,,R_1FQhiEgg2BqpONz,2,2024-04-16_16h21.36.150,face trait task,2021.2.3,MacIntel,30.00120005,120316,,,,,,,
,,,,,,4.851927083,2.2173,space,0.3636,0,10,10,49,1,50,image/50.jpg,0,0,,R_1FQhiEgg2BqpONz,2,2024-04-16_16h21.36.150,face trait task,2021.2.3,MacIntel,30.00120005,120316,,,,,,,
,,,,,,4.01828125,2.0518,space,0.3922,0,11,11,37,1,38,image/38.jpg,0,0,,R_1FQhiEgg2BqpONz,2,2024-04-16_16h21.36.150,face trait task,2021.2.3,MacIntel,30.00120005,120316,,,,,,,
,,,,,,3.015208333,1.8163,space,0.2737,0,12,12,36,1,37,image/37.jpg,0,0,,R_1FQhiEgg2BqpONz,2,2024-04-16_16h21.36.150,face trait task,2021.2.3,MacIntel,30.00120005,120316,,,,,,,
,,,,,,4.777890625,3.751,space,1.869,0,13,13,26,1,27,image/27.jpg,0,0,,R_1FQhiEgg2BqpONz,2,2024-04-16_16h21.36.150,face trait task,2021.2.3,MacIntel,30.00120005,120316,,,,,,,
,,,,,,5.530416667,1.6353,space,0.5021,0,14,14,7,1,8,image/8.jpg,0,0,,R_1FQhiEgg2BqpONz,2,2024-04-16_16h21.36.150,face trait task,2021.2.3,MacIntel,30.00120005,120316,,,,,,,
,,,,,,4.706953125,4.0165,space,1.7877,0,15,15,8,1,9,image/9.jpg,0,0,,R_1FQhiEgg2BqpONz,2,2024-04-16_16h21.36.150,face trait task,2021.2.3,MacIntel,30.00120005,120316,,,,,,,
,,,,,,6.207161458,2.2336,space,0.4911,0,16,16,11,1,12,image/12.jpg,0,0,,R_1FQhiEgg2BqpONz,2,2024-04-16_16h21.36.150,face trait task,2021.2.3,MacIntel,30.00120005,120316,,,,,,,
,,,,,,5.277526042,1.7502,space,0.6467,0,17,17,24,1,25,image/25.jpg,0,0,,R_1FQhiEgg2BqpONz,2,2024-04-16_16h21.36.150,face trait task,2021.2.3,MacIntel,30.00120005,120316,,,,,,,
,,,,,,3.601197917,2.7291,space,0.3261,0,18,18,33,1,34,image/34.jpg,0,0,,R_1FQhiEgg2BqpONz,2,2024-04-16_16h21.36.150,face trait task,2021.2.3,MacIntel,30.00120005,120316,,,,,,,
,,,,,,6.00640625,2.6529,space,0.4254,0,19,19,20,1,21,image/21.jpg,0,0,,R_1FQhiEgg2BqpONz,2,2024-04-16_16h21.36.150,face trait task,2021.2.3,MacIntel,30.00120005,120316,,,,,,,
,,,,,,1.04359375,3.7081,space,0.5673,0,20,20,51,1,53,image/53.jpg,1,4,Please drag the slider to around 4 to indicate that you are paying attention,R_1FQhiEgg2BqpONz,2,2024-04-16_16h21.36.150,face trait task,2021.2.3,MacIntel,30.00120005,120316,,,,,,,
,,,,,,3.41375,2.0869,space,0.4024,0,21,21,47,1,48,image/48.jpg,0,0,,R_1FQhiEgg2BqpONz,2,2024-04-16_16h21.36.150,face trait task,2021.2.3,MacIntel,30.00120005,120316,,,,,,,
,,,,,,5.988567708,2.4547,space,0.3601,0,22,22,50,1,52,image/52.jpg,1,3,Please drag the slider to around 3 to indicate that you are paying attention,R_1FQhiEgg2BqpONz,2,2024-04-16_16h21.36.150,face trait task,2021.2.3,MacIntel,30.00120005,120316,,,,,,,
,,,,,,4.587760417,2.9453,space,0.3041,0,23,23,4,1,5,image/5.jpg,0,0,,R_1FQhiEgg2BqpONz,2,2024-04-16_16h21.36.150,face trait task,2021.2.3,MacIntel,30.00120005,120316,,,,,,,
,,,,,,5.788541667,1.767,space,0.4042,0,24,24,22,1,23,image/23.jpg,0,0,,R_1FQhiEgg2BqpONz,2,2024-04-16_16h21.36.150,face trait task,2021.2.3,MacIntel,30.00120005,120316,,,,,,,
,,,,,,2.865755208,4.1694,space,0.3934,0,25,25,15,1,16,image/16.jpg,0,0,,R_1FQhiEgg2BqpONz,2,2024-04-16_16h21.36.150,face trait task,2021.2.3,MacIntel,30.00120005,120316,,,,,,,
,,,,,,4.48671875,3.3261,space,1.0721,0,26,26,2,1,3,image/3.jpg,0,0,,R_1FQhiEgg2BqpONz,2,2024-04-16_16h21.36.150,face trait task,2021.2.3,MacIntel,30.00120005,120316,,,,,,,
,,,,,,3.615859375,1.6044,space,0.3229,0,27,27,10,1,11,image/11.jpg,0,0,,R_1FQhiEgg2BqpONz,2,2024-04-16_16h21.36.150,face trait task,2021.2.3,MacIntel,30.00120005,120316,,,,,,,
,,,,,,2.840416667,1.8005,space,0.423,0,28,28,6,1,7,image/7.jpg,0,0,,R_1FQhiEgg2BqpONz,2,2024-04-16_16h21.36.150,face trait task,2021.2.3,MacIntel,30.00120005,120316,,,,,,,
,,,,,,2.334270833,1.8677,space,0.5042,0,29,29,39,1,40,image/40.jpg,0,0,,R_1FQhiEgg2BqpONz,2,2024-04-16_16h21.36.150,face trait task,2021.2.3,MacIntel,30.00120005,120316,,,,,,,
,,,,,,1.970598958,1.6902,space,0.3587,0,30,30,13,1,14,image/14.jpg,0,0,,R_1FQhiEgg2BqpONz,2,2024-04-16_16h21.36.150,face trait task,2021.2.3,MacIntel,30.00120005,120316,,,,,,,
,,,,,,4.239114583,3.4351,space,0.444,0,31,31,46,1,47,image/47.jpg,0,0,,R_1FQhiEgg2BqpONz,2,2024-04-16_16h21.36.150,face trait task,2021.2.3,MacIntel,30.00120005,120316,,,,,,,
,,,,,,1.995598958,3.436,space,0.3383,0,32,32,42,1,43,image/43.jpg,0,0,,R_1FQhiEgg2BqpONz,2,2024-04-16_16h21.36.150,face trait task,2021.2.3,MacIntel,30.00120005,120316,,,,,,,
,,,,,,2.981328125,2.1529,space,0.4148,0,33,33,23,1,24,image/24.jpg,0,0,,R_1FQhiEgg2BqpONz,2,2024-04-16_16h21.36.150,face trait task,2021.2.3,MacIntel,30.00120005,120316,,,,,,,
,,,,,,4.33390625,2.021,space,1.0264,0,34,34,14,1,15,image/15.jpg,0,0,,R_1FQhiEgg2BqpONz,2,2024-04-16_16h21.36.150,face trait task,2021.2.3,MacIntel,30.00120005,120316,,,,,,,
,,,,,,1.502890625,2.2863,space,0.4407,0,35,35,16,1,17,image/17.jpg,0,0,,R_1FQhiEgg2BqpONz,2,2024-04-16_16h21.36.150,face trait task,2021.2.3,MacIntel,30.00120005,120316,,,,,,,
,,,,,,3.0403125,2.2024,space,0.3587,0,36,36,34,1,35,image/35.jpg,0,0,,R_1FQhiEgg2BqpONz,2,2024-04-16_16h21.36.150,face trait task,2021.2.3,MacIntel,30.00120005,120316,,,,,,,
,,,,,,3.309479167,4.075,space,0.3976,0,37,37,32,1,33,image/33.jpg,0,0,,R_1FQhiEgg2BqpONz,2,2024-04-16_16h21.36.150,face trait task,2021.2.3,MacIntel,30.00120005,120316,,,,,,,
,,,,,,1.665963542,1.7344,space,0.4309,0,38,38,17,1,18,image/18.jpg,0,0,,R_1FQhiEgg2BqpONz,2,2024-04-16_16h21.36.150,face trait task,2021.2.3,MacIntel,30.00120005,120316,,,,,,,
,,,,,,3.990390625,3.8547,space,0.4684,0,39,39,19,1,20,image/20.jpg,0,0,,R_1FQhiEgg2BqpONz,2,2024-04-16_16h21.36.150,face trait task,2021.2.3,MacIntel,30.00120005,120316,,,,,,,
,,,,,,3.255859375,6.7089,space,0.391,0,40,40,27,1,28,image/28.jpg,0,0,,R_1FQhiEgg2BqpONz,2,2024-04-16_16h21.36.150,face trait task,2021.2.3,MacIntel,30.00120005,120316,,,,,,,
,,,,,,3.943307292,2.8493,space,0.2919,0,41,41,5,1,6,image/6.jpg,0,0,,R_1FQhiEgg2BqpONz,2,2024-04-16_16h21.36.150,face trait task,2021.2.3,MacIntel,30.00120005,120316,,,,,,,
,,,,,,4.41625,1.6886,space,0.3709,0,42,42,44,1,45,image/45.jpg,0,0,,R_1FQhiEgg2BqpONz,2,2024-04-16_16h21.36.150,face trait task,2021.2.3,MacIntel,30.00120005,120316,,,,,,,
,,,,,,3.197421875,3.1371,space,0.312,0,43,43,31,1,32,image/32.jpg,0,0,,R_1FQhiEgg2BqpONz,2,2024-04-16_16h21.36.150,face trait task,2021.2.3,MacIntel,30.00120005,120316,,,,,,,
,,,,,,4.032083333,2.434,space,0.4382,0,44,44,41,1,42,image/42.jpg,0,0,,R_1FQhiEgg2BqpONz,2,2024-04-16_16h21.36.150,face trait task,2021.2.3,MacIntel,30.00120005,120316,,,,,,,
,,,,,,1.63703125,1.5578,space,0.3375,0,45,45,21,1,22,image/22.jpg,0,0,,R_1FQhiEgg2BqpONz,2,2024-04-16_16h21.36.150,face trait task,2021.2.3,MacIntel,30.00120005,120316,,,,,,,
,,,,,,3.272473958,3.4854,space,0.2769,0,46,46,52,1,59,image/59.jpg,1,3,Please drag the slider to around 3 to indicate that you are paying attention,R_1FQhiEgg2BqpONz,2,2024-04-16_16h21.36.150,face trait task,2021.2.3,MacIntel,30.00120005,120316,,,,,,,
,,,,,,2.031979167,1.7356,space,0.426,0,47,47,1,1,2,image/2.jpg,0,0,,R_1FQhiEgg2BqpONz,2,2024-04-16_16h21.36.150,face trait task,2021.2.3,MacIntel,30.00120005,120316,,,,,,,
,,,,,,2.031979167,1.5514,space,0.7714,0,48,48,0,1,1,image/1.jpg,0,0,,R_1FQhiEgg2BqpONz,2,2024-04-16_16h21.36.150,face trait task,2021.2.3,MacIntel,30.00120005,120316,,,,,,,
,,,,,,5.561458333,3.625,space,0.7115,0,49,49,35,1,36,image/36.jpg,0,0,,R_1FQhiEgg2BqpONz,2,2024-04-16_16h21.36.150,face trait task,2021.2.3,MacIntel,30.00120005,120316,,,,,,,
,,,,,,4.456041667,2.0516,space,0.8698,0,50,50,12,1,13,image/13.jpg,0,0,,R_1FQhiEgg2BqpONz,2,2024-04-16_16h21.36.150,face trait task,2021.2.3,MacIntel,30.00120005,120316,,,,,,,
,,,,,,3.211015625,4.2976,space,0.3816,0,51,51,48,1,49,image/49.jpg,0,0,,R_1FQhiEgg2BqpONz,2,2024-04-16_16h21.36.150,face trait task,2021.2.3,MacIntel,30.00120005,120316,,,,,,,
,,,,,,3.000026042,4.6772,space,0.9404,0,52,52,40,1,41,image/41.jpg,0,0,,R_1FQhiEgg2BqpONz,2,2024-04-16_16h21.36.150,face trait task,2021.2.3,MacIntel,30.00120005,120316,,,,,,,
,,,,,,,,,,,,,,,,,,,,R_1FQhiEgg2BqpONz,2,2024-04-16_16h21.36.150,face trait task,2021.2.3,MacIntel,30.00120005,120316,0,1,1,3,1,3,friendly.png
,,,,,critical,5.000598958,5.5377,space,3.1084,0,0,0,49,1,50,image/50.jpg,0,0,,R_1FQhiEgg2BqpONz,2,2024-04-16_16h21.36.150,face trait task,2021.2.3,MacIntel,30.00120005,120316,,,,,,,
,,,,,,4.762786458,4.8589,space,0.5085,0,1,1,36,1,37,image/37.jpg,0,0,,R_1FQhiEgg2BqpONz,2,2024-04-16_16h21.36.150,face trait task,2021.2.3,MacIntel,30.00120005,120316,,,,,,,
,,,,,,6.017421875,2.2515,space,0.2916,0,2,2,19,1,20,image/20.jpg,0,0,,R_1FQhiEgg2BqpONz,2,2024-04-16_16h21.36.150,face trait task,2021.2.3,MacIntel,30.00120005,120316,,,,,,,
,,,,,,6.757265625,1.4903,space,0.4134,0,3,3,21,1,22,image/22.jpg,0,0,,R_1FQhiEgg2BqpONz,2,2024-04-16_16h21.36.150,face trait task,2021.2.3,MacIntel,30.00120005,120316,,,,,,,
,,,,,,6.558463542,2.0852,space,0.2967,0,4,4,18,1,19,image/19.jpg,0,0,,R_1FQhiEgg2BqpONz,2,2024-04-16_16h21.36.150,face trait task,2021.2.3,MacIntel,30.00120005,120316,,,,,,,
,,,,,,3.50171875,4.7504,space,2.901,0,5,5,4,1,5,image/5.jpg,0,0,,R_1FQhiEgg2BqpONz,2,2024-04-16_16h21.36.150,face trait task,2021.2.3,MacIntel,30.00120005,120316,,,,,,,
,,,,,,5.3265625,2.5005,space,1.2254,0,6,6,0,1,1,image/1.jpg,0,0,,R_1FQhiEgg2BqpONz,2,2024-04-16_16h21.36.150,face trait task,2021.2.3,MacIntel,30.00120005,120316,,,,,,,
,,,,,,5.019453125,3.4995,space,2.2237,0,7,7,45,1,46,image/46.jpg,0,0,,R_1FQhiEgg2BqpONz,2,2024-04-16_16h21.36.150,face trait task,2021.2.3,MacIntel,30.00120005,120316,,,,,,,
,,,,,,1.958307292,2.8682,space,0.5705,0,8,8,33,1,34,image/34.jpg,0,0,,R_1FQhiEgg2BqpONz,2,2024-04-16_16h21.36.150,face trait task,2021.2.3,MacIntel,30.00120005,120316,,,,,,,
,,,,,,2.0446875,2.7071,space,0.9236,0,9,9,47,1,48,image/48.jpg,0,0,,R_1FQhiEgg2BqpONz,2,2024-04-16_16h21.36.150,face trait task,2021.2.3,MacIntel,30.00120005,120316,,,,,,,
,,,,,,3.023489583,1.905,space,0.4627,0,10,10,43,1,44,image/44.jpg,0,0,,R_1FQhiEgg2BqpONz,2,2024-04-16_16h21.36.150,face trait task,2021.2.3,MacIntel,30.00120005,120316,,,,,,,
,,,,,,4.977864583,1.6874,space,0.6297,0,11,11,10,1,11,image/11.jpg,0,0,,R_1FQhiEgg2BqpONz,2,2024-04-16_16h21.36.150,face trait task,2021.2.3,MacIntel,30.00120005,120316,,,,,,,
,,,,,,4.024713542,3.021,space,0.3009,0,12,12,8,1,9,image/9.jpg,0,0,,R_1FQhiEgg2BqpONz,2,2024-04-16_16h21.36.150,face trait task,2021.2.3,MacIntel,30.00120005,120316,,,,,,,
,,,,,,6.064895833,1.5359,space,0.3104,0,13,13,17,1,18,image/18.jpg,0,0,,R_1FQhiEgg2BqpONz,2,2024-04-16_16h21.36.150,face trait task,2021.2.3,MacIntel,30.00120005,120316,,,,,,,
,,,,,,1.698046875,4.6007,space,2.0411,0,14,14,11,1,12,image/12.jpg,0,0,,R_1FQhiEgg2BqpONz,2,2024-04-16_16h21.36.150,face trait task,2021.2.3,MacIntel,30.00120005,120316,,,,,,,
,,,,,,2.996484375,4.3589,space,0.617,0,15,15,23,1,24,image/24.jpg,0,0,,R_1FQhiEgg2BqpONz,2,2024-04-16_16h21.36.150,face trait task,2021.2.3,MacIntel,30.00120005,120316,,,,,,,
,,,,,,3.981640625,5.72,space,3.203,0,16,16,52,1,59,image/59.jpg,1,3,Please drag the slider to around 3 to indicate that you are paying attention,R_1FQhiEgg2BqpONz,2,2024-04-16_16h21.36.150,face trait task,2021.2.3,MacIntel,30.00120005,120316,,,,,,,
,,,,,,4.916953125,4.1637,space,0.9273,0,17,17,39,1,40,image/40.jpg,0,0,,R_1FQhiEgg2BqpONz,2,2024-04-16_16h21.36.150,face trait task,2021.2.3,MacIntel,30.00120005,120316,,,,,,,
,,,,,,2.4390625,2.6204,space,0.3929,0,18,18,22,1,23,image/23.jpg,0,0,,R_1FQhiEgg2BqpONz,2,2024-04-16_16h21.36.150,face trait task,2021.2.3,MacIntel,30.00120005,120316,,,,,,,
,,,,,,2.634791667,2.0832,space,0.5253,0,19,19,26,1,27,image/27.jpg,0,0,,R_1FQhiEgg2BqpONz,2,2024-04-16_16h21.36.150,face trait task,2021.2.3,MacIntel,30.00120005,120316,,,,,,,
,,,,,,4.908307292,3.862,space,0.7903,0,20,20,40,1,41,image/41.jpg,0,0,,R_1FQhiEgg2BqpONz,2,2024-04-16_16h21.36.150,face trait task,2021.2.3,MacIntel,30.00120005,120316,,,,,,,
,,,,,,6.62109375,1.7843,space,0.4753,0,21,21,51,1,53,image/53.jpg,1,4,Please drag the slider to around 4 to indicate that you are paying attention,R_1FQhiEgg2BqpONz,2,2024-04-16_16h21.36.150,face trait task,2021.2.3,MacIntel,30.00120005,120316,,,,,,,
,,,,,,6.522994792,1.9167,space,0.2736,0,22,22,30,1,31,image/31.jpg,0,0,,R_1FQhiEgg2BqpONz,2,2024-04-16_16h21.36.150,face trait task,2021.2.3,MacIntel,30.00120005,120316,,,,,,,
,,,,,,2.985104167,2.4371,space,0.3485,0,23,23,29,1,30,image/30.jpg,0,0,,R_1FQhiEgg2BqpONz,2,2024-04-16_16h21.36.150,face trait task,2021.2.3,MacIntel,30.00120005,120316,,,,,,,
,,,,,,4.631901042,4.3477,space,0.336,0,24,24,13,1,14,image/14.jpg,0,0,,R_1FQhiEgg2BqpONz,2,2024-04-16_16h21.36.150,face trait task,2021.2.3,MacIntel,30.00120005,120316,,,,,,,
,,,,,,4.996640625,2.0368,space,0.3638,0,25,25,3,1,4,image/4.jpg,0,0,,R_1FQhiEgg2BqpONz,2,2024-04-16_16h21.36.150,face trait task,2021.2.3,MacIntel,30.00120005,120316,,,,,,,
,,,,,,5.686015625,2.086,space,0.6936,0,26,26,25,1,26,image/26.jpg,0,0,,R_1FQhiEgg2BqpONz,2,2024-04-16_16h21.36.150,face trait task,2021.2.3,MacIntel,30.00120005,120316,,,,,,,
,,,,,,2.978828125,2.7372,space,0.5631,0,27,27,6,1,7,image/7.jpg,0,0,,R_1FQhiEgg2BqpONz,2,2024-04-16_16h21.36.150,face trait task,2021.2.3,MacIntel,30.00120005,120316,,,,,,,
,,,,,,2.82890625,2.7539,space,1.1102,0,28,28,31,1,32,image/32.jpg,0,0,,R_1FQhiEgg2BqpONz,2,2024-04-16_16h21.36.150,face trait task,2021.2.3,MacIntel,30.00120005,120316,,,,,,,
,,,,,,5.529739583,3.3838,space,1.6281,0,29,29,34,1,35,image/35.jpg,0,0,,R_1FQhiEgg2BqpONz,2,2024-04-16_16h21.36.150,face trait task,2021.2.3,MacIntel,30.00120005,120316,,,,,,,
,,,,,,1.968645833,2.4502,space,0.3357,0,30,30,44,1,45,image/45.jpg,0,0,,R_1FQhiEgg2BqpONz,2,2024-04-16_16h21.36.150,face trait task,2021.2.3,MacIntel,30.00120005,120316,,,,,,,
,,,,,,1.368463542,2.3516,space,0.7426,0,31,31,38,1,39,image/39.jpg,0,0,,R_1FQhiEgg2BqpONz,2,2024-04-16_16h21.36.150,face trait task,2021.2.3,MacIntel,30.00120005,120316,,,,,,,
,,,,,,4.290442708,2.6066,space,0.3566,0,32,32,46,1,47,image/47.jpg,0,0,,R_1FQhiEgg2BqpONz,2,2024-04-16_16h21.36.150,face trait task,2021.2.3,MacIntel,30.00120005,120316,,,,,,,
,,,,,,4.025364583,2.7843,space,1.2374,0,33,33,5,1,6,image/6.jpg,0,0,,R_1FQhiEgg2BqpONz,2,2024-04-16_16h21.36.150,face trait task,2021.2.3,MacIntel,30.00120005,120316,,,,,,,
,,,,,,5.104453125,2.2844,space,0.4375,0,34,34,42,1,43,image/43.jpg,0,0,,R_1FQhiEgg2BqpONz,2,2024-04-16_16h21.36.150,face trait task,2021.2.3,MacIntel,30.00120005,120316,,,,,,,
,,,,,,1.98375,1.9331,space,0.391,0,35,35,32,1,33,image/33.jpg,0,0,,R_1FQhiEgg2BqpONz,2,2024-04-16_16h21.36.150,face trait task,2021.2.3,MacIntel,30.00120005,120316,,,,,,,
,,,,,,1.664973958,3.8379,space,2.8599,0,36,36,24,1,25,image/25.jpg,0,0,,R_1FQhiEgg2BqpONz,2,2024-04-16_16h21.36.150,face trait task,2021.2.3,MacIntel,30.00120005,120316,,,,,,,
,,,,,,4.316380208,2.4867,space,0.5413,0,37,37,37,1,38,image/38.jpg,0,0,,R_1FQhiEgg2BqpONz,2,2024-04-16_16h21.36.150,face trait task,2021.2.3,MacIntel,30.00120005,120316,,,,,,,
,,,,,,2.981380208,3.7364,space,2.0725,0,38,38,14,1,15,image/15.jpg,0,0,,R_1FQhiEgg2BqpONz,2,2024-04-16_16h21.36.150,face trait task,2021.2.3,MacIntel,30.00120005,120316,,,,,,,
,,,,,,5.038385417,3.5763,space,0.4358,0,39,39,48,1,49,image/49.jpg,0,0,,R_1FQhiEgg2BqpONz,2,2024-04-16_16h21.36.150,face trait task,2021.2.3,MacIntel,30.00120005,120316,,,,,,,
,,,,,,6.018567708,1.8997,space,0.4307,0,40,40,9,1,10,image/10.jpg,0,0,,R_1FQhiEgg2BqpONz,2,2024-04-16_16h21.36.150,face trait task,2021.2.3,MacIntel,30.00120005,120316,,,,,,,
,,,,,,2.000859375,3.1074,space,0.4923,0,41,41,35,1,36,image/36.jpg,0,0,,R_1FQhiEgg2BqpONz,2,2024-04-16_16h21.36.150,face trait task,2021.2.3,MacIntel,30.00120005,120316,,,,,,,
,,,,,,2.981744792,2.4009,space,0.3815,0,42,42,50,1,52,image/52.jpg,1,3,Please drag the slider to around 3 to indicate that you are paying attention,R_1FQhiEgg2BqpONz,2,2024-04-16_16h21.36.150,face trait task,2021.2.3,MacIntel,30.00120005,120316,,,,,,,
,,,,,,3.321692708,3.2309,space,0.467,0,43,43,12,1,13,image/13.jpg,0,0,,R_1FQhiEgg2BqpONz,2,2024-04-16_16h21.36.150,face trait task,2021.2.3,MacIntel,30.00120005,120316,,,,,,,
,,,,,,4.499427083,1.6667,space,0.3901,0,44,44,2,1,3,image/3.jpg,0,0,,R_1FQhiEgg2BqpONz,2,2024-04-16_16h21.36.150,face trait task,2021.2.3,MacIntel,30.00120005,120316,,,,,,,
,,,,,,5.248385417,1.957,space,0.5418,0,45,45,15,1,16,image/16.jpg,0,0,,R_1FQhiEgg2BqpONz,2,2024-04-16_16h21.36.150,face trait task,2021.2.3,MacIntel,30.00120005,120316,,,,,,,
,,,,,,2.787916667,5.7559,space,0.5147,0,46,46,41,1,42,image/42.jpg,0,0,,R_1FQhiEgg2BqpONz,2,2024-04-16_16h21.36.150,face trait task,2021.2.3,MacIntel,30.00120005,120316,,,,,,,
,,,,,,2.146979167,2.6833,space,1.7247,0,47,47,7,1,8,image/8.jpg,0,0,,R_1FQhiEgg2BqpONz,2,2024-04-16_16h21.36.150,face trait task,2021.2.3,MacIntel,30.00120005,120316,,,,,,,
,,,,,,5.969609375,2.3204,space,0.357,0,48,48,27,1,28,image/28.jpg,0,0,,R_1FQhiEgg2BqpONz,2,2024-04-16_16h21.36.150,face trait task,2021.2.3,MacIntel,30.00120005,120316,,,,,,,
,,,,,,6.431588542,1.3877,space,0.6106,0,49,49,1,1,2,image/2.jpg,0,0,,R_1FQhiEgg2BqpONz,2,2024-04-16_16h21.36.150,face trait task,2021.2.3,MacIntel,30.00120005,120316,,,,,,,
,,,,,,4.035338542,2.7339,space,0.2937,0,50,50,28,1,29,image/29.jpg,0,0,,R_1FQhiEgg2BqpONz,2,2024-04-16_16h21.36.150,face trait task,2021.2.3,MacIntel,30.00120005,120316,,,,,,,
,,,,,,6.420182292,1.5003,space,0.5012,0,51,51,16,1,17,image/17.jpg,0,0,,R_1FQhiEgg2BqpONz,2,2024-04-16_16h21.36.150,face trait task,2021.2.3,MacIntel,30.00120005,120316,,,,,,,
,,,,,,3.961536458,1.99,space,0.8891,0,52,52,20,1,21,image/21.jpg,0,0,,R_1FQhiEgg2BqpONz,2,2024-04-16_16h21.36.150,face trait task,2021.2.3,MacIntel,30.00120005,120316,,,,,,,
,,,,,,,,,,,,,,,,,,,,R_1FQhiEgg2BqpONz,2,2024-04-16_16h21.36.150,face trait task,2021.2.3,MacIntel,30.00120005,120316,0,2,2,0,1,0,critical.png
,,,,,trustworthy,2.00984375,3.251,space,0.7424,0,0,0,34,1,35,image/35.jpg,0,0,,R_1FQhiEgg2BqpONz,2,2024-04-16_16h21.36.150,face trait task,2021.2.3,MacIntel,30.00120005,120316,,,,,,,
,,,,,,3.252369792,6.2597,space,0.3487,0,1,1,26,1,27,image/27.jpg,0,0,,R_1FQhiEgg2BqpONz,2,2024-04-16_16h21.36.150,face trait task,2021.2.3,MacIntel,30.00120005,120316,,,,,,,
,,,,,,3.248567708,2.7355,space,0.2358,0,2,2,29,1,30,image/30.jpg,0,0,,R_1FQhiEgg2BqpONz,2,2024-04-16_16h21.36.150,face trait task,2021.2.3,MacIntel,30.00120005,120316,,,,,,,
,,,,,,3.955859375,2.4059,space,0.4093,0,3,3,42,1,43,image/43.jpg,0,0,,R_1FQhiEgg2BqpONz,2,2024-04-16_16h21.36.150,face trait task,2021.2.3,MacIntel,30.00120005,120316,,,,,,,
,,,,,,3.252838542,2.8531,space,1.195,0,4,4,4,1,5,image/5.jpg,0,0,,R_1FQhiEgg2BqpONz,2,2024-04-16_16h21.36.150,face trait task,2021.2.3,MacIntel,30.00120005,120316,,,,,,,
,,,,,,4.31015625,3.0352,space,0.285,0,5,5,35,1,36,image/36.jpg,0,0,,R_1FQhiEgg2BqpONz,2,2024-04-16_16h21.36.150,face trait task,2021.2.3,MacIntel,30.00120005,120316,,,,,,,
,,,,,,3.942838542,2.2357,space,0.2551,0,6,6,2,1,3,image/3.jpg,0,0,,R_1FQhiEgg2BqpONz,2,2024-04-16_16h21.36.150,face trait task,2021.2.3,MacIntel,30.00120005,120316,,,,,,,
,,,,,,3.52453125,1.9709,space,0.2451,0,7,7,23,1,24,image/24.jpg,0,0,,R_1FQhiEgg2BqpONz,2,2024-04-16_16h21.36.150,face trait task,2021.2.3,MacIntel,30.00120005,120316,,,,,,,
,,,,,,2.692447917,3.2395,space,0.1735,0,8,8,8,1,9,image/9.jpg,0,0,,R_1FQhiEgg2BqpONz,2,2024-04-16_16h21.36.150,face trait task,2021.2.3,MacIntel,30.00120005,120316,,,,,,,
,,,,,,3.196614583,3.0026,space,0.5338,0,9,9,21,1,22,image/22.jpg,0,0,,R_1FQhiEgg2BqpONz,2,2024-04-16_16h21.36.150,face trait task,2021.2.3,MacIntel,30.00120005,120316,,,,,,,
,,,,,,2.863932292,3.9431,space,0.4177,0,10,10,39,1,40,image/40.jpg,0,0,,R_1FQhiEgg2BqpONz,2,2024-04-16_16h21.36.150,face trait task,2021.2.3,MacIntel,30.00120005,120316,,,,,,,
,,,,,,4.986901042,1.9027,space,0.2916,0,11,11,50,1,52,image/52.jpg,1,3,Please drag the slider to around 3 to indicate that you are paying attention,R_1FQhiEgg2BqpONz,2,2024-04-16_16h21.36.150,face trait task,2021.2.3,MacIntel,30.00120005,120316,,,,,,,
,,,,,,3.392526042,3.0674,space,1.378,0,12,12,15,1,16,image/16.jpg,0,0,,R_1FQhiEgg2BqpONz,2,2024-04-16_16h21.36.150,face trait task,2021.2.3,MacIntel,30.00120005,120316,,,,,,,
,,,,,,2.756927083,1.4878,space,0.5592,0,13,13,25,1,26,image/26.jpg,0,0,,R_1FQhiEgg2BqpONz,2,2024-04-16_16h21.36.150,face trait task,2021.2.3,MacIntel,30.00120005,120316,,,,,,,
,,,,,,4.242578125,2.1021,space,0.3284,0,14,14,5,1,6,image/6.jpg,0,0,,R_1FQhiEgg2BqpONz,2,2024-04-16_16h21.36.150,face trait task,2021.2.3,MacIntel,30.00120005,120316,,,,,,,
,,,,,,4.984947917,3.1367,space,0.3617,0,15,15,41,1,42,image/42.jpg,0,0,,R_1FQhiEgg2BqpONz,2,2024-04-16_16h21.36.150,face trait task,2021.2.3,MacIntel,30.00120005,120316,,,,,,,
,,,,,,4.0284375,1.8205,space,0.5081,0,16,16,13,1,14,image/14.jpg,0,0,,R_1FQhiEgg2BqpONz,2,2024-04-16_16h21.36.150,face trait task,2021.2.3,MacIntel,30.00120005,120316,,,,,,,
,,,,,,3.631484375,2.3521,space,0.5093,0,17,17,52,1,59,image/59.jpg,1,3,Please drag the slider to around 3 to indicate that you are paying attention,R_1FQhiEgg2BqpONz,2,2024-04-16_16h21.36.150,face trait task,2021.2.3,MacIntel,30.00120005,120316,,,,,,,
,,,,,,2.982421875,4.9098,space,1.8223,0,18,18,45,1,46,image/46.jpg,0,0,,R_1FQhiEgg2BqpONz,2,2024-04-16_16h21.36.150,face trait task,2021.2.3,MacIntel,30.00120005,120316,,,,,,,
,,,,,,3.99015625,4.2032,space,2.0962,0,19,19,43,1,44,image/44.jpg,0,0,,R_1FQhiEgg2BqpONz,2,2024-04-16_16h21.36.150,face trait task,2021.2.3,MacIntel,30.00120005,120316,,,,,,,
,,,,,,4.556692708,2.0382,space,0.8733,0,20,20,14,1,15,image/15.jpg,0,0,,R_1FQhiEgg2BqpONz,2,2024-04-16_16h21.36.150,face trait task,2021.2.3,MacIntel,30.00120005,120316,,,,,,,
,,,,,,2.676614583,1.5538,space,0.8473,0,21,21,3,1,4,image/4.jpg,0,0,,R_1FQhiEgg2BqpONz,2,2024-04-16_16h21.36.150,face trait task,2021.2.3,MacIntel,30.00120005,120316,,,,,,,
,,,,,,5.641822917,2.4203,space,0.3172,0,22,22,11,1,12,image/12.jpg,0,0,,R_1FQhiEgg2BqpONz,2,2024-04-16_16h21.36.150,face trait task,2021.2.3,MacIntel,30.00120005,120316,,,,,,,
,,,,,,3.232942708,2.3719,space,1.3333,0,23,23,31,1,32,image/32.jpg,0,0,,R_1FQhiEgg2BqpONz,2,2024-04-16_16h21.36.150,face trait task,2021.2.3,MacIntel,30.00120005,120316,,,,,,,
,,,,,,2.940598958,3.4372,space,0.3106,0,24,24,10,1,11,image/11.jpg,0,0,,R_1FQhiEgg2BqpONz,2,2024-04-16_16h21.36.150,face trait task,2021.2.3,MacIntel,30.00120005,120316,,,,,,,
,,,,,,1.990208333,1.5197,space,0.3948,0,25,25,30,1,31,image/31.jpg,0,0,,R_1FQhiEgg2BqpONz,2,2024-04-16_16h21.36.150,face trait task,2021.2.3,MacIntel,30.00120005,120316,,,,,,,
,,,,,,2.679869792,1.3537,space,0.4142,0,26,26,17,1,18,image/18.jpg,0,0,,R_1FQhiEgg2BqpONz,2,2024-04-16_16h21.36.150,face trait task,2021.2.3,MacIntel,30.00120005,120316,,,,,,,
,,,,,,2.774973958,2.0538,space,0.4077,0,27,27,36,1,37,image/37.jpg,0,0,,R_1FQhiEgg2BqpONz,2,2024-04-16_16h21.36.150,face trait task,2021.2.3,MacIntel,30.00120005,120316,,,,,,,
,,,,,,4.000703125,2.3199,space,0.3545,0,28,28,0,1,1,image/1.jpg,0,0,,R_1FQhiEgg2BqpONz,2,2024-04-16_16h21.36.150,face trait task,2021.2.3,MacIntel,30.00120005,120316,,,,,,,
,,,,,,4.517109375,1.4849,space,0.4456,0,29,29,7,1,8,image/8.jpg,0,0,,R_1FQhiEgg2BqpONz,2,2024-04-16_16h21.36.150,face trait task,2021.2.3,MacIntel,30.00120005,120316,,,,,,,
,,,,,,4.474401042,1.5181,space,1.1089,0,30,30,22,1,23,image/23.jpg,0,0,,R_1FQhiEgg2BqpONz,2,2024-04-16_16h21.36.150,face trait task,2021.2.3,MacIntel,30.00120005,120316,,,,,,,
,,,,,,4.942473958,2.5036,space,1.5659,0,31,31,44,1,45,image/45.jpg,0,0,,R_1FQhiEgg2BqpONz,2,2024-04-16_16h21.36.150,face trait task,2021.2.3,MacIntel,30.00120005,120316,,,,,,,
,,,,,,2.417395833,2.2343,space,0.4052,0,32,32,27,1,28,image/28.jpg,0,0,,R_1FQhiEgg2BqpONz,2,2024-04-16_16h21.36.150,face trait task,2021.2.3,MacIntel,30.00120005,120316,,,,,,,
,,,,,,3.990286458,2.4189,space,0.2419,0,33,33,19,1,20,image/20.jpg,0,0,,R_1FQhiEgg2BqpONz,2,2024-04-16_16h21.36.150,face trait task,2021.2.3,MacIntel,30.00120005,120316,,,,,,,
,,,,,,2.756197917,1.9674,space,0.3169,0,34,34,9,1,10,image/10.jpg,0,0,,R_1FQhiEgg2BqpONz,2,2024-04-16_16h21.36.150,face trait task,2021.2.3,MacIntel,30.00120005,120316,,,,,,,
,,,,,,2.979479167,2.0515,space,0.3476,0,35,35,6,1,7,image/7.jpg,0,0,,R_1FQhiEgg2BqpONz,2,2024-04-16_16h21.36.150,face trait task,2021.2.3,MacIntel,30.00120005,120316,,,,,,,
,,,,,,3.436510417,2.1526,space,0.4569,0,36,36,16,1,17,image/17.jpg,0,0,,R_1FQhiEgg2BqpONz,2,2024-04-16_16h21.36.150,face trait task,2021.2.3,MacIntel,30.00120005,120316,,,,,,,
,,,,,,3.905026042,1.7174,space,1.0022,0,37,37,33,1,34,image/34.jpg,0,0,,R_1FQhiEgg2BqpONz,2,2024-04-16_16h21.36.150,face trait task,2021.2.3,MacIntel,30.00120005,120316,,,,,,,
,,,,,,2.268619792,1.5192,space,0.4521,0,38,38,51,1,53,image/53.jpg,1,4,Please drag the slider to around 4 to indicate that you are paying attention,R_1FQhiEgg2BqpONz,2,2024-04-16_16h21.36.150,face trait task,2021.2.3,MacIntel,30.00120005,120316,,,,,,,
,,,,,,4.479661458,3.9788,space,0.3506,0,39,39,12,1,13,image/13.jpg,0,0,,R_1FQhiEgg2BqpONz,2,2024-04-16_16h21.36.150,face trait task,2021.2.3,MacIntel,30.00120005,120316,,,,,,,
,,,,,,4.767057292,1.1686,space,1.0058,0,40,40,24,1,25,image/25.jpg,0,0,,R_1FQhiEgg2BqpONz,2,2024-04-16_16h21.36.150,face trait task,2021.2.3,MacIntel,30.00120005,120316,,,,,,,
,,,,,,2.007786458,2.9009,space,0.4253,0,41,41,49,1,50,image/50.jpg,0,0,,R_1FQhiEgg2BqpONz,2,2024-04-16_16h21.36.150,face trait task,2021.2.3,MacIntel,30.00120005,120316,,,,,,,
,,,,,,3.698776042,2.3507,space,0.6348,0,42,42,1,1,2,image/2.jpg,0,0,,R_1FQhiEgg2BqpONz,2,2024-04-16_16h21.36.150,face trait task,2021.2.3,MacIntel,30.00120005,120316,,,,,,,
,,,,,,2.105651042,2.2016,space,0.9899,0,43,43,28,1,29,image/29.jpg,0,0,,R_1FQhiEgg2BqpONz,2,2024-04-16_16h21.36.150,face trait task,2021.2.3,MacIntel,30.00120005,120316,,,,,,,
,,,,,,4.901432292,2.4859,space,0.5247,0,44,44,20,1,21,image/21.jpg,0,0,,R_1FQhiEgg2BqpONz,2,2024-04-16_16h21.36.150,face trait task,2021.2.3,MacIntel,30.00120005,120316,,,,,,,
,,,,,,3.011901042,2.7199,space,1.0233,0,45,45,38,1,39,image/39.jpg,0,0,,R_1FQhiEgg2BqpONz,2,2024-04-16_16h21.36.150,face trait task,2021.2.3,MacIntel,30.00120005,120316,,,,,,,
,,,,,,1.953515625,1.4195,space,0.3857,0,46,46,40,1,41,image/41.jpg,0,0,,R_1FQhiEgg2BqpONz,2,2024-04-16_16h21.36.150,face trait task,2021.2.3,MacIntel,30.00120005,120316,,,,,,,
,,,,,,3.51328125,1.8533,space,0.5011,0,47,47,18,1,19,image/19.jpg,0,0,,R_1FQhiEgg2BqpONz,2,2024-04-16_16h21.36.150,face trait task,2021.2.3,MacIntel,30.00120005,120316,,,,,,,
,,,,,,2.9403125,1.8032,space,0.4028,0,48,48,47,1,48,image/48.jpg,0,0,,R_1FQhiEgg2BqpONz,2,2024-04-16_16h21.36.150,face trait task,2021.2.3,MacIntel,30.00120005,120316,,,,,,,
,,,,,,3.474635417,2.1854,space,0.4734,0,49,49,32,1,33,image/33.jpg,0,0,,R_1FQhiEgg2BqpONz,2,2024-04-16_16h21.36.150,face trait task,2021.2.3,MacIntel,30.00120005,120316,,,,,,,
,,,,,,3.0128125,1.3359,space,0.6516,0,50,50,37,1,38,image/38.jpg,0,0,,R_1FQhiEgg2BqpONz,2,2024-04-16_16h21.36.150,face trait task,2021.2.3,MacIntel,30.00120005,120316,,,,,,,
,,,,,,1.935625,1.8686,space,0.437,0,51,51,48,1,49,image/49.jpg,0,0,,R_1FQhiEgg2BqpONz,2,2024-04-16_16h21.36.150,face trait task,2021.2.3,MacIntel,30.00120005,120316,,,,,,,
,,,,,,3.518541667,3.0704,space,1.1443,0,52,52,46,1,47,image/47.jpg,0,0,,R_1FQhiEgg2BqpONz,2,2024-04-16_16h21.36.150,face trait task,2021.2.3,MacIntel,30.00120005,120316,,,,,,,
,,,,,,,,,,,,,,,,,,,,R_1FQhiEgg2BqpONz,2,2024-04-16_16h21.36.150,face trait task,2021.2.3,MacIntel,30.00120005,120316,0,3,3,2,1,2,trustworthy.png
