chooserow,ParID,pre_instru_resp_2.keys,pre_instru_resp_2.rt,pre_instru_resp_3.keys,pre_instru_resp_3.rt,pre_instru_resp_9.keys,pre_instru_resp_9.rt,pre_instru_resp_8.keys,pre_instru_resp_8.rt,pre_instru_resp_4.keys,pre_instru_resp_4.rt,pre_instru_resp_5.keys,pre_instru_resp_5.rt,pre_instru_resp_6.keys,pre_instru_resp_6.rt,key_resp_3.keys,key_resp_3.rt,key_resp_4.keys,key_resp_4.rt,key_resp_5.keys,key_resp_5.rt,key_resp_6.keys,key_resp_6.rt,key_resp_7.keys,key_resp_7.rt,trials_2.thisRepN,trials_2.thisTrialN,trials_2.thisN,trials_2.thisIndex,trials_2.ran,participant,session,date,expName,psychopyVersion,OS,frameRate,SONAid,pre_instru_resp.keys,pre_instru_resp.rt,clicked,judge_2.x,judge_2.y,judge_2.leftButton,judge_2.midButton,judge_2.rightButton,trials.thisRepN,trials.thisTrialN,trials.thisN,trials.thisIndex,trials.ran,prac_answer,prac_dot_sti,dotlefttext,dotrighttext,judge_2.clicked_name,prac_acc,judge.x,judge.y,judge.leftButton,judge.midButton,judge.rightButton,judge.clicked_name,clicked_guilt,slider_guilt.response,slider_guilt.rt,key_guilt.keys,share_slider.response,share_slider.rt,key_share.keys,slider_apology.response,slider_apology.rt,key_apology.keys,slider_hide.response,slider_hide.rt,slider_forgiveness.response,slider_forgiveness.rt,key_forgiveness.keys,key_forgiveness.rt,slider_mad.response,slider_mad.rt,trialseq.thisRepN,trialseq.thisTrialN,trialseq.thisN,trialseq.thisIndex,trialseq.ran,type_trial,stipic,DV,picture,answer,number,key_guilt.rt,key_apology.rt,key_share.rt
"[87,100,179,183,79,96,198,141,139,126,178,152,73,7,127,167,53,145,15,49,161,166,136,116,58,172,92,28,68,188,131,114,61,103,197,184,151,90,39,109,66,77]",R_1FEbkzkWgC4zflT,space,2.999,space,3.172,space,11.014,space,32.162,space,34.14,space,14.869,space,17.357,1,62.169,3,18.413,3,6.263,2,7.951,2,3.699,0,0,0,0,1,R_1FEbkzkWgC4zflT,1,2024-04-14_14h52.19.552,interaction task,2021.2.3,MacIntel,29.41176471,120351,,,,,,,,,,,,,,,,,,,,,,,,,,,,,,,,,,,,,,,,,,,,,,,,,,,,,,,,,
,,,,space,3.405,space,9.525,space,1.796,space,0.542,space,14.342,space,5.167,3,2.892,1,2.353,3,2.019,2,2.425,2,1.093,1,0,1,0,1,R_1FEbkzkWgC4zflT,1,2024-04-14_14h52.19.552,interaction task,2021.2.3,MacIntel,29.41176471,120351,,,,,,,,,,,,,,,,,,,,,,,,,,,,,,,,,,,,,,,,,,,,,,,,,,,,,,,,,
,,,,,,,,,,,,,,,,,,,,,,,,,,,,,,,R_1FEbkzkWgC4zflT,1,2024-04-14_14h52.19.552,interaction task,2021.2.3,MacIntel,29.41176471,120351,space,4.126,[],0.230555556,-0.355555556,0,0,0,0,0,0,2,1,RightButton_2,11dot2.png,Smaller,Greater,,,,,,,,,,,,,,,,,,,,,,,,,,,,,,,,,,,,,,,,
,,,,,,,,,,,,,,,,,,,,,,,,,,,,,,,R_1FEbkzkWgC4zflT,1,2024-04-14_14h52.19.552,interaction task,2021.2.3,MacIntel,29.41176471,120351,,,"[""LeftButton_2""]",-0.290277778,-0.333333333,1,0,0,0,1,1,1,1,RightButton_2,9dot2.png,Greater,Smaller,LeftButton_2,,,,,,,,,,,,,,,,,,,,,,,,,,,,,,,,,,,,,,,
,,,,,,,,,,,,,,,,,,,,,,,,,,,,,,,R_1FEbkzkWgC4zflT,1,2024-04-14_14h52.19.552,interaction task,2021.2.3,MacIntel,29.41176471,120351,,,"[""LeftButton_2""]",-0.252777778,-0.308888889,1,0,0,0,2,2,0,1,RightButton_2,11dot2.png,Smaller,Greater,LeftButton_2,,,,,,,,,,,,,,,,,,,,,,,,,,,,,,,,,,,,,,,
,,,,,,,,,,,,,,,,,,,,,,,,,,,,,,,R_1FEbkzkWgC4zflT,1,2024-04-14_14h52.19.552,interaction task,2021.2.3,MacIntel,29.41176471,120351,,,,,,,,,,,,,,,,Greater,Smaller,,0,0.2625,-0.495555556,1,0,0,RightButton,"[""RightButton""]",,,,,,,,,,,,99.94388328,6.433,space,1.435,0.19640853,12.866,0,0,0,0,1,1,both_wrong.png,3,RandomDot17.png,No answer,21,,,
,,,,,,,,,,,,,,,,,,,,,,,,,,,,,,,R_1FEbkzkWgC4zflT,1,2024-04-14_14h52.19.552,interaction task,2021.2.3,MacIntel,29.41176471,120351,,,,,,,,,,,,,,,,Greater,Smaller,,,-0.294444444,-0.491111111,1,0,0,LeftButton,"[""LeftButton""]",22,8.186,space,,,,,,,,,,,,,,,0,1,1,1,1,2,only_sub_right.png,0,RandomDot33.png,No answer,21,3.626,,
,,,,,,,,,,,,,,,,,,,,,,,,,,,,,,,R_1FEbkzkWgC4zflT,1,2024-04-14_14h52.19.552,interaction task,2021.2.3,MacIntel,29.41176471,120351,,,,,,,,,,,,,,,,Smaller,Greater,,,0.309722222,-0.486666667,1,0,0,RightButton,"[""RightButton""]",,,,,,,45,5.279,space,20,9.012,,,,,,,0,2,2,2,1,3,only_sub_wrong.png,2,RandomDot15.png,No answer,20,,1.625,
,,,,,,,,,,,,,,,,,,,,,,,,,,,,,,,R_1FEbkzkWgC4zflT,1,2024-04-14_14h52.19.552,interaction task,2021.2.3,MacIntel,29.41176471,120351,,,,,,,,,,,,,,,,Greater,Smaller,,,0.280555556,-0.515555556,1,0,0,RightButton,"[""RightButton""]",,,,,,,,,,,,50.70145903,5.628,space,1.002,53.64758698,8.461,0,3,3,3,1,3,only_sub_wrong.png,3,RandomDot17.png,No answer,19,,,
,,,,,,,,,,,,,,,,,,,,,,,,,,,,,,,R_1FEbkzkWgC4zflT,1,2024-04-14_14h52.19.552,interaction task,2021.2.3,MacIntel,29.41176471,120351,,,,,,,,,,,,,,,,Smaller,Greater,,,0.269444444,-0.508888889,1,0,0,RightButton,"[""RightButton""]",,,,,,,20,5.945,space,0,11.112,,,,,,,0,4,4,4,1,1,both_wrong.png,2,RandomDot24.png,No answer,21,,2.928,
,,,,,,,,,,,,,,,,,,,,,,,,,,,,,,,R_1FEbkzkWgC4zflT,1,2024-04-14_14h52.19.552,interaction task,2021.2.3,MacIntel,29.41176471,120351,,,,,,,,,,,,,,,,Greater,Smaller,,,0.331944444,-0.506666667,1,0,0,RightButton,"[""RightButton""]",30,6.119,space,,,,,,,,,,,,,,,0,5,5,5,1,2,only_sub_right.png,0,RandomDot26.png,No answer,19,0.494,,
,,,,,,,,,,,,,,,,,,,,,,,,,,,,,,,R_1FEbkzkWgC4zflT,1,2024-04-14_14h52.19.552,interaction task,2021.2.3,MacIntel,29.41176471,120351,,,,,,,,,,,,,,,,Greater,Smaller,,,-0.305555556,-0.508888889,1,0,0,LeftButton,"[""LeftButton""]",,,,,,,,,,,,,,,,,,0,6,6,6,1,5,both_right.png,10,RandomDot42.png,RightButton,20,,,
,,,,,,,,,,,,,,,,,,,,,,,,,,,,,,,R_1FEbkzkWgC4zflT,1,2024-04-14_14h52.19.552,interaction task,2021.2.3,MacIntel,29.41176471,120351,,,,,,,,,,,,,,,,Smaller,Greater,,,0.266666667,-0.495555556,1,0,0,RightButton,"[""RightButton""]",,,,,,,,,,,,99.94388328,9.927,space,5.566,0,19.11,0,7,7,7,1,2,only_sub_right.png,3,RandomDot7.png,No answer,20,,,
,,,,,,,,,,,,,,,,,,,,,,,,,,,,,,,R_1FEbkzkWgC4zflT,1,2024-04-14_14h52.19.552,interaction task,2021.2.3,MacIntel,29.41176471,120351,,,,,,,,,,,,,,,,Smaller,Greater,,,0.269444444,-0.506666667,1,0,0,RightButton,"[""RightButton""]",,,,,,,,,,,,100,2.743,space,1.116,0,4.142,0,8,8,8,1,2,only_sub_right.png,3,RandomDot30.png,No answer,20,,,
,,,,,,,,,,,,,,,,,,,,,,,,,,,,,,,R_1FEbkzkWgC4zflT,1,2024-04-14_14h52.19.552,interaction task,2021.2.3,MacIntel,29.41176471,120351,,,,,,,,,,,,,,,,Smaller,Greater,,,0.298611111,-0.542222222,1,0,0,RightButton,"[""RightButton""]",,,,,,,5,3.58,space,0,6.097,,,,,,,0,9,9,9,1,2,only_sub_right.png,2,RandomDot34.png,No answer,20,,0.765,
,,,,,,,,,,,,,,,,,,,,,,,,,,,,,,,R_1FEbkzkWgC4zflT,1,2024-04-14_14h52.19.552,interaction task,2021.2.3,MacIntel,29.41176471,120351,,,,,,,,,,,,,,,,Smaller,Greater,,,-0.290277778,-0.528888889,1,0,0,LeftButton,"[""LeftButton""]",,,,,,,40,3.381,space,1,7.032,,,,,,,0,10,10,10,1,3,only_sub_wrong.png,2,RandomDot22.png,No answer,19,,2.357,
,,,,,,,,,,,,,,,,,,,,,,,,,,,,,,,R_1FEbkzkWgC4zflT,1,2024-04-14_14h52.19.552,interaction task,2021.2.3,MacIntel,29.41176471,120351,,,,,,,,,,,,,,,,Smaller,Greater,,,0.254166667,-0.48,1,0,0,RightButton,"[""RightButton""]",40,4.202,space,,,,,,,,,,,,,,,0,11,11,11,1,3,only_sub_wrong.png,0,RandomDot9.png,No answer,19,0.839,,
,,,,,,,,,,,,,,,,,,,,,,,,,,,,,,,R_1FEbkzkWgC4zflT,1,2024-04-14_14h52.19.552,interaction task,2021.2.3,MacIntel,29.41176471,120351,,,,,,,,,,,,,,,,Greater,Smaller,,,0.298611111,-0.515555556,1,0,0,RightButton,"[""RightButton""]",,,,,,,20,3.695,space,0,6.978,,,,,,,0,12,12,12,1,1,both_wrong.png,2,RandomDot24.png,No answer,19,,0.649,
,,,,,,,,,,,,,,,,,,,,,,,,,,,,,,,R_1FEbkzkWgC4zflT,1,2024-04-14_14h52.19.552,interaction task,2021.2.3,MacIntel,29.41176471,120351,,,,,,,,,,,,,,,,Smaller,Greater,,,-0.225,-0.515555556,1,0,0,LeftButton,"[""LeftButton""]",,,,,,,,,,,,,,,,,,0,13,13,13,1,0,both_right.png,0,RandomDot27.png,No answer,19,,,
,,,,,,,,,,,,,,,,,,,,,,,,,,,,,,,R_1FEbkzkWgC4zflT,1,2024-04-14_14h52.19.552,interaction task,2021.2.3,MacIntel,29.41176471,120351,,,,,,,,,,,,,,,,Smaller,Greater,,,-0.288888889,-0.495555556,1,0,0,LeftButton,"[""LeftButton""]",,,,,,,0,3.348,space,0,5.663,,,,,,,0,14,14,14,1,2,only_sub_right.png,2,RandomDot22.png,No answer,19,,0.539,
,,,,,,,,,,,,,,,,,,,,,,,,,,,,,,,R_1FEbkzkWgC4zflT,1,2024-04-14_14h52.19.552,interaction task,2021.2.3,MacIntel,29.41176471,120351,,,,,,,,,,,,,,,,Smaller,Greater,,,-0.288888889,-0.48,1,0,0,LeftButton,"[""LeftButton""]",,,,4.986111111,8.516,space,,,,,,,,,,,,0,15,15,15,1,3,only_sub_wrong.png,1,RandomDot22.png,No answer,20,,,2.209
,,,,,,,,,,,,,,,,,,,,,,,,,,,,,,,R_1FEbkzkWgC4zflT,1,2024-04-14_14h52.19.552,interaction task,2021.2.3,MacIntel,29.41176471,120351,,,,,,,,,,,,,,,,Greater,Smaller,,,0.311111111,-0.531111111,1,0,0,RightButton,"[""RightButton""]",10,4.503,space,,,,,,,,,,,,,,,0,16,16,16,1,1,both_wrong.png,0,RandomDot32.png,No answer,19,0.769,,
,,,,,,,,,,,,,,,,,,,,,,,,,,,,,,,R_1FEbkzkWgC4zflT,1,2024-04-14_14h52.19.552,interaction task,2021.2.3,MacIntel,29.41176471,120351,,,,,,,,,,,,,,,,Greater,Smaller,,,0.288888889,-0.504444444,1,0,0,RightButton,"[""RightButton""]",59,3.203,space,,,,,,,,,,,,,,,0,17,17,17,1,3,only_sub_wrong.png,0,RandomDot15.png,No answer,20,1.877,,
,,,,,,,,,,,,,,,,,,,,,,,,,,,,,,,R_1FEbkzkWgC4zflT,1,2024-04-14_14h52.19.552,interaction task,2021.2.3,MacIntel,29.41176471,120351,,,,,,,,,,,,,,,,Greater,Smaller,,,0.319444444,-0.497777778,1,0,0,RightButton,"[""RightButton""]",,,,,,,,,,,,,,,,,,0,18,18,18,1,0,both_right.png,1,RandomDot35.png,No answer,21,,,
,,,,,,,,,,,,,,,,,,,,,,,,,,,,,,,R_1FEbkzkWgC4zflT,1,2024-04-14_14h52.19.552,interaction task,2021.2.3,MacIntel,29.41176471,120351,,,,,,,,,,,,,,,,Greater,Smaller,,,0.3,-0.542222222,1,0,0,RightButton,"[""RightButton""]",10,3.985,space,,,,,,,,,,,,,,,0,19,19,19,1,1,both_wrong.png,0,RandomDot16.png,No answer,19,0.52,,
,,,,,,,,,,,,,,,,,,,,,,,,,,,,,,,R_1FEbkzkWgC4zflT,1,2024-04-14_14h52.19.552,interaction task,2021.2.3,MacIntel,29.41176471,120351,,,,,,,,,,,,,,,,Greater,Smaller,,,0.280555556,-0.491111111,1,0,0,RightButton,"[""RightButton""]",,,,4.986111111,3.882,space,,,,,,,,,,,,0,20,20,20,1,3,only_sub_wrong.png,1,RandomDot36.png,No answer,19,,,0.902
,,,,,,,,,,,,,,,,,,,,,,,,,,,,,,,R_1FEbkzkWgC4zflT,1,2024-04-14_14h52.19.552,interaction task,2021.2.3,MacIntel,29.41176471,120351,,,,,,,,,,,,,,,,Smaller,Greater,,,-0.316666667,-0.5,1,0,0,LeftButton,"[""LeftButton""]",,,,4.993055556,2.433,space,,,,,,,,,,,,0,21,21,21,1,3,only_sub_wrong.png,1,RandomDot15.png,No answer,20,,,0.616
,,,,,,,,,,,,,,,,,,,,,,,,,,,,,,,R_1FEbkzkWgC4zflT,1,2024-04-14_14h52.19.552,interaction task,2021.2.3,MacIntel,29.41176471,120351,,,,,,,,,,,,,,,,Greater,Smaller,,,0.276388889,-0.484444444,1,0,0,RightButton,"[""RightButton""]",,,,,,,,,,,,100,8.362,space,0.463,0,9.996,0,22,22,22,1,2,only_sub_right.png,3,RandomDot10.png,No answer,19,,,
,,,,,,,,,,,,,,,,,,,,,,,,,,,,,,,R_1FEbkzkWgC4zflT,1,2024-04-14_14h52.19.552,interaction task,2021.2.3,MacIntel,29.41176471,120351,,,,,,,,,,,,,,,,Smaller,Greater,,,0.336111111,-0.511111111,1,0,0,RightButton,"[""RightButton""]",,,,0,5.651,space,,,,,,,,,,,,0,23,23,23,1,2,only_sub_right.png,1,RandomDot25.png,No answer,19,,,0.885
,,,,,,,,,,,,,,,,,,,,,,,,,,,,,,,R_1FEbkzkWgC4zflT,1,2024-04-14_14h52.19.552,interaction task,2021.2.3,MacIntel,29.41176471,120351,,,,,,,,,,,,,,,,Smaller,Greater,,,0.272222222,-0.5,1,0,0,RightButton,"[""RightButton""]",10,3.685,space,,,,,,,,,,,,,,,0,24,24,24,1,1,both_wrong.png,0,RandomDot34.png,No answer,19,0.434,,
,,,,,,,,,,,,,,,,,,,,,,,,,,,,,,,R_1FEbkzkWgC4zflT,1,2024-04-14_14h52.19.552,interaction task,2021.2.3,MacIntel,29.41176471,120351,,,,,,,,,,,,,,,,Greater,Smaller,,,0.313888889,-0.528888889,1,0,0,RightButton,"[""RightButton""]",,,,,,,41,4.514,space,0,6.129,,,,,,,0,25,25,25,1,3,only_sub_wrong.png,2,RandomDot38.png,No answer,21,,0.697,
,,,,,,,,,,,,,,,,,,,,,,,,,,,,,,,R_1FEbkzkWgC4zflT,1,2024-04-14_14h52.19.552,interaction task,2021.2.3,MacIntel,29.41176471,120351,,,,,,,,,,,,,,,,Smaller,Greater,,,-0.248611111,-0.542222222,1,0,0,LeftButton,"[""LeftButton""]",,,,,,,,,,,,83.81032548,9.796,space,0.422,9.87654321,13.33,0,26,26,26,1,1,both_wrong.png,3,RandomDot7.png,No answer,21,,,
,,,,,,,,,,,,,,,,,,,,,,,,,,,,,,,R_1FEbkzkWgC4zflT,1,2024-04-14_14h52.19.552,interaction task,2021.2.3,MacIntel,29.41176471,120351,,,,,,,,,,,,,,,,Greater,Smaller,,,0.275,-0.504444444,1,0,0,RightButton,"[""RightButton""]",,,,,,,,,,,,,,,,,,0,27,27,27,1,0,both_right.png,2,RandomDot23.png,No answer,19,,,
,,,,,,,,,,,,,,,,,,,,,,,,,,,,,,,R_1FEbkzkWgC4zflT,1,2024-04-14_14h52.19.552,interaction task,2021.2.3,MacIntel,29.41176471,120351,,,,,,,,,,,,,,,,Smaller,Greater,,,-0.290277778,-0.526666667,1,0,0,LeftButton,"[""LeftButton""]",,,,2.534722222,3.967,space,,,,,,,,,,,,0,28,28,28,1,1,both_wrong.png,1,RandomDot8.png,No answer,21,,,1.03
,,,,,,,,,,,,,,,,,,,,,,,,,,,,,,,R_1FEbkzkWgC4zflT,1,2024-04-14_14h52.19.552,interaction task,2021.2.3,MacIntel,29.41176471,120351,,,,,,,,,,,,,,,,Smaller,Greater,,,-0.305555556,-0.506666667,1,0,0,LeftButton,"[""LeftButton""]",,,,,,,,,,,,65.01122334,4.761,space,1.938,19.27609428,8.662,0,29,29,29,1,3,only_sub_wrong.png,3,RandomDot22.png,No answer,21,,,
,,,,,,,,,,,,,,,,,,,,,,,,,,,,,,,R_1FEbkzkWgC4zflT,1,2024-04-14_14h52.19.552,interaction task,2021.2.3,MacIntel,29.41176471,120351,,,,,,,,,,,,,,,,Smaller,Greater,,,-0.336111111,-0.531111111,1,0,0,LeftButton,"[""LeftButton""]",,,,,,,0,3.716,space,0,5.398,,,,,,,0,30,30,30,1,2,only_sub_right.png,2,RandomDot5.png,No answer,21,,0.666,
,,,,,,,,,,,,,,,,,,,,,,,,,,,,,,,R_1FEbkzkWgC4zflT,1,2024-04-14_14h52.19.552,interaction task,2021.2.3,MacIntel,29.41176471,120351,,,,,,,,,,,,,,,,Smaller,Greater,,,-0.356944444,-0.5,1,0,0,LeftButton,"[""LeftButton""]",,,,0.951388889,4.617,space,,,,,,,,,,,,0,31,31,31,1,2,only_sub_right.png,1,RandomDot15.png,No answer,19,,,0.973
,,,,,,,,,,,,,,,,,,,,,,,,,,,,,,,R_1FEbkzkWgC4zflT,1,2024-04-14_14h52.19.552,interaction task,2021.2.3,MacIntel,29.41176471,120351,,,,,,,,,,,,,,,,Greater,Smaller,,,0.305555556,-0.513333333,1,0,0,RightButton,"[""RightButton""]",,,,2.506944444,3.184,space,,,,,,,,,,,,0,32,32,32,1,1,both_wrong.png,1,RandomDot23.png,No answer,21,,,0.7
,,,,,,,,,,,,,,,,,,,,,,,,,,,,,,,R_1FEbkzkWgC4zflT,1,2024-04-14_14h52.19.552,interaction task,2021.2.3,MacIntel,29.41176471,120351,,,,,,,,,,,,,,,,Smaller,Greater,,,-0.331944444,-0.533333333,1,0,0,LeftButton,"[""LeftButton""]",6,5.285,space,,,,,,,,,,,,,,,0,33,33,33,1,2,only_sub_right.png,0,RandomDot21.png,No answer,21,0.657,,
,,,,,,,,,,,,,,,,,,,,,,,,,,,,,,,R_1FEbkzkWgC4zflT,1,2024-04-14_14h52.19.552,interaction task,2021.2.3,MacIntel,29.41176471,120351,,,,,,,,,,,,,,,,Smaller,Greater,,,0.329166667,-0.488888889,1,0,0,RightButton,"[""RightButton""]",,,,,,,,,,,,,,,,,,0,34,34,34,1,4,both_right.png,10,RandomDot41.png,RightButton,5,,,
,,,,,,,,,,,,,,,,,,,,,,,,,,,,,,,R_1FEbkzkWgC4zflT,1,2024-04-14_14h52.19.552,interaction task,2021.2.3,MacIntel,29.41176471,120351,,,,,,,,,,,,,,,,Greater,Smaller,,,0.329166667,-0.488888889,1,0,0,RightButton,"[""RightButton""]",,,,,,,,,,,,63.32772166,5.531,space,0.282,6.088664422,6.679,0,35,35,35,1,3,only_sub_wrong.png,3,RandomDot20.png,No answer,20,,,
,,,,,,,,,,,,,,,,,,,,,,,,,,,,,,,R_1FEbkzkWgC4zflT,1,2024-04-14_14h52.19.552,interaction task,2021.2.3,MacIntel,29.41176471,120351,,,,,,,,,,,,,,,,Smaller,Greater,,,-0.316666667,-0.5,1,0,0,LeftButton,"[""LeftButton""]",26,8.452,space,,,,,,,,,,,,,,,0,36,36,36,1,3,only_sub_wrong.png,0,RandomDot26.png,No answer,19,4.082,,
,,,,,,,,,,,,,,,,,,,,,,,,,,,,,,,R_1FEbkzkWgC4zflT,1,2024-04-14_14h52.19.552,interaction task,2021.2.3,MacIntel,29.41176471,120351,,,,,,,,,,,,,,,,Smaller,Greater,,,-0.275,-0.466666667,1,0,0,LeftButton,"[""LeftButton""]",,,,,,,,,,,,68.37822671,2.859,space,0.286,4.826038159,4.492,0,37,37,37,1,1,both_wrong.png,3,RandomDot29.png,No answer,19,,,
,,,,,,,,,,,,,,,,,,,,,,,,,,,,,,,R_1FEbkzkWgC4zflT,1,2024-04-14_14h52.19.552,interaction task,2021.2.3,MacIntel,29.41176471,120351,,,,,,,,,,,,,,,,Greater,Smaller,,,0.336111111,-0.54,1,0,0,RightButton,"[""RightButton""]",,,,,,,,,,,,,,,,,,0,38,38,38,1,0,both_right.png,3,RandomDot17.png,No answer,21,,,
,,,,,,,,,,,,,,,,,,,,,,,,,,,,,,,R_1FEbkzkWgC4zflT,1,2024-04-14_14h52.19.552,interaction task,2021.2.3,MacIntel,29.41176471,120351,,,,,,,,,,,,,,,,Greater,Smaller,,,0.273611111,-0.531111111,1,0,0,RightButton,"[""RightButton""]",,,,1,3.816,space,,,,,,,,,,,,0,39,39,39,1,2,only_sub_right.png,1,RandomDot3.png,No answer,19,,,1.028
,,,,,,,,,,,,,,,,,,,,,,,,,,,,,,,R_1FEbkzkWgC4zflT,1,2024-04-14_14h52.19.552,interaction task,2021.2.3,MacIntel,29.41176471,120351,,,,,,,,,,,,,,,,Smaller,Greater,,,-0.338888889,-0.493333333,1,0,0,LeftButton,"[""LeftButton""]",,,,2.493055556,4.05,space,,,,,,,,,,,,0,40,40,40,1,1,both_wrong.png,1,RandomDot10.png,No answer,19,,,0.604
,,,,,,,,,,,,,,,,,,,,,,,,,,,,,,,R_1FEbkzkWgC4zflT,1,2024-04-14_14h52.19.552,interaction task,2021.2.3,MacIntel,29.41176471,120351,,,,,,,,,,,,,,,,Greater,Smaller,,,0.255555556,-0.497777778,1,0,0,RightButton,"[""RightButton""]",,,,,,,16,3.849,space,0,5.265,,,,,,,0,41,41,41,1,1,both_wrong.png,2,RandomDot13.png,No answer,21,,0.424,
