chooserow,ParID,pre_instru_resp_2.keys,pre_instru_resp_2.rt,pre_instru_resp_3.keys,pre_instru_resp_3.rt,pre_instru_resp_9.keys,pre_instru_resp_9.rt,pre_instru_resp_8.keys,pre_instru_resp_8.rt,pre_instru_resp_4.keys,pre_instru_resp_4.rt,pre_instru_resp_5.keys,pre_instru_resp_5.rt,pre_instru_resp_6.keys,pre_instru_resp_6.rt,key_resp_3.keys,key_resp_3.rt,key_resp_4.keys,key_resp_4.rt,key_resp_5.keys,key_resp_5.rt,key_resp_6.keys,key_resp_6.rt,key_resp_7.keys,key_resp_7.rt,trials_2.thisRepN,trials_2.thisTrialN,trials_2.thisN,trials_2.thisIndex,trials_2.ran,participant,session,date,expName,psychopyVersion,OS,frameRate,SONAid,pre_instru_resp.keys,pre_instru_resp.rt,clicked,judge_2.x,judge_2.y,judge_2.leftButton,judge_2.midButton,judge_2.rightButton,trials.thisRepN,trials.thisTrialN,trials.thisN,trials.thisIndex,trials.ran,prac_answer,prac_dot_sti,dotlefttext,dotrighttext,judge_2.clicked_name,prac_acc,judge.x,judge.y,judge.leftButton,judge.midButton,judge.rightButton,judge.clicked_name,clicked_guilt,slider_guilt.response,slider_guilt.rt,key_guilt.keys,share_slider.response,share_slider.rt,key_share.keys,slider_apology.response,slider_apology.rt,key_apology.keys,slider_hide.response,slider_hide.rt,slider_forgiveness.response,slider_forgiveness.rt,key_forgiveness.keys,key_forgiveness.rt,slider_mad.response,slider_mad.rt,trialseq.thisRepN,trialseq.thisTrialN,trialseq.thisN,trialseq.thisIndex,trialseq.ran,type_trial,stipic,DV,picture,answer,number,key_guilt.rt,key_share.rt,key_apology.rt,incompleteTrials,trials_redo.thisRepN,trials_redo.thisTrialN,trials_redo.thisN,trials_redo.thisIndex,trials_redo.ran
"[139,189,99,155,62,86,181,159,158,89,109,77,125,112,168,63,5,193,128,52,174,43,48,126,202,16,182,142,108,154,70,58,135,104,169,88,164,33,72,101,153,76]",R_1hbYZAAG1H7UZQE,space,1.1841,space,3.7445,space,17.2096,space,19.6454,space,8.0514,space,10.5054,space,5.5047,3,4.0808,1,9.7721,3,8.5558,1,7.9312,3,7.0879,0,0,0,0,1,R_1hbYZAAG1H7UZQE,1,2024-04-09_19h28.57.768,interaction task,2021.2.3,Win32,60.24096386,120627,,,,,,,,,,,,,,,,,,,,,,,,,,,,,,,,,,,,,,,,,,,,,,,,,,,,,,,,,,,,,,,
,,,,space,0.8478,space,1.6503,space,5.345,space,10.5336,space,1.1527,space,1.0684,3,2.0862,1,1.334,3,1.3602,2,0.9348,2,0.4788,1,0,1,0,1,R_1hbYZAAG1H7UZQE,1,2024-04-09_19h28.57.768,interaction task,2021.2.3,Win32,60.24096386,120627,,,,,,,,,,,,,,,,,,,,,,,,,,,,,,,,,,,,,,,,,,,,,,,,,,,,,,,,,,,,,,,
,,,,,,,,,,,,,,,,,,,,,,,,,,,,,,,R_1hbYZAAG1H7UZQE,1,2024-04-09_19h28.57.768,interaction task,2021.2.3,Win32,60.24096386,120627,space,13.9303,[],-0.286969253,-0.263020833,0,0,0,0,0,0,1,1,RightButton_2,9dot2.png,Greater,Smaller,,,,,,,,,,,,,,,,,,,,,,,,,,,,,,,,,,,,,,,,,,,,,,
,,,,,,,,,,,,,,,,,,,,,,,,,,,,,,,R_1hbYZAAG1H7UZQE,1,2024-04-09_19h28.57.768,interaction task,2021.2.3,Win32,60.24096386,120627,,,"[""LeftButton_2""]",-0.210834553,-0.291666667,1,0,0,0,1,1,2,1,RightButton_2,9dot2.png,Greater,Smaller,LeftButton_2,,,,,,,,,,,,,,,,,,,,,,,,,,,,,,,,,,,,,,,,,,,,,
,,,,,,,,,,,,,,,,,,,,,,,,,,,,,,,R_1hbYZAAG1H7UZQE,1,2024-04-09_19h28.57.768,interaction task,2021.2.3,Win32,60.24096386,120627,,,"[""RightButton_2""]",0.231332357,-0.309895833,1,0,0,0,2,2,0,1,LeftButton_2,11dot1.png,Greater,Smaller,RightButton_2,,,,,,,,,,,,,,,,,,,,,,,,,,,,,,,,,,,,,,,,,,,,,
,,,,,,,,,,,,,,,,,,,,,,,,,,,,,,,R_1hbYZAAG1H7UZQE,1,2024-04-09_19h28.57.768,interaction task,2021.2.3,Win32,60.24096386,120627,,,,,,,,,,,,,,,,Smaller,Greater,,0,-0.251830161,-0.486979167,1,0,0,LeftButton,"[""LeftButton""]",,,,,,,,,,,,100,14.801,space,3.9909,0,12.5302,0,0,0,0,1,2,only_sub_right.png,3,RandomDot30.png,No answer,20,,,,,,,,,
,,,,,,,,,,,,,,,,,,,,,,,,,,,,,,,R_1hbYZAAG1H7UZQE,1,2024-04-09_19h28.57.768,interaction task,2021.2.3,Win32,60.24096386,120627,,,,,,,,,,,,,,,,Smaller,Greater,,,0.263543192,-0.5,1,0,0,RightButton,"[""RightButton""]",,,,,,,,,,,,50.73945901,3.0789,space,1.8538,36.68973779,7.3963,0,1,1,1,1,3,only_sub_wrong.png,3,RandomDot38.png,No answer,20,,,,,,,,,
,,,,,,,,,,,,,,,,,,,,,,,,,,,,,,,R_1hbYZAAG1H7UZQE,1,2024-04-09_19h28.57.768,interaction task,2021.2.3,Win32,60.24096386,120627,,,,,,,,,,,,,,,,Greater,Smaller,,,-0.266471449,-0.513020833,1,0,0,LeftButton,"[""LeftButton""]",0,3.7045,space,,,,,,,,,,,,,,,0,2,2,2,1,2,only_sub_right.png,0,RandomDot21.png,No answer,19,1.3615,,,,,,,,
,,,,,,,,,,,,,,,,,,,,,,,,,,,,,,,R_1hbYZAAG1H7UZQE,1,2024-04-09_19h28.57.768,interaction task,2021.2.3,Win32,60.24096386,120627,,,,,,,,,,,,,,,,Smaller,Greater,,,-0.303074671,-0.471354167,1,0,0,LeftButton,"[""LeftButton""]",26,2.7876,space,,,,,,,,,,,,,,,0,3,3,3,1,3,only_sub_wrong.png,0,RandomDot2.png,No answer,20,2.1102,,,,,,,,
,,,,,,,,,,,,,,,,,,,,,,,,,,,,,,,R_1hbYZAAG1H7UZQE,1,2024-04-09_19h28.57.768,interaction task,2021.2.3,Win32,60.24096386,120627,,,,,,,,,,,,,,,,Greater,Smaller,,,0.251830161,-0.510416667,1,0,0,RightButton,"[""RightButton""]",,,,0.040263543,9.2664,space,,,,,,,,,,,,0,4,4,4,1,1,both_wrong.png,1,RandomDot28.png,No answer,21,,3.3595,,,,,,,
,,,,,,,,,,,,,,,,,,,,,,,,,,,,,,,R_1hbYZAAG1H7UZQE,1,2024-04-09_19h28.57.768,interaction task,2021.2.3,Win32,60.24096386,120627,,,,,,,,,,,,,,,,Greater,Smaller,,,-0.330893119,-0.489583333,1,0,0,LeftButton,"[""LeftButton""]",,,,,,,,,,,,76.17684902,3.8918,space,0.5544,23.67525918,5.1936,0,5,5,5,1,1,both_wrong.png,3,RandomDot13.png,No answer,21,,,,,,,,,
,,,,,,,,,,,,,,,,,,,,,,,,,,,,,,,R_1hbYZAAG1H7UZQE,1,2024-04-09_19h28.57.768,interaction task,2021.2.3,Win32,60.24096386,120627,,,,,,,,,,,,,,,,Greater,Smaller,,,-0.307467057,-0.5234375,1,0,0,LeftButton,"[""LeftButton""]",,,,,,,,,,,,43.6406525,1.9718,space,0.7033,45.41535413,3.6564,0,6,6,6,1,3,only_sub_wrong.png,3,RandomDot3.png,No answer,19,,,,,,,,,
,,,,,,,,,,,,,,,,,,,,,,,,,,,,,,,R_1hbYZAAG1H7UZQE,1,2024-04-09_19h28.57.768,interaction task,2021.2.3,Win32,60.24096386,120627,,,,,,,,,,,,,,,,Greater,Smaller,,,0.263543192,-0.5,1,0,0,RightButton,"[""RightButton""]",,,,1.043191801,4.4859,space,,,,,,,,,,,,0,7,7,7,1,3,only_sub_wrong.png,1,RandomDot11.png,No answer,20,,0.7491,,,,,,,
,,,,,,,,,,,,,,,,,,,,,,,,,,,,,,,R_1hbYZAAG1H7UZQE,1,2024-04-09_19h28.57.768,interaction task,2021.2.3,Win32,60.24096386,120627,,,,,,,,,,,,,,,,Greater,Smaller,,,-0.250366032,-0.481770833,1,0,0,LeftButton,"[""LeftButton""]",,,,1.174963397,2.2585,space,,,,,,,,,,,,0,8,8,8,1,3,only_sub_wrong.png,1,RandomDot1.png,No answer,19,,0.6708,,,,,,,
,,,,,,,,,,,,,,,,,,,,,,,,,,,,,,,R_1hbYZAAG1H7UZQE,1,2024-04-09_19h28.57.768,interaction task,2021.2.3,Win32,60.24096386,120627,,,,,,,,,,,,,,,,Greater,Smaller,,,0.282576867,-0.484375,1,0,0,RightButton,"[""RightButton""]",,,,,,,,,,,,34.02768535,1.6001,space,0.7359,50.88735081,2.6758,0,9,9,9,1,1,both_wrong.png,3,RandomDot6.png,No answer,21,,,,,,,,,
,,,,,,,,,,,,,,,,,,,,,,,,,,,,,,,R_1hbYZAAG1H7UZQE,1,2024-04-09_19h28.57.768,interaction task,2021.2.3,Win32,60.24096386,120627,,,,,,,,,,,,,,,,Greater,Smaller,,,-0.286969253,-0.528645833,1,0,0,LeftButton,"[""LeftButton""]",,,,3.078330893,2.1786,space,,,,,,,,,,,,0,10,10,10,1,2,only_sub_right.png,1,RandomDot3.png,No answer,19,,0.8339,,,,,,,
,,,,,,,,,,,,,,,,,,,,,,,,,,,,,,,R_1hbYZAAG1H7UZQE,1,2024-04-09_19h28.57.768,interaction task,2021.2.3,Win32,60.24096386,120627,,,,,,,,,,,,,,,,Greater,Smaller,,,0.295754026,-0.463541667,1,0,0,RightButton,"[""RightButton""]",,,,,,,51,4.0253,space,52,5.8095,,,,,,,0,11,11,11,1,1,both_wrong.png,2,RandomDot13.png,No answer,21,,,0.9146,,,,,,
,,,,,,,,,,,,,,,,,,,,,,,,,,,,,,,R_1hbYZAAG1H7UZQE,1,2024-04-09_19h28.57.768,interaction task,2021.2.3,Win32,60.24096386,120627,,,,,,,,,,,,,,,,Greater,Smaller,,,0.266471449,-0.528645833,1,0,0,RightButton,"[""RightButton""]",,,,,,,35,2.0646,space,29,3.5976,,,,,,,0,12,12,12,1,2,only_sub_right.png,2,RandomDot36.png,No answer,21,,,0.5403,,,,,,
,,,,,,,,,,,,,,,,,,,,,,,,,,,,,,,R_1hbYZAAG1H7UZQE,1,2024-04-09_19h28.57.768,interaction task,2021.2.3,Win32,60.24096386,120627,,,,,,,,,,,,,,,,Greater,Smaller,,,-0.272327965,-0.518229167,1,0,0,LeftButton,"[""LeftButton""]",,,,4.908491947,4.1917,space,,,,,,,,,,,,0,13,13,13,1,2,only_sub_right.png,1,RandomDot32.png,No answer,19,,0.7101,,,,,,,
,,,,,,,,,,,,,,,,,,,,,,,,,,,,,,,R_1hbYZAAG1H7UZQE,1,2024-04-09_19h28.57.768,interaction task,2021.2.3,Win32,60.24096386,120627,,,,,,,,,,,,,,,,Greater,Smaller,,,-0.276720351,-0.494791667,1,0,0,LeftButton,"[""LeftButton""]",,,,,,,56,4.1142,space,50,5.4939,,,,,,,0,14,14,14,1,3,only_sub_wrong.png,2,RandomDot13.png,No answer,21,,,0.4035,,,,,,
,,,,,,,,,,,,,,,,,,,,,,,,,,,,,,,R_1hbYZAAG1H7UZQE,1,2024-04-09_19h28.57.768,interaction task,2021.2.3,Win32,60.24096386,120627,,,,,,,,,,,,,,,,Greater,Smaller,,,-0.229868228,-0.526041667,1,0,0,LeftButton,"[""LeftButton""]",,,,4.967057101,4.3449,space,,,,,,,,,,,,0,15,15,15,1,1,both_wrong.png,1,RandomDot27.png,No answer,19,,1.1857,,,,,,,
,,,,,,,,,,,,,,,,,,,,,,,,,,,,,,,R_1hbYZAAG1H7UZQE,1,2024-04-09_19h28.57.768,interaction task,2021.2.3,Win32,60.24096386,120627,,,,,,,,,,,,,,,,Greater,Smaller,,,-0.226939971,-0.502604167,1,0,0,LeftButton,"[""LeftButton""]",,,,,,,,,,,,,,,,,,0,16,16,16,1,0,both_right.png,0,RandomDot2.png,No answer,19,,,,,,,,,
,,,,,,,,,,,,,,,,,,,,,,,,,,,,,,,R_1hbYZAAG1H7UZQE,1,2024-04-09_19h28.57.768,interaction task,2021.2.3,Win32,60.24096386,120627,,,,,,,,,,,,,,,,Greater,Smaller,,,-0.300146413,-0.479166667,1,0,0,LeftButton,"[""LeftButton""]",,,,,,,,,,,,,,,,,,0,17,17,17,1,4,both_right.png,10,RandomDot41.png,LeftButton,5,,,,,,,,,
,,,,,,,,,,,,,,,,,,,,,,,,,,,,,,,R_1hbYZAAG1H7UZQE,1,2024-04-09_19h28.57.768,interaction task,2021.2.3,Win32,60.24096386,120627,,,,,,,,,,,,,,,,Smaller,Greater,,,-0.229868228,-0.541666667,1,0,0,LeftButton,"[""LeftButton""]",,,,,,,32,1.9968,space,24,4.0597,,,,,,,0,18,18,18,1,2,only_sub_right.png,2,RandomDot22.png,No answer,20,,,0.6755,,,,,,
,,,,,,,,,,,,,,,,,,,,,,,,,,,,,,,R_1hbYZAAG1H7UZQE,1,2024-04-09_19h28.57.768,interaction task,2021.2.3,Win32,60.24096386,120627,,,,,,,,,,,,,,,,Greater,Smaller,,,-0.260614934,-0.536458333,1,0,0,LeftButton,"[""LeftButton""]",50,1.7149,space,,,,,,,,,,,,,,,0,19,19,19,1,1,both_wrong.png,0,RandomDot10.png,No answer,20,0.2375,,,,,,,,
,,,,,,,,,,,,,,,,,,,,,,,,,,,,,,,R_1hbYZAAG1H7UZQE,1,2024-04-09_19h28.57.768,interaction task,2021.2.3,Win32,60.24096386,120627,,,,,,,,,,,,,,,,Smaller,Greater,,,0.313323572,-0.458333333,1,0,0,RightButton,"[""RightButton""]",,,,,,,67,1.8599,space,47,2.9554,,,,,,,0,20,20,20,1,3,only_sub_wrong.png,2,RandomDot15.png,No answer,21,,,0.479,,,,,,
,,,,,,,,,,,,,,,,,,,,,,,,,,,,,,,R_1hbYZAAG1H7UZQE,1,2024-04-09_19h28.57.768,interaction task,2021.2.3,Win32,60.24096386,120627,,,,,,,,,,,,,,,,Smaller,Greater,,,-0.244509517,-0.502604167,1,0,0,LeftButton,"[""LeftButton""]",,,,,,,,,,,,,,,,,,0,21,21,21,1,0,both_right.png,3,RandomDot3.png,No answer,21,,,,,,,,,
,,,,,,,,,,,,,,,,,,,,,,,,,,,,,,,R_1hbYZAAG1H7UZQE,1,2024-04-09_19h28.57.768,interaction task,2021.2.3,Win32,60.24096386,120627,,,,,,,,,,,,,,,,Greater,Smaller,,,0.303074671,-0.486979167,1,0,0,RightButton,"[""RightButton""]",99,2.1288,space,,,,,,,,,,,,,,,0,22,22,22,1,1,both_wrong.png,0,RandomDot24.png,No answer,21,0.5817,,,,,,,,
,,,,,,,,,,,,,,,,,,,,,,,,,,,,,,,R_1hbYZAAG1H7UZQE,1,2024-04-09_19h28.57.768,interaction task,2021.2.3,Win32,60.24096386,120627,,,,,,,,,,,,,,,,Smaller,Greater,,,0.301610542,-0.455729167,1,0,0,RightButton,"[""RightButton""]",,,,,,,67,1.5447,space,65,2.87,,,,,,,0,23,23,23,1,2,only_sub_right.png,2,RandomDot34.png,No answer,20,,,0.3922,,,,,,
,,,,,,,,,,,,,,,,,,,,,,,,,,,,,,,R_1hbYZAAG1H7UZQE,1,2024-04-09_19h28.57.768,interaction task,2021.2.3,Win32,60.24096386,120627,,,,,,,,,,,,,,,,Smaller,Greater,,,-0.213762811,-0.513020833,1,0,0,LeftButton,"[""LeftButton""]",,,,,,,,,,,,,,,,,,0,24,24,24,1,5,both_right.png,10,RandomDot42.png,LeftButton,21,,,,,,,,,
,,,,,,,,,,,,,,,,,,,,,,,,,,,,,,,R_1hbYZAAG1H7UZQE,1,2024-04-09_19h28.57.768,interaction task,2021.2.3,Win32,60.24096386,120627,,,,,,,,,,,,,,,,Greater,Smaller,,,-0.213762811,-0.513020833,0,0,0,,[],,,,,,,,,,,,,,,,,,0,25,25,25,1,0,both_right.png,1,RandomDot12.png,No answer,21,,,,16,,,,,
,,,,,,,,,,,,,,,,,,,,,,,,,,,,,,,R_1hbYZAAG1H7UZQE,1,2024-04-09_19h28.57.768,interaction task,2021.2.3,Win32,60.24096386,120627,,,,,,,,,,,,,,,,Greater,Smaller,,,0.229868228,-0.46875,1,0,0,RightButton,"[""RightButton""]",,,,,,,,,,,,53.54940326,1.5254,space,1.5693,55.17621308,3.8407,0,26,26,26,1,3,only_sub_wrong.png,3,RandomDot8.png,No answer,21,,,,,,,,,
,,,,,,,,,,,,,,,,,,,,,,,,,,,,,,,R_1hbYZAAG1H7UZQE,1,2024-04-09_19h28.57.768,interaction task,2021.2.3,Win32,60.24096386,120627,,,,,,,,,,,,,,,,Smaller,Greater,,,0.333821376,-0.526041667,1,0,0,RightButton,"[""RightButton""]",,,,,,,,,,,,50.59156721,2.6875,space,1.5432,34.32346895,4.2961,0,27,27,27,1,2,only_sub_right.png,3,RandomDot18.png,No answer,20,,,,,,,,,
,,,,,,,,,,,,,,,,,,,,,,,,,,,,,,,R_1hbYZAAG1H7UZQE,1,2024-04-09_19h28.57.768,interaction task,2021.2.3,Win32,60.24096386,120627,,,,,,,,,,,,,,,,Greater,Smaller,,,-0.297218155,-0.528645833,1,0,0,LeftButton,"[""LeftButton""]",,,,5,4.5049,space,,,,,,,,,,,,0,28,28,28,1,2,only_sub_right.png,1,RandomDot3.png,No answer,20,,1.552,,,,,,,
,,,,,,,,,,,,,,,,,,,,,,,,,,,,,,,R_1hbYZAAG1H7UZQE,1,2024-04-09_19h28.57.768,interaction task,2021.2.3,Win32,60.24096386,120627,,,,,,,,,,,,,,,,Smaller,Greater,,,-0.257686676,-0.4921875,1,0,0,LeftButton,"[""LeftButton""]",97,2.4969,space,,,,,,,,,,,,,,,0,29,29,29,1,3,only_sub_wrong.png,0,RandomDot25.png,No answer,21,0.8868,,,,,,,,
,,,,,,,,,,,,,,,,,,,,,,,,,,,,,,,R_1hbYZAAG1H7UZQE,1,2024-04-09_19h28.57.768,interaction task,2021.2.3,Win32,60.24096386,120627,,,,,,,,,,,,,,,,Smaller,Greater,,,0.297218155,-0.520833333,1,0,0,RightButton,"[""RightButton""]",,,,4.989019034,3.8192,space,,,,,,,,,,,,0,30,30,30,1,1,both_wrong.png,1,RandomDot29.png,No answer,19,,0.9252,,,,,,,
,,,,,,,,,,,,,,,,,,,,,,,,,,,,,,,R_1hbYZAAG1H7UZQE,1,2024-04-09_19h28.57.768,interaction task,2021.2.3,Win32,60.24096386,120627,,,,,,,,,,,,,,,,Smaller,Greater,,,0.266471449,-0.520833333,1,0,0,RightButton,"[""RightButton""]",100,2.6721,space,,,,,,,,,,,,,,,0,31,31,31,1,1,both_wrong.png,0,RandomDot34.png,No answer,19,0.5888,,,,,,,,
,,,,,,,,,,,,,,,,,,,,,,,,,,,,,,,R_1hbYZAAG1H7UZQE,1,2024-04-09_19h28.57.768,interaction task,2021.2.3,Win32,60.24096386,120627,,,,,,,,,,,,,,,,Greater,Smaller,,,0.300146413,-0.497395833,1,0,0,RightButton,"[""RightButton""]",,,,,,,,,,,,75.58528181,3.0531,space,0.2041,19.97796412,4.6814,0,32,32,32,1,2,only_sub_right.png,3,RandomDot26.png,No answer,20,,,,,,,,,
,,,,,,,,,,,,,,,,,,,,,,,,,,,,,,,R_1hbYZAAG1H7UZQE,1,2024-04-09_19h28.57.768,interaction task,2021.2.3,Win32,60.24096386,120627,,,,,,,,,,,,,,,,Smaller,Greater,,,0.272327965,-0.541666667,1,0,0,RightButton,"[""RightButton""]",91,4.1626,space,,,,,,,,,,,,,,,0,33,33,33,1,2,only_sub_right.png,0,RandomDot29.png,No answer,20,1.034,,,,,,,,
,,,,,,,,,,,,,,,,,,,,,,,,,,,,,,,R_1hbYZAAG1H7UZQE,1,2024-04-09_19h28.57.768,interaction task,2021.2.3,Win32,60.24096386,120627,,,,,,,,,,,,,,,,Greater,Smaller,,,-0.27818448,-0.5390625,1,0,0,LeftButton,"[""LeftButton""]",,,,,,,66,1.9857,space,55,3.3808,,,,,,,0,34,34,34,1,3,only_sub_wrong.png,2,RandomDot1.png,No answer,20,,,0.6035,,,,,,
,,,,,,,,,,,,,,,,,,,,,,,,,,,,,,,R_1hbYZAAG1H7UZQE,1,2024-04-09_19h28.57.768,interaction task,2021.2.3,Win32,60.24096386,120627,,,,,,,,,,,,,,,,Greater,Smaller,,,-0.250366032,-0.46875,1,0,0,LeftButton,"[""LeftButton""]",,,,,,,,,,,,39.94335744,2.9407,space,0.4716,65.82442285,4.5165,0,35,35,35,1,1,both_wrong.png,3,RandomDot30.png,No answer,20,,,,,,,,,
,,,,,,,,,,,,,,,,,,,,,,,,,,,,,,,R_1hbYZAAG1H7UZQE,1,2024-04-09_19h28.57.768,interaction task,2021.2.3,Win32,60.24096386,120627,,,,,,,,,,,,,,,,Smaller,Greater,,,0.197657394,-0.466145833,1,0,0,RightButton,"[""RightButton""]",,,,4.974377745,4.572,space,,,,,,,,,,,,0,36,36,36,1,3,only_sub_wrong.png,1,RandomDot40.png,No answer,19,,2.1735,,,,,,,
,,,,,,,,,,,,,,,,,,,,,,,,,,,,,,,R_1hbYZAAG1H7UZQE,1,2024-04-09_19h28.57.768,interaction task,2021.2.3,Win32,60.24096386,120627,,,,,,,,,,,,,,,,Smaller,Greater,,,0.31625183,-0.5078125,1,0,0,RightButton,"[""RightButton""]",,,,,,,,,,,,,,,,,,0,37,37,37,1,0,both_right.png,2,RandomDot25.png,No answer,20,,,,,,,,,
,,,,,,,,,,,,,,,,,,,,,,,,,,,,,,,R_1hbYZAAG1H7UZQE,1,2024-04-09_19h28.57.768,interaction task,2021.2.3,Win32,60.24096386,120627,,,,,,,,,,,,,,,,Greater,Smaller,,,0.317715959,-0.518229167,1,0,0,RightButton,"[""RightButton""]",,,,,,,99,2.9244,space,99,4.3844,,,,,,,0,38,38,38,1,1,both_wrong.png,2,RandomDot1.png,No answer,21,,,2.255,,,,,,
,,,,,,,,,,,,,,,,,,,,,,,,,,,,,,,R_1hbYZAAG1H7UZQE,1,2024-04-09_19h28.57.768,interaction task,2021.2.3,Win32,60.24096386,120627,,,,,,,,,,,,,,,,Greater,Smaller,,,0.295754026,-0.458333333,1,0,0,RightButton,"[""RightButton""]",99,2.417,space,,,,,,,,,,,,,,,0,39,39,39,1,2,only_sub_right.png,0,RandomDot18.png,No answer,21,0.4102,,,,,,,,
,,,,,,,,,,,,,,,,,,,,,,,,,,,,,,,R_1hbYZAAG1H7UZQE,1,2024-04-09_19h28.57.768,interaction task,2021.2.3,Win32,60.24096386,120627,,,,,,,,,,,,,,,,Smaller,Greater,,,0.295754026,-0.46875,1,0,0,RightButton,"[""RightButton""]",99,1.9942,space,,,,,,,,,,,,,,,0,40,40,40,1,3,only_sub_wrong.png,0,RandomDot25.png,No answer,20,0.3211,,,,,,,,
,,,,,,,,,,,,,,,,,,,,,,,,,,,,,,,R_1hbYZAAG1H7UZQE,1,2024-04-09_19h28.57.768,interaction task,2021.2.3,Win32,60.24096386,120627,,,,,,,,,,,,,,,,Greater,Smaller,,,0.357247438,-0.5,1,0,0,RightButton,"[""RightButton""]",,,,,,,99,3.4801,space,26,5.5486,,,,,,,0,41,41,41,1,1,both_wrong.png,2,RandomDot9.png,No answer,21,,,0.236,,,,,,
,,,,,,,,,,,,,,,,,,,,,,,,,,,,,,,R_1hbYZAAG1H7UZQE,1,2024-04-09_19h28.57.768,interaction task,2021.2.3,Win32,60.24096386,120627,,,,,,,,,,,,,,,,Greater,Smaller,,,-0.238653001,-0.510416667,1,0,0,LeftButton,"[""LeftButton""]",,,,,,,,,,,,,,,,,,,,,,,0,both_right.png,1,RandomDot12.png,No answer,21,,,,,0,0,0,0,1
