key_resp.keys,key_resp.rt,key_resp_4.keys,key_resp_4.rt,slider_face_judge.response,slider_face_judge.rt,key_resp_3.keys,key_resp_3.rt,face_loop.thisRepN,face_loop.thisTrialN,face_loop.thisN,face_loop.thisIndex,face_loop.ran,face_serial,image_name,isCheck,participant,session,date,expName,psychopyVersion,OS,frameRate,SONAid,session.thisRepN,session.thisTrialN,session.thisN,session.thisIndex,session.ran,session_serial,slider_judge_img
space,14.0461,space,4.2508,6.0234375,3.7799,space,1.8859,0,0,0,40,1,41,image/41.jpg,0,R_1hbYZAAG1H7UZQE,2,2024-04-09_19h44.11.628,face trait task,2021.2.3,Win32,60.97560976,SONAid,,,,,,,
,,,,5.0234375,2.9818,space,0.577,0,1,1,21,1,22,image/22.jpg,0,R_1hbYZAAG1H7UZQE,2,2024-04-09_19h44.11.628,face trait task,2021.2.3,Win32,60.97560976,SONAid,,,,,,,
,,,,4.03125,2.5215,space,0.5367,0,2,2,24,1,25,image/25.jpg,0,R_1hbYZAAG1H7UZQE,2,2024-04-09_19h44.11.628,face trait task,2021.2.3,Win32,60.97560976,SONAid,,,,,,,
,,,,5.1171875,1.9096,space,0.8522,0,3,3,43,1,44,image/44.jpg,0,R_1hbYZAAG1H7UZQE,2,2024-04-09_19h44.11.628,face trait task,2021.2.3,Win32,60.97560976,SONAid,,,,,,,
,,,,3.7890625,4.8812,space,3.5023,0,4,4,17,1,18,image/18.jpg,0,R_1hbYZAAG1H7UZQE,2,2024-04-09_19h44.11.628,face trait task,2021.2.3,Win32,60.97560976,SONAid,,,,,,,
,,,,4.7109375,2.6112,space,0.3522,0,5,5,26,1,27,image/27.jpg,0,R_1hbYZAAG1H7UZQE,2,2024-04-09_19h44.11.628,face trait task,2021.2.3,Win32,60.97560976,SONAid,,,,,,,
,,,,1.2421875,3.1139,space,0.6083,0,6,6,7,1,8,image/8.jpg,0,R_1hbYZAAG1H7UZQE,2,2024-04-09_19h44.11.628,face trait task,2021.2.3,Win32,60.97560976,SONAid,,,,,,,
,,,,3.6484375,2.1804,space,0.4174,0,7,7,15,1,16,image/16.jpg,0,R_1hbYZAAG1H7UZQE,2,2024-04-09_19h44.11.628,face trait task,2021.2.3,Win32,60.97560976,SONAid,,,,,,,
,,,,5.125,2.1433,space,0.3142,0,8,8,46,1,47,image/47.jpg,0,R_1hbYZAAG1H7UZQE,2,2024-04-09_19h44.11.628,face trait task,2021.2.3,Win32,60.97560976,SONAid,,,,,,,
,,,,2.625,4.0744,space,0.3466,0,9,9,19,1,20,image/20.jpg,0,R_1hbYZAAG1H7UZQE,2,2024-04-09_19h44.11.628,face trait task,2021.2.3,Win32,60.97560976,SONAid,,,,,,,
,,,,3.953125,4.9403,space,0.2015,0,10,10,31,1,32,image/32.jpg,0,R_1hbYZAAG1H7UZQE,2,2024-04-09_19h44.11.628,face trait task,2021.2.3,Win32,60.97560976,SONAid,,,,,,,
,,,,2.921875,2.6363,space,0.3014,0,11,11,1,1,2,image/2.jpg,0,R_1hbYZAAG1H7UZQE,2,2024-04-09_19h44.11.628,face trait task,2021.2.3,Win32,60.97560976,SONAid,,,,,,,
,,,,6.1640625,2.422,space,0.3031,0,12,12,47,1,48,image/48.jpg,0,R_1hbYZAAG1H7UZQE,2,2024-04-09_19h44.11.628,face trait task,2021.2.3,Win32,60.97560976,SONAid,,,,,,,
,,,,2.2265625,3.0026,space,0.2761,0,13,13,35,1,36,image/36.jpg,0,R_1hbYZAAG1H7UZQE,2,2024-04-09_19h44.11.628,face trait task,2021.2.3,Win32,60.97560976,SONAid,,,,,,,
,,,,4.0546875,2.4854,space,0.2725,0,14,14,33,1,34,image/34.jpg,0,R_1hbYZAAG1H7UZQE,2,2024-04-09_19h44.11.628,face trait task,2021.2.3,Win32,60.97560976,SONAid,,,,,,,
,,,,4.0546875,2.1224,space,0.4534,0,15,15,5,1,6,image/6.jpg,0,R_1hbYZAAG1H7UZQE,2,2024-04-09_19h44.11.628,face trait task,2021.2.3,Win32,60.97560976,SONAid,,,,,,,
,,,,2.703125,3.5377,space,0.2711,0,16,16,49,1,50,image/50.jpg,0,R_1hbYZAAG1H7UZQE,2,2024-04-09_19h44.11.628,face trait task,2021.2.3,Win32,60.97560976,SONAid,,,,,,,
,,,,4.890625,2.5119,space,0.3883,0,17,17,36,1,37,image/37.jpg,0,R_1hbYZAAG1H7UZQE,2,2024-04-09_19h44.11.628,face trait task,2021.2.3,Win32,60.97560976,SONAid,,,,,,,
,,,,2.9609375,2.9761,space,0.3542,0,18,18,39,1,40,image/40.jpg,0,R_1hbYZAAG1H7UZQE,2,2024-04-09_19h44.11.628,face trait task,2021.2.3,Win32,60.97560976,SONAid,,,,,,,
,,,,2.9609375,1.4899,space,0.374,0,19,19,41,1,42,image/42.jpg,0,R_1hbYZAAG1H7UZQE,2,2024-04-09_19h44.11.628,face trait task,2021.2.3,Win32,60.97560976,SONAid,,,,,,,
,,,,4.265625,4.1135,space,2.4748,0,20,20,32,1,33,image/33.jpg,0,R_1hbYZAAG1H7UZQE,2,2024-04-09_19h44.11.628,face trait task,2021.2.3,Win32,60.97560976,SONAid,,,,,,,
,,,,5.734375,2.3761,space,0.3522,0,21,21,16,1,17,image/17.jpg,0,R_1hbYZAAG1H7UZQE,2,2024-04-09_19h44.11.628,face trait task,2021.2.3,Win32,60.97560976,SONAid,,,,,,,
,,,,4.8046875,3.4589,space,0.3316,0,22,22,48,1,49,image/49.jpg,0,R_1hbYZAAG1H7UZQE,2,2024-04-09_19h44.11.628,face trait task,2021.2.3,Win32,60.97560976,SONAid,,,,,,,
,,,,2.4765625,1.9412,space,0.5358,0,23,23,13,1,14,image/14.jpg,0,R_1hbYZAAG1H7UZQE,2,2024-04-09_19h44.11.628,face trait task,2021.2.3,Win32,60.97560976,SONAid,,,,,,,
,,,,3.640625,1.711,space,0.2498,0,24,24,52,1,52,image/52.jpg,1,R_1hbYZAAG1H7UZQE,2,2024-04-09_19h44.11.628,face trait task,2021.2.3,Win32,60.97560976,SONAid,,,,,,,
,,,,3.640625,1.0274,space,0.4856,0,25,25,6,1,7,image/7.jpg,0,R_1hbYZAAG1H7UZQE,2,2024-04-09_19h44.11.628,face trait task,2021.2.3,Win32,60.97560976,SONAid,,,,,,,
,,,,5.859375,1.7218,space,0.2839,0,26,26,30,1,31,image/31.jpg,0,R_1hbYZAAG1H7UZQE,2,2024-04-09_19h44.11.628,face trait task,2021.2.3,Win32,60.97560976,SONAid,,,,,,,
,,,,4.9921875,3.7233,space,3.1993,0,27,27,50,1,61,image/61.jpg,1,R_1hbYZAAG1H7UZQE,2,2024-04-09_19h44.11.628,face trait task,2021.2.3,Win32,60.97560976,SONAid,,,,,,,
,,,,4.4609375,1.9342,space,0.2767,0,28,28,27,1,28,image/28.jpg,0,R_1hbYZAAG1H7UZQE,2,2024-04-09_19h44.11.628,face trait task,2021.2.3,Win32,60.97560976,SONAid,,,,,,,
,,,,5.3828125,2.0553,space,0.2321,0,29,29,45,1,46,image/46.jpg,0,R_1hbYZAAG1H7UZQE,2,2024-04-09_19h44.11.628,face trait task,2021.2.3,Win32,60.97560976,SONAid,,,,,,,
,,,,2.6484375,2.2675,space,0.2256,0,30,30,34,1,35,image/35.jpg,0,R_1hbYZAAG1H7UZQE,2,2024-04-09_19h44.11.628,face trait task,2021.2.3,Win32,60.97560976,SONAid,,,,,,,
,,,,5.4453125,2.7459,space,1.5764,0,31,31,9,1,10,image/10.jpg,0,R_1hbYZAAG1H7UZQE,2,2024-04-09_19h44.11.628,face trait task,2021.2.3,Win32,60.97560976,SONAid,,,,,,,
,,,,4.6171875,1.6777,space,0.2454,0,32,32,2,1,3,image/3.jpg,0,R_1hbYZAAG1H7UZQE,2,2024-04-09_19h44.11.628,face trait task,2021.2.3,Win32,60.97560976,SONAid,,,,,,,
,,,,4.6171875,1.1598,space,0.2851,0,33,33,4,1,5,image/5.jpg,0,R_1hbYZAAG1H7UZQE,2,2024-04-09_19h44.11.628,face trait task,2021.2.3,Win32,60.97560976,SONAid,,,,,,,
,,,,3,3.4849,space,0.1487,0,34,34,22,1,23,image/23.jpg,0,R_1hbYZAAG1H7UZQE,2,2024-04-09_19h44.11.628,face trait task,2021.2.3,Win32,60.97560976,SONAid,,,,,,,
,,,,4.9921875,6.1037,space,0.0627,0,35,35,29,1,30,image/30.jpg,0,R_1hbYZAAG1H7UZQE,2,2024-04-09_19h44.11.628,face trait task,2021.2.3,Win32,60.97560976,SONAid,,,,,,,
,,,,4.671875,3.4541,space,0.4196,0,36,36,8,1,9,image/9.jpg,0,R_1hbYZAAG1H7UZQE,2,2024-04-09_19h44.11.628,face trait task,2021.2.3,Win32,60.97560976,SONAid,,,,,,,
,,,,4.9921875,3.4442,space,0.3265,0,37,37,51,1,59,image/59.jpg,1,R_1hbYZAAG1H7UZQE,2,2024-04-09_19h44.11.628,face trait task,2021.2.3,Win32,60.97560976,SONAid,,,,,,,
,,,,3.0703125,2.3727,space,0.4322,0,38,38,44,1,45,image/45.jpg,0,R_1hbYZAAG1H7UZQE,2,2024-04-09_19h44.11.628,face trait task,2021.2.3,Win32,60.97560976,SONAid,,,,,,,
,,,,5.0703125,2.1051,space,0.1224,0,39,39,0,1,1,image/1.jpg,0,R_1hbYZAAG1H7UZQE,2,2024-04-09_19h44.11.628,face trait task,2021.2.3,Win32,60.97560976,SONAid,,,,,,,
,,,,3.9609375,2.5629,space,0.0672,0,40,40,38,1,39,image/39.jpg,0,R_1hbYZAAG1H7UZQE,2,2024-04-09_19h44.11.628,face trait task,2021.2.3,Win32,60.97560976,SONAid,,,,,,,
,,,,3.9609375,3.3758,space,0.1095,0,41,41,25,1,26,image/26.jpg,0,R_1hbYZAAG1H7UZQE,2,2024-04-09_19h44.11.628,face trait task,2021.2.3,Win32,60.97560976,SONAid,,,,,,,
,,,,2.9921875,2.7528,space,0.2838,0,42,42,28,1,29,image/29.jpg,0,R_1hbYZAAG1H7UZQE,2,2024-04-09_19h44.11.628,face trait task,2021.2.3,Win32,60.97560976,SONAid,,,,,,,
,,,,3.921875,2.4023,space,0.1175,0,43,43,10,1,11,image/11.jpg,0,R_1hbYZAAG1H7UZQE,2,2024-04-09_19h44.11.628,face trait task,2021.2.3,Win32,60.97560976,SONAid,,,,,,,
,,,,3.921875,1.597,space,0.3668,0,44,44,23,1,24,image/24.jpg,0,R_1hbYZAAG1H7UZQE,2,2024-04-09_19h44.11.628,face trait task,2021.2.3,Win32,60.97560976,SONAid,,,,,,,
,,,,4.7578125,1.5041,space,0.4516,0,45,45,18,1,19,image/19.jpg,0,R_1hbYZAAG1H7UZQE,2,2024-04-09_19h44.11.628,face trait task,2021.2.3,Win32,60.97560976,SONAid,,,,,,,
,,,,1.0078125,2.9672,space,0.3199,0,46,46,14,1,15,image/15.jpg,0,R_1hbYZAAG1H7UZQE,2,2024-04-09_19h44.11.628,face trait task,2021.2.3,Win32,60.97560976,SONAid,,,,,,,
,,,,2.9375,1.5355,space,0.2529,0,47,47,20,1,21,image/21.jpg,0,R_1hbYZAAG1H7UZQE,2,2024-04-09_19h44.11.628,face trait task,2021.2.3,Win32,60.97560976,SONAid,,,,,,,
,,,,2.9375,1.0741,space,0.263,0,48,48,12,1,13,image/13.jpg,0,R_1hbYZAAG1H7UZQE,2,2024-04-09_19h44.11.628,face trait task,2021.2.3,Win32,60.97560976,SONAid,,,,,,,
,,,,4.7265625,2.257,space,1.3862,0,49,49,37,1,38,image/38.jpg,0,R_1hbYZAAG1H7UZQE,2,2024-04-09_19h44.11.628,face trait task,2021.2.3,Win32,60.97560976,SONAid,,,,,,,
,,,,5.1796875,2.3504,space,0.2407,0,50,50,42,1,43,image/43.jpg,0,R_1hbYZAAG1H7UZQE,2,2024-04-09_19h44.11.628,face trait task,2021.2.3,Win32,60.97560976,SONAid,,,,,,,
,,,,3.9609375,2.4941,space,0.2546,0,51,51,11,1,12,image/12.jpg,0,R_1hbYZAAG1H7UZQE,2,2024-04-09_19h44.11.628,face trait task,2021.2.3,Win32,60.97560976,SONAid,,,,,,,
,,,,4.953125,1.6409,space,0.2511,0,52,52,3,1,4,image/4.jpg,0,R_1hbYZAAG1H7UZQE,2,2024-04-09_19h44.11.628,face trait task,2021.2.3,Win32,60.97560976,SONAid,,,,,,,
,,,,,,,,,,,,,,,,R_1hbYZAAG1H7UZQE,2,2024-04-09_19h44.11.628,face trait task,2021.2.3,Win32,60.97560976,SONAid,0,0,0,0,1,0,critical.png
,,,,4.375,4.3245,space,1.9896,0,0,0,1,1,2,image/2.jpg,0,R_1hbYZAAG1H7UZQE,2,2024-04-09_19h44.11.628,face trait task,2021.2.3,Win32,60.97560976,SONAid,,,,,,,
,,,,2.421875,2.1871,space,0.6046,0,1,1,45,1,46,image/46.jpg,0,R_1hbYZAAG1H7UZQE,2,2024-04-09_19h44.11.628,face trait task,2021.2.3,Win32,60.97560976,SONAid,,,,,,,
,,,,3.1171875,1.7869,space,0.3748,0,2,2,5,1,6,image/6.jpg,0,R_1hbYZAAG1H7UZQE,2,2024-04-09_19h44.11.628,face trait task,2021.2.3,Win32,60.97560976,SONAid,,,,,,,
,,,,5.5859375,2.6702,space,0.5215,0,3,3,7,1,8,image/8.jpg,0,R_1hbYZAAG1H7UZQE,2,2024-04-09_19h44.11.628,face trait task,2021.2.3,Win32,60.97560976,SONAid,,,,,,,
,,,,3.203125,2.6999,space,0.4508,0,4,4,50,1,61,image/61.jpg,1,R_1hbYZAAG1H7UZQE,2,2024-04-09_19h44.11.628,face trait task,2021.2.3,Win32,60.97560976,SONAid,,,,,,,
,,,,3.328125,1.4051,space,0.2944,0,5,5,32,1,33,image/33.jpg,0,R_1hbYZAAG1H7UZQE,2,2024-04-09_19h44.11.628,face trait task,2021.2.3,Win32,60.97560976,SONAid,,,,,,,
,,,,4.0703125,1.8677,space,0.2758,0,6,6,51,1,59,image/59.jpg,1,R_1hbYZAAG1H7UZQE,2,2024-04-09_19h44.11.628,face trait task,2021.2.3,Win32,60.97560976,SONAid,,,,,,,
,,,,3.078125,1.451,space,0.1767,0,7,7,9,1,10,image/10.jpg,0,R_1hbYZAAG1H7UZQE,2,2024-04-09_19h44.11.628,face trait task,2021.2.3,Win32,60.97560976,SONAid,,,,,,,
,,,,3.078125,1.1762,space,0.1778,0,8,8,37,1,38,image/38.jpg,0,R_1hbYZAAG1H7UZQE,2,2024-04-09_19h44.11.628,face trait task,2021.2.3,Win32,60.97560976,SONAid,,,,,,,
,,,,4.8046875,3.1055,space,0.301,0,9,9,6,1,7,image/7.jpg,0,R_1hbYZAAG1H7UZQE,2,2024-04-09_19h44.11.628,face trait task,2021.2.3,Win32,60.97560976,SONAid,,,,,,,
,,,,3.3984375,1.8694,space,0.9313,0,10,10,46,1,47,image/47.jpg,0,R_1hbYZAAG1H7UZQE,2,2024-04-09_19h44.11.628,face trait task,2021.2.3,Win32,60.97560976,SONAid,,,,,,,
,,,,3.3984375,1.2178,space,0.3666,0,11,11,30,1,31,image/31.jpg,0,R_1hbYZAAG1H7UZQE,2,2024-04-09_19h44.11.628,face trait task,2021.2.3,Win32,60.97560976,SONAid,,,,,,,
,,,,6.0546875,1.801,space,0.284,0,12,12,10,1,11,image/11.jpg,0,R_1hbYZAAG1H7UZQE,2,2024-04-09_19h44.11.628,face trait task,2021.2.3,Win32,60.97560976,SONAid,,,,,,,
,,,,4,1.9922,space,0.2609,0,13,13,12,1,13,image/13.jpg,0,R_1hbYZAAG1H7UZQE,2,2024-04-09_19h44.11.628,face trait task,2021.2.3,Win32,60.97560976,SONAid,,,,,,,
,,,,3.2109375,2.4194,space,0.2525,0,14,14,3,1,4,image/4.jpg,0,R_1hbYZAAG1H7UZQE,2,2024-04-09_19h44.11.628,face trait task,2021.2.3,Win32,60.97560976,SONAid,,,,,,,
,,,,3.9296875,2.1344,space,0.2825,0,15,15,25,1,26,image/26.jpg,0,R_1hbYZAAG1H7UZQE,2,2024-04-09_19h44.11.628,face trait task,2021.2.3,Win32,60.97560976,SONAid,,,,,,,
,,,,3.2734375,1.877,space,0.1042,0,16,16,49,1,50,image/50.jpg,0,R_1hbYZAAG1H7UZQE,2,2024-04-09_19h44.11.628,face trait task,2021.2.3,Win32,60.97560976,SONAid,,,,,,,
,,,,4.8984375,2.5005,space,0.2827,0,17,17,33,1,34,image/34.jpg,0,R_1hbYZAAG1H7UZQE,2,2024-04-09_19h44.11.628,face trait task,2021.2.3,Win32,60.97560976,SONAid,,,,,,,
,,,,4.8984375,1.5178,space,0.1517,0,18,18,28,1,29,image/29.jpg,0,R_1hbYZAAG1H7UZQE,2,2024-04-09_19h44.11.628,face trait task,2021.2.3,Win32,60.97560976,SONAid,,,,,,,
,,,,4.2421875,1.7508,space,0.3672,0,19,19,34,1,35,image/35.jpg,0,R_1hbYZAAG1H7UZQE,2,2024-04-09_19h44.11.628,face trait task,2021.2.3,Win32,60.97560976,SONAid,,,,,,,
,,,,2.96875,2.8488,space,0.2681,0,20,20,0,1,1,image/1.jpg,0,R_1hbYZAAG1H7UZQE,2,2024-04-09_19h44.11.628,face trait task,2021.2.3,Win32,60.97560976,SONAid,,,,,,,
,,,,3.0390625,4.4945,space,0.3137,0,21,21,29,1,30,image/30.jpg,0,R_1hbYZAAG1H7UZQE,2,2024-04-09_19h44.11.628,face trait task,2021.2.3,Win32,60.97560976,SONAid,,,,,,,
,,,,2.84375,1.6455,space,0.2582,0,22,22,44,1,45,image/45.jpg,0,R_1hbYZAAG1H7UZQE,2,2024-04-09_19h44.11.628,face trait task,2021.2.3,Win32,60.97560976,SONAid,,,,,,,
,,,,3.03125,1.9525,space,0.2435,0,23,23,8,1,9,image/9.jpg,0,R_1hbYZAAG1H7UZQE,2,2024-04-09_19h44.11.628,face trait task,2021.2.3,Win32,60.97560976,SONAid,,,,,,,
,,,,5.9453125,1.7076,space,0.3168,0,24,24,13,1,14,image/14.jpg,0,R_1hbYZAAG1H7UZQE,2,2024-04-09_19h44.11.628,face trait task,2021.2.3,Win32,60.97560976,SONAid,,,,,,,
,,,,3.984375,1.3691,space,0.2717,0,25,25,26,1,27,image/27.jpg,0,R_1hbYZAAG1H7UZQE,2,2024-04-09_19h44.11.628,face trait task,2021.2.3,Win32,60.97560976,SONAid,,,,,,,
,,,,3.703125,1.688,space,0.2103,0,26,26,27,1,28,image/28.jpg,0,R_1hbYZAAG1H7UZQE,2,2024-04-09_19h44.11.628,face trait task,2021.2.3,Win32,60.97560976,SONAid,,,,,,,
,,,,6.2265625,2.1712,space,0.5798,0,27,27,19,1,20,image/20.jpg,0,R_1hbYZAAG1H7UZQE,2,2024-04-09_19h44.11.628,face trait task,2021.2.3,Win32,60.97560976,SONAid,,,,,,,
,,,,2.8828125,1.887,space,0.278,0,28,28,42,1,43,image/43.jpg,0,R_1hbYZAAG1H7UZQE,2,2024-04-09_19h44.11.628,face trait task,2021.2.3,Win32,60.97560976,SONAid,,,,,,,
,,,,5.1015625,2.9873,space,0.3186,0,29,29,23,1,24,image/24.jpg,0,R_1hbYZAAG1H7UZQE,2,2024-04-09_19h44.11.628,face trait task,2021.2.3,Win32,60.97560976,SONAid,,,,,,,
,,,,5.0546875,2.7874,space,0.3255,0,30,30,16,1,17,image/17.jpg,0,R_1hbYZAAG1H7UZQE,2,2024-04-09_19h44.11.628,face trait task,2021.2.3,Win32,60.97560976,SONAid,,,,,,,
,,,,5.203125,1.8863,space,0.672,0,31,31,21,1,22,image/22.jpg,0,R_1hbYZAAG1H7UZQE,2,2024-04-09_19h44.11.628,face trait task,2021.2.3,Win32,60.97560976,SONAid,,,,,,,
,,,,2.5234375,1.4984,space,0.4261,0,32,32,47,1,48,image/48.jpg,0,R_1hbYZAAG1H7UZQE,2,2024-04-09_19h44.11.628,face trait task,2021.2.3,Win32,60.97560976,SONAid,,,,,,,
,,,,6.9921875,1.592,space,0.3467,0,33,33,15,1,16,image/16.jpg,0,R_1hbYZAAG1H7UZQE,2,2024-04-09_19h44.11.628,face trait task,2021.2.3,Win32,60.97560976,SONAid,,,,,,,
,,,,4.015625,2.5263,space,0.2864,0,34,34,22,1,23,image/23.jpg,0,R_1hbYZAAG1H7UZQE,2,2024-04-09_19h44.11.628,face trait task,2021.2.3,Win32,60.97560976,SONAid,,,,,,,
,,,,5.703125,1.5965,space,0.2246,0,35,35,20,1,21,image/21.jpg,0,R_1hbYZAAG1H7UZQE,2,2024-04-09_19h44.11.628,face trait task,2021.2.3,Win32,60.97560976,SONAid,,,,,,,
,,,,5.125,1.7105,space,0.3174,0,36,36,35,1,36,image/36.jpg,0,R_1hbYZAAG1H7UZQE,2,2024-04-09_19h44.11.628,face trait task,2021.2.3,Win32,60.97560976,SONAid,,,,,,,
,,,,3.9765625,1.6058,space,0.2392,0,37,37,2,1,3,image/3.jpg,0,R_1hbYZAAG1H7UZQE,2,2024-04-09_19h44.11.628,face trait task,2021.2.3,Win32,60.97560976,SONAid,,,,,,,
,,,,2.0234375,1.7037,space,0.2887,0,38,38,40,1,41,image/41.jpg,0,R_1hbYZAAG1H7UZQE,2,2024-04-09_19h44.11.628,face trait task,2021.2.3,Win32,60.97560976,SONAid,,,,,,,
,,,,6.9296875,1.8642,space,0.4804,0,39,39,17,1,18,image/18.jpg,0,R_1hbYZAAG1H7UZQE,2,2024-04-09_19h44.11.628,face trait task,2021.2.3,Win32,60.97560976,SONAid,,,,,,,
,,,,4.0625,1.9353,space,0.2963,0,40,40,41,1,42,image/42.jpg,0,R_1hbYZAAG1H7UZQE,2,2024-04-09_19h44.11.628,face trait task,2021.2.3,Win32,60.97560976,SONAid,,,,,,,
,,,,3.0625,1.2542,space,0.2279,0,41,41,48,1,49,image/49.jpg,0,R_1hbYZAAG1H7UZQE,2,2024-04-09_19h44.11.628,face trait task,2021.2.3,Win32,60.97560976,SONAid,,,,,,,
,,,,5.875,1.3866,space,0.3093,0,42,42,52,1,52,image/52.jpg,1,R_1hbYZAAG1H7UZQE,2,2024-04-09_19h44.11.628,face trait task,2021.2.3,Win32,60.97560976,SONAid,,,,,,,
,,,,4.5859375,1.4849,space,0.3011,0,43,43,11,1,12,image/12.jpg,0,R_1hbYZAAG1H7UZQE,2,2024-04-09_19h44.11.628,face trait task,2021.2.3,Win32,60.97560976,SONAid,,,,,,,
,,,,3.8046875,1.3962,space,0.2839,0,44,44,36,1,37,image/37.jpg,0,R_1hbYZAAG1H7UZQE,2,2024-04-09_19h44.11.628,face trait task,2021.2.3,Win32,60.97560976,SONAid,,,,,,,
,,,,6.921875,3.5211,space,0.2844,0,45,45,14,1,15,image/15.jpg,0,R_1hbYZAAG1H7UZQE,2,2024-04-09_19h44.11.628,face trait task,2021.2.3,Win32,60.97560976,SONAid,,,,,,,
,,,,3.5625,2.0533,space,0.1372,0,46,46,4,1,5,image/5.jpg,0,R_1hbYZAAG1H7UZQE,2,2024-04-09_19h44.11.628,face trait task,2021.2.3,Win32,60.97560976,SONAid,,,,,,,
,,,,3.0859375,2.936,space,0.3351,0,47,47,39,1,40,image/40.jpg,0,R_1hbYZAAG1H7UZQE,2,2024-04-09_19h44.11.628,face trait task,2021.2.3,Win32,60.97560976,SONAid,,,,,,,
,,,,5.234375,1.639,space,0.4235,0,48,48,18,1,19,image/19.jpg,0,R_1hbYZAAG1H7UZQE,2,2024-04-09_19h44.11.628,face trait task,2021.2.3,Win32,60.97560976,SONAid,,,,,,,
,,,,4.3203125,2.8371,space,0.1688,0,49,49,43,1,44,image/44.jpg,0,R_1hbYZAAG1H7UZQE,2,2024-04-09_19h44.11.628,face trait task,2021.2.3,Win32,60.97560976,SONAid,,,,,,,
,,,,4.296875,2.415,space,0.1551,0,50,50,24,1,25,image/25.jpg,0,R_1hbYZAAG1H7UZQE,2,2024-04-09_19h44.11.628,face trait task,2021.2.3,Win32,60.97560976,SONAid,,,,,,,
,,,,3.3671875,2.0913,space,0.5681,0,51,51,31,1,32,image/32.jpg,0,R_1hbYZAAG1H7UZQE,2,2024-04-09_19h44.11.628,face trait task,2021.2.3,Win32,60.97560976,SONAid,,,,,,,
,,,,3.9375,2.328,space,0.3411,0,52,52,38,1,39,image/39.jpg,0,R_1hbYZAAG1H7UZQE,2,2024-04-09_19h44.11.628,face trait task,2021.2.3,Win32,60.97560976,SONAid,,,,,,,
,,,,,,,,,,,,,,,,R_1hbYZAAG1H7UZQE,2,2024-04-09_19h44.11.628,face trait task,2021.2.3,Win32,60.97560976,SONAid,0,1,1,3,1,3,friendly.png
,,,,6.9765625,4.0999,space,0.8053,0,0,0,20,1,21,image/21.jpg,0,R_1hbYZAAG1H7UZQE,2,2024-04-09_19h44.11.628,face trait task,2021.2.3,Win32,60.97560976,SONAid,,,,,,,
,,,,1.03125,2.0863,space,0.342,0,1,1,30,1,31,image/31.jpg,0,R_1hbYZAAG1H7UZQE,2,2024-04-09_19h44.11.628,face trait task,2021.2.3,Win32,60.97560976,SONAid,,,,,,,
,,,,2.9921875,2.6026,space,0.2366,0,2,2,0,1,1,image/1.jpg,0,R_1hbYZAAG1H7UZQE,2,2024-04-09_19h44.11.628,face trait task,2021.2.3,Win32,60.97560976,SONAid,,,,,,,
,,,,5,1.5969,space,0.2945,0,3,3,23,1,24,image/24.jpg,0,R_1hbYZAAG1H7UZQE,2,2024-04-09_19h44.11.628,face trait task,2021.2.3,Win32,60.97560976,SONAid,,,,,,,
,,,,5,1.1785,space,0.4538,0,4,4,1,1,2,image/2.jpg,0,R_1hbYZAAG1H7UZQE,2,2024-04-09_19h44.11.628,face trait task,2021.2.3,Win32,60.97560976,SONAid,,,,,,,
,,,,3.9453125,1.8199,space,0.3118,0,5,5,4,1,5,image/5.jpg,0,R_1hbYZAAG1H7UZQE,2,2024-04-09_19h44.11.628,face trait task,2021.2.3,Win32,60.97560976,SONAid,,,,,,,
,,,,3.015625,1.821,space,0.4499,0,6,6,8,1,9,image/9.jpg,0,R_1hbYZAAG1H7UZQE,2,2024-04-09_19h44.11.628,face trait task,2021.2.3,Win32,60.97560976,SONAid,,,,,,,
,,,,6.9921875,3.6597,space,0.751,0,7,7,52,1,52,image/52.jpg,1,R_1hbYZAAG1H7UZQE,2,2024-04-09_19h44.11.628,face trait task,2021.2.3,Win32,60.97560976,SONAid,,,,,,,
,,,,3.0546875,1.5314,space,0.4369,0,8,8,46,1,47,image/47.jpg,0,R_1hbYZAAG1H7UZQE,2,2024-04-09_19h44.11.628,face trait task,2021.2.3,Win32,60.97560976,SONAid,,,,,,,
,,,,2.734375,1.1043,space,0.292,0,9,9,5,1,6,image/6.jpg,0,R_1hbYZAAG1H7UZQE,2,2024-04-09_19h44.11.628,face trait task,2021.2.3,Win32,60.97560976,SONAid,,,,,,,
,,,,3.8984375,1.4548,space,0.5192,0,10,10,33,1,34,image/34.jpg,0,R_1hbYZAAG1H7UZQE,2,2024-04-09_19h44.11.628,face trait task,2021.2.3,Win32,60.97560976,SONAid,,,,,,,
,,,,5.9140625,1.4431,space,0.4181,0,11,11,7,1,8,image/8.jpg,0,R_1hbYZAAG1H7UZQE,2,2024-04-09_19h44.11.628,face trait task,2021.2.3,Win32,60.97560976,SONAid,,,,,,,
,,,,4.1015625,1.9637,space,0.3196,0,12,12,41,1,42,image/42.jpg,0,R_1hbYZAAG1H7UZQE,2,2024-04-09_19h44.11.628,face trait task,2021.2.3,Win32,60.97560976,SONAid,,,,,,,
,,,,2.765625,1.2549,space,0.3415,0,13,13,31,1,32,image/32.jpg,0,R_1hbYZAAG1H7UZQE,2,2024-04-09_19h44.11.628,face trait task,2021.2.3,Win32,60.97560976,SONAid,,,,,,,
,,,,6.953125,1.8077,space,0.2678,0,14,14,14,1,15,image/15.jpg,0,R_1hbYZAAG1H7UZQE,2,2024-04-09_19h44.11.628,face trait task,2021.2.3,Win32,60.97560976,SONAid,,,,,,,
,,,,5.015625,2.8088,space,0.3912,0,15,15,3,1,4,image/4.jpg,0,R_1hbYZAAG1H7UZQE,2,2024-04-09_19h44.11.628,face trait task,2021.2.3,Win32,60.97560976,SONAid,,,,,,,
,,,,2.9609375,1.5085,space,0.2142,0,16,16,27,1,28,image/28.jpg,0,R_1hbYZAAG1H7UZQE,2,2024-04-09_19h44.11.628,face trait task,2021.2.3,Win32,60.97560976,SONAid,,,,,,,
,,,,6.9453125,1.4367,space,0.3915,0,17,17,15,1,16,image/16.jpg,0,R_1hbYZAAG1H7UZQE,2,2024-04-09_19h44.11.628,face trait task,2021.2.3,Win32,60.97560976,SONAid,,,,,,,
,,,,2.15625,1.3707,space,0.2695,0,18,18,38,1,39,image/39.jpg,0,R_1hbYZAAG1H7UZQE,2,2024-04-09_19h44.11.628,face trait task,2021.2.3,Win32,60.97560976,SONAid,,,,,,,
,,,,6.9140625,2.9032,space,1.8514,0,19,19,35,1,36,image/36.jpg,0,R_1hbYZAAG1H7UZQE,2,2024-04-09_19h44.11.628,face trait task,2021.2.3,Win32,60.97560976,SONAid,,,,,,,
,,,,6.9609375,2.3126,space,0.4197,0,20,20,10,1,11,image/11.jpg,0,R_1hbYZAAG1H7UZQE,2,2024-04-09_19h44.11.628,face trait task,2021.2.3,Win32,60.97560976,SONAid,,,,,,,
,,,,2.09375,2.6282,space,1.2545,0,21,21,22,1,23,image/23.jpg,0,R_1hbYZAAG1H7UZQE,2,2024-04-09_19h44.11.628,face trait task,2021.2.3,Win32,60.97560976,SONAid,,,,,,,
,,,,2.109375,4.7802,space,0.5622,0,22,22,42,1,43,image/43.jpg,0,R_1hbYZAAG1H7UZQE,2,2024-04-09_19h44.11.628,face trait task,2021.2.3,Win32,60.97560976,SONAid,,,,,,,
,,,,2.125,1.2109,space,0.3915,0,23,23,29,1,30,image/30.jpg,0,R_1hbYZAAG1H7UZQE,2,2024-04-09_19h44.11.628,face trait task,2021.2.3,Win32,60.97560976,SONAid,,,,,,,
,,,,6.953125,1.8364,space,0.157,0,24,24,19,1,20,image/20.jpg,0,R_1hbYZAAG1H7UZQE,2,2024-04-09_19h44.11.628,face trait task,2021.2.3,Win32,60.97560976,SONAid,,,,,,,
,,,,2.125,2.838,space,0.3029,0,25,25,34,1,35,image/35.jpg,0,R_1hbYZAAG1H7UZQE,2,2024-04-09_19h44.11.628,face trait task,2021.2.3,Win32,60.97560976,SONAid,,,,,,,
,,,,5.2890625,1.7929,space,0.4899,0,26,26,16,1,17,image/17.jpg,0,R_1hbYZAAG1H7UZQE,2,2024-04-09_19h44.11.628,face trait task,2021.2.3,Win32,60.97560976,SONAid,,,,,,,
,,,,2.4453125,1.8087,space,0.35,0,27,27,45,1,46,image/46.jpg,0,R_1hbYZAAG1H7UZQE,2,2024-04-09_19h44.11.628,face trait task,2021.2.3,Win32,60.97560976,SONAid,,,,,,,
,,,,3.9140625,2.5736,space,0.3348,0,28,28,25,1,26,image/26.jpg,0,R_1hbYZAAG1H7UZQE,2,2024-04-09_19h44.11.628,face trait task,2021.2.3,Win32,60.97560976,SONAid,,,,,,,
,,,,3.8203125,1.5879,space,0.5911,0,29,29,26,1,27,image/27.jpg,0,R_1hbYZAAG1H7UZQE,2,2024-04-09_19h44.11.628,face trait task,2021.2.3,Win32,60.97560976,SONAid,,,,,,,
,,,,3.0078125,8.4482,space,0.4758,0,30,30,44,1,45,image/45.jpg,0,R_1hbYZAAG1H7UZQE,2,2024-04-09_19h44.11.628,face trait task,2021.2.3,Win32,60.97560976,SONAid,,,,,,,
,,,,3.3203125,1.5978,space,0.2419,0,31,31,2,1,3,image/3.jpg,0,R_1hbYZAAG1H7UZQE,2,2024-04-09_19h44.11.628,face trait task,2021.2.3,Win32,60.97560976,SONAid,,,,,,,
,,,,5.9453125,1.8858,space,0.3365,0,32,32,18,1,19,image/19.jpg,0,R_1hbYZAAG1H7UZQE,2,2024-04-09_19h44.11.628,face trait task,2021.2.3,Win32,60.97560976,SONAid,,,,,,,
,,,,4.015625,1.4737,space,0.2727,0,33,33,24,1,25,image/25.jpg,0,R_1hbYZAAG1H7UZQE,2,2024-04-09_19h44.11.628,face trait task,2021.2.3,Win32,60.97560976,SONAid,,,,,,,
,,,,3.5859375,1.8232,space,0.3422,0,34,34,12,1,13,image/13.jpg,0,R_1hbYZAAG1H7UZQE,2,2024-04-09_19h44.11.628,face trait task,2021.2.3,Win32,60.97560976,SONAid,,,,,,,
,,,,2.015625,2.0531,space,0.4331,0,35,35,39,1,40,image/40.jpg,0,R_1hbYZAAG1H7UZQE,2,2024-04-09_19h44.11.628,face trait task,2021.2.3,Win32,60.97560976,SONAid,,,,,,,
,,,,1.015625,3.5279,space,0.376,0,36,36,47,1,48,image/48.jpg,0,R_1hbYZAAG1H7UZQE,2,2024-04-09_19h44.11.628,face trait task,2021.2.3,Win32,60.97560976,SONAid,,,,,,,
,,,,2.046875,1.362,space,0.3712,0,37,37,9,1,10,image/10.jpg,0,R_1hbYZAAG1H7UZQE,2,2024-04-09_19h44.11.628,face trait task,2021.2.3,Win32,60.97560976,SONAid,,,,,,,
,,,,6.984375,1.8136,space,0.3214,0,38,38,21,1,22,image/22.jpg,0,R_1hbYZAAG1H7UZQE,2,2024-04-09_19h44.11.628,face trait task,2021.2.3,Win32,60.97560976,SONAid,,,,,,,
,,,,6.984375,0.8879,space,0.329,0,39,39,17,1,18,image/18.jpg,0,R_1hbYZAAG1H7UZQE,2,2024-04-09_19h44.11.628,face trait task,2021.2.3,Win32,60.97560976,SONAid,,,,,,,
,,,,1.0390625,4.0454,space,0.3269,0,40,40,40,1,41,image/41.jpg,0,R_1hbYZAAG1H7UZQE,2,2024-04-09_19h44.11.628,face trait task,2021.2.3,Win32,60.97560976,SONAid,,,,,,,
,,,,1.0390625,0.9421,space,0.3696,0,41,41,43,1,44,image/44.jpg,0,R_1hbYZAAG1H7UZQE,2,2024-04-09_19h44.11.628,face trait task,2021.2.3,Win32,60.97560976,SONAid,,,,,,,
,,,,1.0390625,0.96,space,2.7764,0,42,42,49,1,50,image/50.jpg,0,R_1hbYZAAG1H7UZQE,2,2024-04-09_19h44.11.628,face trait task,2021.2.3,Win32,60.97560976,SONAid,,,,,,,
,,,,5.90625,3.8216,space,0.7837,0,43,43,6,1,7,image/7.jpg,0,R_1hbYZAAG1H7UZQE,2,2024-04-09_19h44.11.628,face trait task,2021.2.3,Win32,60.97560976,SONAid,,,,,,,
,,,,1.0390625,6.1026,space,58.6682,0,44,44,48,1,49,image/49.jpg,0,R_1hbYZAAG1H7UZQE,2,2024-04-09_19h44.11.628,face trait task,2021.2.3,Win32,60.97560976,SONAid,,,,,,,
,,,,1.1640625,2.1301,space,0.2694,0,45,45,32,1,33,image/33.jpg,0,R_1hbYZAAG1H7UZQE,2,2024-04-09_19h44.11.628,face trait task,2021.2.3,Win32,60.97560976,SONAid,,,,,,,
,,,,4.0234375,2.092,space,0.2553,0,46,46,11,1,12,image/12.jpg,0,R_1hbYZAAG1H7UZQE,2,2024-04-09_19h44.11.628,face trait task,2021.2.3,Win32,60.97560976,SONAid,,,,,,,
,,,,5.0234375,3.2212,space,0.7638,0,47,47,50,1,61,image/61.jpg,1,R_1hbYZAAG1H7UZQE,2,2024-04-09_19h44.11.628,face trait task,2021.2.3,Win32,60.97560976,SONAid,,,,,,,
,,,,1.015625,1.8801,space,0.2499,0,48,48,36,1,37,image/37.jpg,0,R_1hbYZAAG1H7UZQE,2,2024-04-09_19h44.11.628,face trait task,2021.2.3,Win32,60.97560976,SONAid,,,,,,,
,,,,4.9765625,8.335,space,3.8634,0,49,49,51,1,59,image/59.jpg,1,R_1hbYZAAG1H7UZQE,2,2024-04-09_19h44.11.628,face trait task,2021.2.3,Win32,60.97560976,SONAid,,,,,,,
,,,,2,3.3351,space,0.1622,0,50,50,37,1,38,image/38.jpg,0,R_1hbYZAAG1H7UZQE,2,2024-04-09_19h44.11.628,face trait task,2021.2.3,Win32,60.97560976,SONAid,,,,,,,
,,,,4.8984375,1.9465,space,0.3662,0,51,51,13,1,14,image/14.jpg,0,R_1hbYZAAG1H7UZQE,2,2024-04-09_19h44.11.628,face trait task,2021.2.3,Win32,60.97560976,SONAid,,,,,,,
,,,,4.8984375,1.2916,space,0.2848,0,52,52,28,1,29,image/29.jpg,0,R_1hbYZAAG1H7UZQE,2,2024-04-09_19h44.11.628,face trait task,2021.2.3,Win32,60.97560976,SONAid,,,,,,,
,,,,,,,,,,,,,,,,R_1hbYZAAG1H7UZQE,2,2024-04-09_19h44.11.628,face trait task,2021.2.3,Win32,60.97560976,SONAid,0,2,2,2,1,2,trustworthy.png
,,,,2.890625,2.4856,space,0.5397,0,0,0,37,1,38,image/38.jpg,0,R_1hbYZAAG1H7UZQE,2,2024-04-09_19h44.11.628,face trait task,2021.2.3,Win32,60.97560976,SONAid,,,,,,,
,,,,6.921875,1.9036,space,0.3521,0,1,1,3,1,4,image/4.jpg,0,R_1hbYZAAG1H7UZQE,2,2024-04-09_19h44.11.628,face trait task,2021.2.3,Win32,60.97560976,SONAid,,,,,,,
,,,,4.0078125,2.0526,space,0.295,0,2,2,26,1,27,image/27.jpg,0,R_1hbYZAAG1H7UZQE,2,2024-04-09_19h44.11.628,face trait task,2021.2.3,Win32,60.97560976,SONAid,,,,,,,
,,,,3.0390625,1.5579,space,0.2856,0,3,3,30,1,31,image/31.jpg,0,R_1hbYZAAG1H7UZQE,2,2024-04-09_19h44.11.628,face trait task,2021.2.3,Win32,60.97560976,SONAid,,,,,,,
,,,,6.984375,1.3727,space,0.2765,0,4,4,19,1,20,image/20.jpg,0,R_1hbYZAAG1H7UZQE,2,2024-04-09_19h44.11.628,face trait task,2021.2.3,Win32,60.97560976,SONAid,,,,,,,
,,,,4.984375,11.4237,space,0.2768,0,5,5,25,1,26,image/26.jpg,0,R_1hbYZAAG1H7UZQE,2,2024-04-09_19h44.11.628,face trait task,2021.2.3,Win32,60.97560976,SONAid,,,,,,,
,,,,3.078125,1.9727,space,0.5296,0,6,6,46,1,47,image/47.jpg,0,R_1hbYZAAG1H7UZQE,2,2024-04-09_19h44.11.628,face trait task,2021.2.3,Win32,60.97560976,SONAid,,,,,,,
,,,,4.4765625,3.3654,space,0.7124,0,7,7,22,1,23,image/23.jpg,0,R_1hbYZAAG1H7UZQE,2,2024-04-09_19h44.11.628,face trait task,2021.2.3,Win32,60.97560976,SONAid,,,,,,,
,,,,5.0546875,2.627,space,0.4526,0,8,8,11,1,12,image/12.jpg,0,R_1hbYZAAG1H7UZQE,2,2024-04-09_19h44.11.628,face trait task,2021.2.3,Win32,60.97560976,SONAid,,,,,,,
,,,,4.7421875,3.3343,space,0.8258,0,9,9,14,1,15,image/15.jpg,0,R_1hbYZAAG1H7UZQE,2,2024-04-09_19h44.11.628,face trait task,2021.2.3,Win32,60.97560976,SONAid,,,,,,,
,,,,1.2109375,25.2495,space,0.2818,0,10,10,39,1,40,image/40.jpg,0,R_1hbYZAAG1H7UZQE,2,2024-04-09_19h44.11.628,face trait task,2021.2.3,Win32,60.97560976,SONAid,,,,,,,
,,,,1.21875,1.0248,space,0.5684,0,11,11,45,1,46,image/46.jpg,0,R_1hbYZAAG1H7UZQE,2,2024-04-09_19h44.11.628,face trait task,2021.2.3,Win32,60.97560976,SONAid,,,,,,,
,,,,6.921875,2.8369,space,1.7347,0,12,12,17,1,18,image/18.jpg,0,R_1hbYZAAG1H7UZQE,2,2024-04-09_19h44.11.628,face trait task,2021.2.3,Win32,60.97560976,SONAid,,,,,,,
,,,,3.0234375,2.9813,space,0.5263,0,13,13,0,1,1,image/1.jpg,0,R_1hbYZAAG1H7UZQE,2,2024-04-09_19h44.11.628,face trait task,2021.2.3,Win32,60.97560976,SONAid,,,,,,,
,,,,5,2.5897,space,0.2679,0,14,14,52,1,52,image/52.jpg,1,R_1hbYZAAG1H7UZQE,2,2024-04-09_19h44.11.628,face trait task,2021.2.3,Win32,60.97560976,SONAid,,,,,,,
,,,,1.0234375,3.1609,space,0.2512,0,15,15,47,1,48,image/48.jpg,0,R_1hbYZAAG1H7UZQE,2,2024-04-09_19h44.11.628,face trait task,2021.2.3,Win32,60.97560976,SONAid,,,,,,,
,,,,1,1.7564,space,0.2277,0,16,16,48,1,49,image/49.jpg,0,R_1hbYZAAG1H7UZQE,2,2024-04-09_19h44.11.628,face trait task,2021.2.3,Win32,60.97560976,SONAid,,,,,,,
,,,,2.078125,2.3888,space,0.4744,0,17,17,8,1,9,image/9.jpg,0,R_1hbYZAAG1H7UZQE,2,2024-04-09_19h44.11.628,face trait task,2021.2.3,Win32,60.97560976,SONAid,,,,,,,
,,,,2.078125,1.0768,space,0.2879,0,18,18,9,1,10,image/10.jpg,0,R_1hbYZAAG1H7UZQE,2,2024-04-09_19h44.11.628,face trait task,2021.2.3,Win32,60.97560976,SONAid,,,,,,,
,,,,2.078125,0.9504,space,0.3268,0,19,19,5,1,6,image/6.jpg,0,R_1hbYZAAG1H7UZQE,2,2024-04-09_19h44.11.628,face trait task,2021.2.3,Win32,60.97560976,SONAid,,,,,,,
,,,,3.0078125,1.4207,space,0.2676,0,20,20,12,1,13,image/13.jpg,0,R_1hbYZAAG1H7UZQE,2,2024-04-09_19h44.11.628,face trait task,2021.2.3,Win32,60.97560976,SONAid,,,,,,,
,,,,4.046875,1.3098,space,0.3251,0,21,21,16,1,17,image/17.jpg,0,R_1hbYZAAG1H7UZQE,2,2024-04-09_19h44.11.628,face trait task,2021.2.3,Win32,60.97560976,SONAid,,,,,,,
,,,,1.0078125,2.2121,space,0.2549,0,22,22,40,1,41,image/41.jpg,0,R_1hbYZAAG1H7UZQE,2,2024-04-09_19h44.11.628,face trait task,2021.2.3,Win32,60.97560976,SONAid,,,,,,,
,,,,1.9609375,2.1701,space,1.4075,0,23,23,2,1,3,image/3.jpg,0,R_1hbYZAAG1H7UZQE,2,2024-04-09_19h44.11.628,face trait task,2021.2.3,Win32,60.97560976,SONAid,,,,,,,
,,,,6.96875,2.9201,space,0.2516,0,24,24,10,1,11,image/11.jpg,0,R_1hbYZAAG1H7UZQE,2,2024-04-09_19h44.11.628,face trait task,2021.2.3,Win32,60.97560976,SONAid,,,,,,,
,,,,5.953125,1.8782,space,0.2537,0,25,25,13,1,14,image/14.jpg,0,R_1hbYZAAG1H7UZQE,2,2024-04-09_19h44.11.628,face trait task,2021.2.3,Win32,60.97560976,SONAid,,,,,,,
,,,,6.9765625,2.6202,space,0.2053,0,26,26,21,1,22,image/22.jpg,0,R_1hbYZAAG1H7UZQE,2,2024-04-09_19h44.11.628,face trait task,2021.2.3,Win32,60.97560976,SONAid,,,,,,,
,,,,1.9921875,1.6198,space,0.1917,0,27,27,43,1,44,image/44.jpg,0,R_1hbYZAAG1H7UZQE,2,2024-04-09_19h44.11.628,face trait task,2021.2.3,Win32,60.97560976,SONAid,,,,,,,
,,,,4.9375,2.1905,space,0.3523,0,28,28,33,1,34,image/34.jpg,0,R_1hbYZAAG1H7UZQE,2,2024-04-09_19h44.11.628,face trait task,2021.2.3,Win32,60.97560976,SONAid,,,,,,,
,,,,3.984375,1.4287,space,0.2243,0,29,29,6,1,7,image/7.jpg,0,R_1hbYZAAG1H7UZQE,2,2024-04-09_19h44.11.628,face trait task,2021.2.3,Win32,60.97560976,SONAid,,,,,,,
,,,,6,3.7099,space,0.3537,0,30,30,23,1,24,image/24.jpg,0,R_1hbYZAAG1H7UZQE,2,2024-04-09_19h44.11.628,face trait task,2021.2.3,Win32,60.97560976,SONAid,,,,,,,
,,,,1.9609375,3.2718,space,0.3867,0,31,31,24,1,25,image/25.jpg,0,R_1hbYZAAG1H7UZQE,2,2024-04-09_19h44.11.628,face trait task,2021.2.3,Win32,60.97560976,SONAid,,,,,,,
,,,,1.9921875,1.8392,space,0.2351,0,32,32,29,1,30,image/30.jpg,0,R_1hbYZAAG1H7UZQE,2,2024-04-09_19h44.11.628,face trait task,2021.2.3,Win32,60.97560976,SONAid,,,,,,,
,,,,2.9609375,1.6441,space,0.262,0,33,33,27,1,28,image/28.jpg,0,R_1hbYZAAG1H7UZQE,2,2024-04-09_19h44.11.628,face trait task,2021.2.3,Win32,60.97560976,SONAid,,,,,,,
,,,,3.9921875,2.3676,space,0.2361,0,34,34,7,1,8,image/8.jpg,0,R_1hbYZAAG1H7UZQE,2,2024-04-09_19h44.11.628,face trait task,2021.2.3,Win32,60.97560976,SONAid,,,,,,,
,,,,3.9921875,1.0978,space,0.4026,0,35,35,18,1,19,image/19.jpg,0,R_1hbYZAAG1H7UZQE,2,2024-04-09_19h44.11.628,face trait task,2021.2.3,Win32,60.97560976,SONAid,,,,,,,
,,,,3.9921875,1.4639,space,0.2602,0,36,36,28,1,29,image/29.jpg,0,R_1hbYZAAG1H7UZQE,2,2024-04-09_19h44.11.628,face trait task,2021.2.3,Win32,60.97560976,SONAid,,,,,,,
,,,,3,1.5048,space,0.2514,0,37,37,32,1,33,image/33.jpg,0,R_1hbYZAAG1H7UZQE,2,2024-04-09_19h44.11.628,face trait task,2021.2.3,Win32,60.97560976,SONAid,,,,,,,
,,,,4.015625,1.4724,space,0.2784,0,38,38,4,1,5,image/5.jpg,0,R_1hbYZAAG1H7UZQE,2,2024-04-09_19h44.11.628,face trait task,2021.2.3,Win32,60.97560976,SONAid,,,,,,,
,,,,3.03125,2.4709,space,0.3395,0,39,39,36,1,37,image/37.jpg,0,R_1hbYZAAG1H7UZQE,2,2024-04-09_19h44.11.628,face trait task,2021.2.3,Win32,60.97560976,SONAid,,,,,,,
,,,,3.03125,0.8023,space,0.3196,0,40,40,34,1,35,image/35.jpg,0,R_1hbYZAAG1H7UZQE,2,2024-04-09_19h44.11.628,face trait task,2021.2.3,Win32,60.97560976,SONAid,,,,,,,
,,,,5.953125,2.4974,space,0.3563,0,41,41,35,1,36,image/36.jpg,0,R_1hbYZAAG1H7UZQE,2,2024-04-09_19h44.11.628,face trait task,2021.2.3,Win32,60.97560976,SONAid,,,,,,,
,,,,6.9296875,1.3059,space,0.4759,0,42,42,15,1,16,image/16.jpg,0,R_1hbYZAAG1H7UZQE,2,2024-04-09_19h44.11.628,face trait task,2021.2.3,Win32,60.97560976,SONAid,,,,,,,
,,,,2.0859375,1.658,space,0.5808,0,43,43,44,1,45,image/45.jpg,0,R_1hbYZAAG1H7UZQE,2,2024-04-09_19h44.11.628,face trait task,2021.2.3,Win32,60.97560976,SONAid,,,,,,,
,,,,1.0078125,1.4483,space,0.2607,0,44,44,42,1,43,image/43.jpg,0,R_1hbYZAAG1H7UZQE,2,2024-04-09_19h44.11.628,face trait task,2021.2.3,Win32,60.97560976,SONAid,,,,,,,
,,,,3.9375,1.4558,space,0.3893,0,45,45,49,1,50,image/50.jpg,0,R_1hbYZAAG1H7UZQE,2,2024-04-09_19h44.11.628,face trait task,2021.2.3,Win32,60.97560976,SONAid,,,,,,,
,,,,3.9375,1.5041,space,0.4598,0,46,46,31,1,32,image/32.jpg,0,R_1hbYZAAG1H7UZQE,2,2024-04-09_19h44.11.628,face trait task,2021.2.3,Win32,60.97560976,SONAid,,,,,,,
,,,,3.796875,1.4129,space,0.1994,0,47,47,1,1,2,image/2.jpg,0,R_1hbYZAAG1H7UZQE,2,2024-04-09_19h44.11.628,face trait task,2021.2.3,Win32,60.97560976,SONAid,,,,,,,
,,,,4.9921875,2.1616,space,0.2866,0,48,48,51,1,59,image/59.jpg,1,R_1hbYZAAG1H7UZQE,2,2024-04-09_19h44.11.628,face trait task,2021.2.3,Win32,60.97560976,SONAid,,,,,,,
,,,,2.984375,1.7551,space,0.2252,0,49,49,38,1,39,image/39.jpg,0,R_1hbYZAAG1H7UZQE,2,2024-04-09_19h44.11.628,face trait task,2021.2.3,Win32,60.97560976,SONAid,,,,,,,
,,,,6.9765625,2.7601,space,0.2914,0,50,50,20,1,21,image/21.jpg,0,R_1hbYZAAG1H7UZQE,2,2024-04-09_19h44.11.628,face trait task,2021.2.3,Win32,60.97560976,SONAid,,,,,,,
,,,,4.9921875,2.8124,space,0.2599,0,51,51,50,1,61,image/61.jpg,1,R_1hbYZAAG1H7UZQE,2,2024-04-09_19h44.11.628,face trait task,2021.2.3,Win32,60.97560976,SONAid,,,,,,,
,,,,4.9921875,2.3859,space,0.3142,0,52,52,41,1,42,image/42.jpg,0,R_1hbYZAAG1H7UZQE,2,2024-04-09_19h44.11.628,face trait task,2021.2.3,Win32,60.97560976,SONAid,,,,,,,
,,,,,,,,,,,,,,,,R_1hbYZAAG1H7UZQE,2,2024-04-09_19h44.11.628,face trait task,2021.2.3,Win32,60.97560976,SONAid,0,3,3,1,1,1,competent.png
