choose_trial,key_resp.keys,key_resp.rt,key_resp_4.keys,key_resp_4.rt,session_trait,slider_face_judge.response,slider_face_judge.rt,key_resp_3.keys,key_resp_3.rt,face_loop.thisRepN,face_loop.thisTrialN,face_loop.thisN,face_loop.thisIndex,face_loop.ran,face_serial,image_name,isCheck,answer,check_question,participant,session,date,expName,psychopyVersion,OS,frameRate,SONAid,session.thisRepN,session.thisTrialN,session.thisN,session.thisIndex,session.ran,session_serial,slider_judge_img
"[0,1,2,3,4,5,6,7,8,9,10,11,12,13,14,15,16,17,18,19,20,21,22,23,24,25,26,27,28,29,30,31,32,33,34,35,36,37,38,39,40,41,42,43,44,45,46,47,48,49,53,50,55]",space,17.675,space,85.398,trustworthy,4.005357143,14.318,space,1.294,0,0,0,13,1,14,image/14.jpg,0,0,,R_1Jreilcdud9HMuf,2,2024-05-29_04h49.10.958,face trait task,2021.2.3,MacIntel,62.5,120429,,,,,,,
,,,,,,3.967857143,4.794,space,1.025,0,1,1,36,1,37,image/37.jpg,0,0,,R_1Jreilcdud9HMuf,2,2024-05-29_04h49.10.958,face trait task,2021.2.3,MacIntel,62.5,120429,,,,,,,
,,,,,,1.032142857,5.831,space,0.966,0,2,2,50,1,54,image/fill_img.png,1,1,Please move the slider all the way to the LEFT to show that you are paying attention.,R_1Jreilcdud9HMuf,2,2024-05-29_04h49.10.958,face trait task,2021.2.3,MacIntel,62.5,120429,,,,,,,
,,,,,,3.978571429,4.795,space,1.357,0,3,3,39,1,40,image/40.jpg,0,0,,R_1Jreilcdud9HMuf,2,2024-05-29_04h49.10.958,face trait task,2021.2.3,MacIntel,62.5,120429,,,,,,,
,,,,,,3.989285714,10.814,space,7.568,0,4,4,25,1,26,image/26.jpg,0,0,,R_1Jreilcdud9HMuf,2,2024-05-29_04h49.10.958,face trait task,2021.2.3,MacIntel,62.5,120429,,,,,,,
,,,,,,4.016071429,3.447,space,2.093,0,5,5,29,1,30,image/30.jpg,0,0,,R_1Jreilcdud9HMuf,2,2024-05-29_04h49.10.958,face trait task,2021.2.3,MacIntel,62.5,120429,,,,,,,
,,,,,,4.016071429,2.982,space,0.925,0,6,6,0,1,1,image/1.jpg,0,0,,R_1Jreilcdud9HMuf,2,2024-05-29_04h49.10.958,face trait task,2021.2.3,MacIntel,62.5,120429,,,,,,,
,,,,,,4.964285714,9.498,space,0.811,0,7,7,33,1,34,image/34.jpg,0,0,,R_1Jreilcdud9HMuf,2,2024-05-29_04h49.10.958,face trait task,2021.2.3,MacIntel,62.5,120429,,,,,,,
,,,,,,3.994642857,2.413,space,0.39,0,8,8,12,1,13,image/13.jpg,0,0,,R_1Jreilcdud9HMuf,2,2024-05-29_04h49.10.958,face trait task,2021.2.3,MacIntel,62.5,120429,,,,,,,
,,,,,,3.994642857,1.43,space,0.635,0,9,9,47,1,48,image/48.jpg,0,0,,R_1Jreilcdud9HMuf,2,2024-05-29_04h49.10.958,face trait task,2021.2.3,MacIntel,62.5,120429,,,,,,,
,,,,,,3.994642857,1.641,space,0.035,0,10,10,49,1,50,image/50.jpg,0,0,,R_1Jreilcdud9HMuf,2,2024-05-29_04h49.10.958,face trait task,2021.2.3,MacIntel,62.5,120429,,,,,,,
,,,,,,4,3.056,space,0.485,0,11,11,5,1,6,image/6.jpg,0,0,,R_1Jreilcdud9HMuf,2,2024-05-29_04h49.10.958,face trait task,2021.2.3,MacIntel,62.5,120429,,,,,,,
,,,,,,1.980357143,4.926,space,1.233,0,12,12,46,1,47,image/47.jpg,0,0,,R_1Jreilcdud9HMuf,2,2024-05-29_04h49.10.958,face trait task,2021.2.3,MacIntel,62.5,120429,,,,,,,
,,,,,,4.021428571,3.949,space,0.457,0,13,13,43,1,44,image/44.jpg,0,0,,R_1Jreilcdud9HMuf,2,2024-05-29_04h49.10.958,face trait task,2021.2.3,MacIntel,62.5,120429,,,,,,,
,,,,,,2.001785714,4.583,space,0.46,0,14,14,21,1,22,image/22.jpg,0,0,,R_1Jreilcdud9HMuf,2,2024-05-29_04h49.10.958,face trait task,2021.2.3,MacIntel,62.5,120429,,,,,,,
,,,,,,3.994642857,2.607,space,0.333,0,15,15,9,1,10,image/10.jpg,0,0,,R_1Jreilcdud9HMuf,2,2024-05-29_04h49.10.958,face trait task,2021.2.3,MacIntel,62.5,120429,,,,,,,
,,,,,,3.994642857,1.947,space,0.177,0,16,16,38,1,39,image/39.jpg,0,0,,R_1Jreilcdud9HMuf,2,2024-05-29_04h49.10.958,face trait task,2021.2.3,MacIntel,62.5,120429,,,,,,,
,,,,,,4.991071429,2.932,space,1.225,0,17,17,28,1,29,image/29.jpg,0,0,,R_1Jreilcdud9HMuf,2,2024-05-29_04h49.10.958,face trait task,2021.2.3,MacIntel,62.5,120429,,,,,,,
,,,,,,4.005357143,2.114,space,0.4,0,18,18,15,1,16,image/16.jpg,0,0,,R_1Jreilcdud9HMuf,2,2024-05-29_04h49.10.958,face trait task,2021.2.3,MacIntel,62.5,120429,,,,,,,
,,,,,,4.005357143,1.532,space,0.343,0,19,19,3,1,4,image/4.jpg,0,0,,R_1Jreilcdud9HMuf,2,2024-05-29_04h49.10.958,face trait task,2021.2.3,MacIntel,62.5,120429,,,,,,,
,,,,,,4.010714286,2.566,space,1.026,0,20,20,37,1,38,image/38.jpg,0,0,,R_1Jreilcdud9HMuf,2,2024-05-29_04h49.10.958,face trait task,2021.2.3,MacIntel,62.5,120429,,,,,,,
,,,,,,4.010714286,2.441,space,0.367,0,21,21,6,1,7,image/7.jpg,0,0,,R_1Jreilcdud9HMuf,2,2024-05-29_04h49.10.958,face trait task,2021.2.3,MacIntel,62.5,120429,,,,,,,
,,,,,,1.991071429,1.808,space,0.675,0,22,22,40,1,41,image/41.jpg,0,0,,R_1Jreilcdud9HMuf,2,2024-05-29_04h49.10.958,face trait task,2021.2.3,MacIntel,62.5,120429,,,,,,,
,,,,,,4,1.878,space,1.132,0,23,23,22,1,23,image/23.jpg,0,0,,R_1Jreilcdud9HMuf,2,2024-05-29_04h49.10.958,face trait task,2021.2.3,MacIntel,62.5,120429,,,,,,,
,,,,,,4,1.615,space,0.656,0,24,24,23,1,24,image/24.jpg,0,0,,R_1Jreilcdud9HMuf,2,2024-05-29_04h49.10.958,face trait task,2021.2.3,MacIntel,62.5,120429,,,,,,,
,,,,,,4.005357143,3.458,space,1.693,0,25,25,8,1,9,image/9.jpg,0,0,,R_1Jreilcdud9HMuf,2,2024-05-29_04h49.10.958,face trait task,2021.2.3,MacIntel,62.5,120429,,,,,,,
,,,,,,3.973214286,1.898,space,1.592,0,26,26,44,1,45,image/45.jpg,0,0,,R_1Jreilcdud9HMuf,2,2024-05-29_04h49.10.958,face trait task,2021.2.3,MacIntel,62.5,120429,,,,,,,
,,,,,,4.975,3.091,space,3.379,0,27,27,48,1,49,image/49.jpg,0,0,,R_1Jreilcdud9HMuf,2,2024-05-29_04h49.10.958,face trait task,2021.2.3,MacIntel,62.5,120429,,,,,,,
,,,,,,5.001785714,2.549,space,0.868,0,28,28,34,1,35,image/35.jpg,0,0,,R_1Jreilcdud9HMuf,2,2024-05-29_04h49.10.958,face trait task,2021.2.3,MacIntel,62.5,120429,,,,,,,
,,,,,,3.989285714,4.044,space,0.237,0,29,29,10,1,11,image/11.jpg,0,0,,R_1Jreilcdud9HMuf,2,2024-05-29_04h49.10.958,face trait task,2021.2.3,MacIntel,62.5,120429,,,,,,,
,,,,,,3.994642857,1.777,space,0.434,0,30,30,1,1,2,image/2.jpg,0,0,,R_1Jreilcdud9HMuf,2,2024-05-29_04h49.10.958,face trait task,2021.2.3,MacIntel,62.5,120429,,,,,,,
,,,,,,3.989285714,2.006,space,0.217,0,31,31,19,1,20,image/20.jpg,0,0,,R_1Jreilcdud9HMuf,2,2024-05-29_04h49.10.958,face trait task,2021.2.3,MacIntel,62.5,120429,,,,,,,
,,,,,,6.989285714,4.215,space,0.951,0,32,32,52,1,56,image/fill_img.png,1,7,Please move the slider all the way to the RIGHT to show that you are paying attention.,R_1Jreilcdud9HMuf,2,2024-05-29_04h49.10.958,face trait task,2021.2.3,MacIntel,62.5,120429,,,,,,,
,,,,,,2.998214286,5.545,space,3.935,0,33,33,30,1,31,image/31.jpg,0,0,,R_1Jreilcdud9HMuf,2,2024-05-29_04h49.10.958,face trait task,2021.2.3,MacIntel,62.5,120429,,,,,,,
,,,,,,1.991071429,3.025,space,0.38,0,34,34,32,1,33,image/33.jpg,0,0,,R_1Jreilcdud9HMuf,2,2024-05-29_04h49.10.958,face trait task,2021.2.3,MacIntel,62.5,120429,,,,,,,
,,,,,,4.016071429,4.113,space,0.557,0,35,35,27,1,28,image/28.jpg,0,0,,R_1Jreilcdud9HMuf,2,2024-05-29_04h49.10.958,face trait task,2021.2.3,MacIntel,62.5,120429,,,,,,,
,,,,,,4.005357143,2.916,space,0.637,0,36,36,26,1,27,image/27.jpg,0,0,,R_1Jreilcdud9HMuf,2,2024-05-29_04h49.10.958,face trait task,2021.2.3,MacIntel,62.5,120429,,,,,,,
,,,,,,3.983928571,4.898,space,0.918,0,37,37,11,1,12,image/12.jpg,0,0,,R_1Jreilcdud9HMuf,2,2024-05-29_04h49.10.958,face trait task,2021.2.3,MacIntel,62.5,120429,,,,,,,
,,,,,,1.991071429,2.779,space,2.866,0,38,38,16,1,17,image/17.jpg,0,0,,R_1Jreilcdud9HMuf,2,2024-05-29_04h49.10.958,face trait task,2021.2.3,MacIntel,62.5,120429,,,,,,,
,,,,,,2.992857143,7.482,space,5.777,0,39,39,24,1,25,image/25.jpg,0,0,,R_1Jreilcdud9HMuf,2,2024-05-29_04h49.10.958,face trait task,2021.2.3,MacIntel,62.5,120429,,,,,,,
,,,,,,2.9875,3.717,space,0.708,0,40,40,14,1,15,image/15.jpg,0,0,,R_1Jreilcdud9HMuf,2,2024-05-29_04h49.10.958,face trait task,2021.2.3,MacIntel,62.5,120429,,,,,,,
,,,,,,3.014285714,2.673,space,0.295,0,41,41,42,1,43,image/43.jpg,0,0,,R_1Jreilcdud9HMuf,2,2024-05-29_04h49.10.958,face trait task,2021.2.3,MacIntel,62.5,120429,,,,,,,
,,,,,,3.989285714,2.166,space,0.325,0,42,42,20,1,21,image/21.jpg,0,0,,R_1Jreilcdud9HMuf,2,2024-05-29_04h49.10.958,face trait task,2021.2.3,MacIntel,62.5,120429,,,,,,,
,,,,,,3.989285714,1.495,space,0.416,0,43,43,18,1,19,image/19.jpg,0,0,,R_1Jreilcdud9HMuf,2,2024-05-29_04h49.10.958,face trait task,2021.2.3,MacIntel,62.5,120429,,,,,,,
,,,,,,3.978571429,1.745,space,0.386,0,44,44,4,1,5,image/5.jpg,0,0,,R_1Jreilcdud9HMuf,2,2024-05-29_04h49.10.958,face trait task,2021.2.3,MacIntel,62.5,120429,,,,,,,
,,,,,,3.983928571,3.547,space,0.34,0,45,45,41,1,42,image/42.jpg,0,0,,R_1Jreilcdud9HMuf,2,2024-05-29_04h49.10.958,face trait task,2021.2.3,MacIntel,62.5,120429,,,,,,,
,,,,,,3.994642857,1.906,space,0.368,0,46,46,2,1,3,image/3.jpg,0,0,,R_1Jreilcdud9HMuf,2,2024-05-29_04h49.10.958,face trait task,2021.2.3,MacIntel,62.5,120429,,,,,,,
,,,,,,3.983928571,1.647,space,0.259,0,47,47,31,1,32,image/32.jpg,0,0,,R_1Jreilcdud9HMuf,2,2024-05-29_04h49.10.958,face trait task,2021.2.3,MacIntel,62.5,120429,,,,,,,
,,,,,,4.980357143,3.465,space,0.872,0,48,48,35,1,36,image/36.jpg,0,0,,R_1Jreilcdud9HMuf,2,2024-05-29_04h49.10.958,face trait task,2021.2.3,MacIntel,62.5,120429,,,,,,,
,,,,,,4.016071429,9.841,space,2.909,0,49,49,7,1,8,image/8.jpg,0,0,,R_1Jreilcdud9HMuf,2,2024-05-29_04h49.10.958,face trait task,2021.2.3,MacIntel,62.5,120429,,,,,,,
,,,,,,2.971428571,3.858,space,0.326,0,50,50,45,1,46,image/46.jpg,0,0,,R_1Jreilcdud9HMuf,2,2024-05-29_04h49.10.958,face trait task,2021.2.3,MacIntel,62.5,120429,,,,,,,
,,,,,,4,2.282,space,0.424,0,51,51,17,1,18,image/18.jpg,0,0,,R_1Jreilcdud9HMuf,2,2024-05-29_04h49.10.958,face trait task,2021.2.3,MacIntel,62.5,120429,,,,,,,
,,,,,,1.026785714,4.108,space,1.009,0,52,52,51,1,51,image/fill_img.png,1,1,Please move the slider all the way to the LEFT to show that you are paying attention.,R_1Jreilcdud9HMuf,2,2024-05-29_04h49.10.958,face trait task,2021.2.3,MacIntel,62.5,120429,,,,,,,
,,,,,,,,,,,,,,,,,,,,R_1Jreilcdud9HMuf,2,2024-05-29_04h49.10.958,face trait task,2021.2.3,MacIntel,62.5,120429,0,0,0,2,1,2,trustworthy.png
,,,,,critical,3.973214286,4.276,space,0.334,0,0,0,8,1,9,image/9.jpg,0,0,,R_1Jreilcdud9HMuf,2,2024-05-29_04h49.10.958,face trait task,2021.2.3,MacIntel,62.5,120429,,,,,,,
,,,,,,6.008928571,6.599,space,3.851,0,1,1,47,1,48,image/48.jpg,0,0,,R_1Jreilcdud9HMuf,2,2024-05-29_04h49.10.958,face trait task,2021.2.3,MacIntel,62.5,120429,,,,,,,
,,,,,,4.958928571,2.082,space,0.525,0,2,2,17,1,18,image/18.jpg,0,0,,R_1Jreilcdud9HMuf,2,2024-05-29_04h49.10.958,face trait task,2021.2.3,MacIntel,62.5,120429,,,,,,,
,,,,,,2.966071429,4.207,space,2.031,0,3,3,33,1,34,image/34.jpg,0,0,,R_1Jreilcdud9HMuf,2,2024-05-29_04h49.10.958,face trait task,2021.2.3,MacIntel,62.5,120429,,,,,,,
,,,,,,5.944642857,4.482,space,0.658,0,4,4,45,1,46,image/46.jpg,0,0,,R_1Jreilcdud9HMuf,2,2024-05-29_04h49.10.958,face trait task,2021.2.3,MacIntel,62.5,120429,,,,,,,
,,,,,,4.026785714,2.173,space,0.266,0,5,5,41,1,42,image/42.jpg,0,0,,R_1Jreilcdud9HMuf,2,2024-05-29_04h49.10.958,face trait task,2021.2.3,MacIntel,62.5,120429,,,,,,,
,,,,,,4.005357143,1.212,space,0.069,0,6,6,9,1,10,image/10.jpg,0,0,,R_1Jreilcdud9HMuf,2,2024-05-29_04h49.10.958,face trait task,2021.2.3,MacIntel,62.5,120429,,,,,,,
,,,,,,4.980357143,4.658,space,4.175,0,7,7,28,1,29,image/29.jpg,0,0,,R_1Jreilcdud9HMuf,2,2024-05-29_04h49.10.958,face trait task,2021.2.3,MacIntel,62.5,120429,,,,,,,
,,,,,,3.994642857,2.413,space,0.192,0,8,8,38,1,39,image/39.jpg,0,0,,R_1Jreilcdud9HMuf,2,2024-05-29_04h49.10.958,face trait task,2021.2.3,MacIntel,62.5,120429,,,,,,,
,,,,,,4.005357143,6.012,space,0.035,0,9,9,36,1,37,image/37.jpg,0,0,,R_1Jreilcdud9HMuf,2,2024-05-29_04h49.10.958,face trait task,2021.2.3,MacIntel,62.5,120429,,,,,,,
,,,,,,4.958928571,2.981,space,0.301,0,10,10,27,1,28,image/28.jpg,0,0,,R_1Jreilcdud9HMuf,2,2024-05-29_04h49.10.958,face trait task,2021.2.3,MacIntel,62.5,120429,,,,,,,
,,,,,,3.978571429,3.996,space,0.751,0,11,11,42,1,43,image/43.jpg,0,0,,R_1Jreilcdud9HMuf,2,2024-05-29_04h49.10.958,face trait task,2021.2.3,MacIntel,62.5,120429,,,,,,,
,,,,,,4.642857143,2.281,space,0.421,0,12,12,39,1,40,image/40.jpg,0,0,,R_1Jreilcdud9HMuf,2,2024-05-29_04h49.10.958,face trait task,2021.2.3,MacIntel,62.5,120429,,,,,,,
,,,,,,3.346428571,6.614,space,1.614,0,13,13,21,1,22,image/22.jpg,0,0,,R_1Jreilcdud9HMuf,2,2024-05-29_04h49.10.958,face trait task,2021.2.3,MacIntel,62.5,120429,,,,,,,
,,,,,,3.973214286,2.098,space,0.092,0,14,14,49,1,50,image/50.jpg,0,0,,R_1Jreilcdud9HMuf,2,2024-05-29_04h49.10.958,face trait task,2021.2.3,MacIntel,62.5,120429,,,,,,,
,,,,,,1.010714286,2.461,space,0.53,0,15,15,50,1,54,image/fill_img.png,1,1,Please move the slider all the way to the LEFT to show that you are paying attention.,R_1Jreilcdud9HMuf,2,2024-05-29_04h49.10.958,face trait task,2021.2.3,MacIntel,62.5,120429,,,,,,,
,,,,,,4.016071429,7.582,space,0.443,0,16,16,11,1,12,image/12.jpg,0,0,,R_1Jreilcdud9HMuf,2,2024-05-29_04h49.10.958,face trait task,2021.2.3,MacIntel,62.5,120429,,,,,,,
,,,,,,4.016071429,2.399,space,0.185,0,17,17,44,1,45,image/45.jpg,0,0,,R_1Jreilcdud9HMuf,2,2024-05-29_04h49.10.958,face trait task,2021.2.3,MacIntel,62.5,120429,,,,,,,
,,,,,,6.325,5.16,space,0.311,0,18,18,32,1,33,image/33.jpg,0,0,,R_1Jreilcdud9HMuf,2,2024-05-29_04h49.10.958,face trait task,2021.2.3,MacIntel,62.5,120429,,,,,,,
,,,,,,5.457142857,4.864,space,0.322,0,19,19,30,1,31,image/31.jpg,0,0,,R_1Jreilcdud9HMuf,2,2024-05-29_04h49.10.958,face trait task,2021.2.3,MacIntel,62.5,120429,,,,,,,
,,,,,,4.016071429,2.481,space,0.26,0,20,20,12,1,13,image/13.jpg,0,0,,R_1Jreilcdud9HMuf,2,2024-05-29_04h49.10.958,face trait task,2021.2.3,MacIntel,62.5,120429,,,,,,,
,,,,,,4.021428571,2.68,space,0.075,0,21,21,34,1,35,image/35.jpg,0,0,,R_1Jreilcdud9HMuf,2,2024-05-29_04h49.10.958,face trait task,2021.2.3,MacIntel,62.5,120429,,,,,,,
,,,,,,4.021428571,1.022,space,0.316,0,22,22,3,1,4,image/4.jpg,0,0,,R_1Jreilcdud9HMuf,2,2024-05-29_04h49.10.958,face trait task,2021.2.3,MacIntel,62.5,120429,,,,,,,
,,,,,,4.021428571,0.955,space,0.468,0,23,23,43,1,44,image/44.jpg,0,0,,R_1Jreilcdud9HMuf,2,2024-05-29_04h49.10.958,face trait task,2021.2.3,MacIntel,62.5,120429,,,,,,,
,,,,,,4.021428571,1.015,space,0.319,0,24,24,40,1,41,image/41.jpg,0,0,,R_1Jreilcdud9HMuf,2,2024-05-29_04h49.10.958,face trait task,2021.2.3,MacIntel,62.5,120429,,,,,,,
,,,,,,4.021428571,0.95,space,0.36,0,25,25,7,1,8,image/8.jpg,0,0,,R_1Jreilcdud9HMuf,2,2024-05-29_04h49.10.958,face trait task,2021.2.3,MacIntel,62.5,120429,,,,,,,
,,,,,,4.010714286,2.172,space,0.37,0,26,26,15,1,16,image/16.jpg,0,0,,R_1Jreilcdud9HMuf,2,2024-05-29_04h49.10.958,face trait task,2021.2.3,MacIntel,62.5,120429,,,,,,,
,,,,,,4.010714286,0.974,space,0.167,0,27,27,22,1,23,image/23.jpg,0,0,,R_1Jreilcdud9HMuf,2,2024-05-29_04h49.10.958,face trait task,2021.2.3,MacIntel,62.5,120429,,,,,,,
,,,,,,4.010714286,0.981,space,0.833,0,28,28,18,1,19,image/19.jpg,0,0,,R_1Jreilcdud9HMuf,2,2024-05-29_04h49.10.958,face trait task,2021.2.3,MacIntel,62.5,120429,,,,,,,
,,,,,,2.676785714,2.731,space,0.268,0,29,29,35,1,36,image/36.jpg,0,0,,R_1Jreilcdud9HMuf,2,2024-05-29_04h49.10.958,face trait task,2021.2.3,MacIntel,62.5,120429,,,,,,,
,,,,,,4.883928571,2.512,space,0.609,0,30,30,46,1,47,image/47.jpg,0,0,,R_1Jreilcdud9HMuf,2,2024-05-29_04h49.10.958,face trait task,2021.2.3,MacIntel,62.5,120429,,,,,,,
,,,,,,3.475,2.03,space,0.408,0,31,31,29,1,30,image/30.jpg,0,0,,R_1Jreilcdud9HMuf,2,2024-05-29_04h49.10.958,face trait task,2021.2.3,MacIntel,62.5,120429,,,,,,,
,,,,,,3.9625,1.816,space,0.182,0,32,32,24,1,25,image/25.jpg,0,0,,R_1Jreilcdud9HMuf,2,2024-05-29_04h49.10.958,face trait task,2021.2.3,MacIntel,62.5,120429,,,,,,,
,,,,,,1.005357143,2.622,space,0.3,0,33,33,51,1,51,image/fill_img.png,1,1,Please move the slider all the way to the LEFT to show that you are paying attention.,R_1Jreilcdud9HMuf,2,2024-05-29_04h49.10.958,face trait task,2021.2.3,MacIntel,62.5,120429,,,,,,,
,,,,,,4.048214286,4.456,space,0.311,0,34,34,23,1,24,image/24.jpg,0,0,,R_1Jreilcdud9HMuf,2,2024-05-29_04h49.10.958,face trait task,2021.2.3,MacIntel,62.5,120429,,,,,,,
,,,,,,3.951785714,6.522,space,0.516,0,35,35,20,1,21,image/21.jpg,0,0,,R_1Jreilcdud9HMuf,2,2024-05-29_04h49.10.958,face trait task,2021.2.3,MacIntel,62.5,120429,,,,,,,
,,,,,,6.217857143,6.098,space,3.089,0,36,36,0,1,1,image/1.jpg,0,0,,R_1Jreilcdud9HMuf,2,2024-05-29_04h49.10.958,face trait task,2021.2.3,MacIntel,62.5,120429,,,,,,,
,,,,,,4.375,3.028,space,0.268,0,37,37,37,1,38,image/38.jpg,0,0,,R_1Jreilcdud9HMuf,2,2024-05-29_04h49.10.958,face trait task,2021.2.3,MacIntel,62.5,120429,,,,,,,
,,,,,,4.75,7.348,space,3.054,0,38,38,13,1,14,image/14.jpg,0,0,,R_1Jreilcdud9HMuf,2,2024-05-29_04h49.10.958,face trait task,2021.2.3,MacIntel,62.5,120429,,,,,,,
,,,,,,5.1625,4.115,space,2.624,0,39,39,19,1,20,image/20.jpg,0,0,,R_1Jreilcdud9HMuf,2,2024-05-29_04h49.10.958,face trait task,2021.2.3,MacIntel,62.5,120429,,,,,,,
,,,,,,3.748214286,3.399,space,0.757,0,40,40,5,1,6,image/6.jpg,0,0,,R_1Jreilcdud9HMuf,2,2024-05-29_04h49.10.958,face trait task,2021.2.3,MacIntel,62.5,120429,,,,,,,
,,,,,,4.010714286,6.213,space,0.717,0,41,41,31,1,32,image/32.jpg,0,0,,R_1Jreilcdud9HMuf,2,2024-05-29_04h49.10.958,face trait task,2021.2.3,MacIntel,62.5,120429,,,,,,,
,,,,,,5.339285714,2.431,space,0.644,0,42,42,16,1,17,image/17.jpg,0,0,,R_1Jreilcdud9HMuf,2,2024-05-29_04h49.10.958,face trait task,2021.2.3,MacIntel,62.5,120429,,,,,,,
,,,,,,6.983928571,2.907,space,0.303,0,43,43,52,1,56,image/fill_img.png,1,7,Please move the slider all the way to the RIGHT to show that you are paying attention.,R_1Jreilcdud9HMuf,2,2024-05-29_04h49.10.958,face trait task,2021.2.3,MacIntel,62.5,120429,,,,,,,
,,,,,,5.575,3.44,space,0.264,0,44,44,4,1,5,image/5.jpg,0,0,,R_1Jreilcdud9HMuf,2,2024-05-29_04h49.10.958,face trait task,2021.2.3,MacIntel,62.5,120429,,,,,,,
,,,,,,6.876785714,3.924,space,2.235,0,45,45,1,1,2,image/2.jpg,0,0,,R_1Jreilcdud9HMuf,2,2024-05-29_04h49.10.958,face trait task,2021.2.3,MacIntel,62.5,120429,,,,,,,
,,,,,,4.021428571,2.114,space,0.242,0,46,46,6,1,7,image/7.jpg,0,0,,R_1Jreilcdud9HMuf,2,2024-05-29_04h49.10.958,face trait task,2021.2.3,MacIntel,62.5,120429,,,,,,,
,,,,,,5.601785714,2.898,space,0.226,0,47,47,14,1,15,image/15.jpg,0,0,,R_1Jreilcdud9HMuf,2,2024-05-29_04h49.10.958,face trait task,2021.2.3,MacIntel,62.5,120429,,,,,,,
,,,,,,5.371428571,3.413,space,0.323,0,48,48,10,1,11,image/11.jpg,0,0,,R_1Jreilcdud9HMuf,2,2024-05-29_04h49.10.958,face trait task,2021.2.3,MacIntel,62.5,120429,,,,,,,
,,,,,,3.983928571,2.231,space,1.739,0,49,49,48,1,49,image/49.jpg,0,0,,R_1Jreilcdud9HMuf,2,2024-05-29_04h49.10.958,face trait task,2021.2.3,MacIntel,62.5,120429,,,,,,,
,,,,,,4.0375,1.748,space,0.093,0,50,50,25,1,26,image/26.jpg,0,0,,R_1Jreilcdud9HMuf,2,2024-05-29_04h49.10.958,face trait task,2021.2.3,MacIntel,62.5,120429,,,,,,,
,,,,,,4.841071429,2.207,space,0.161,0,51,51,2,1,3,image/3.jpg,0,0,,R_1Jreilcdud9HMuf,2,2024-05-29_04h49.10.958,face trait task,2021.2.3,MacIntel,62.5,120429,,,,,,,
,,,,,,2.569642857,7.372,space,1.464,0,52,52,26,1,27,image/27.jpg,0,0,,R_1Jreilcdud9HMuf,2,2024-05-29_04h49.10.958,face trait task,2021.2.3,MacIntel,62.5,120429,,,,,,,
,,,,,,,,,,,,,,,,,,,,R_1Jreilcdud9HMuf,2,2024-05-29_04h49.10.958,face trait task,2021.2.3,MacIntel,62.5,120429,0,1,1,0,1,0,critical.png
,,,,,competent,5.366071429,5.652,space,0.439,0,0,0,7,1,8,image/8.jpg,0,0,,R_1Jreilcdud9HMuf,2,2024-05-29_04h49.10.958,face trait task,2021.2.3,MacIntel,62.5,120429,,,,,,,
,,,,,,3.710714286,2.998,space,1.025,0,1,1,46,1,47,image/47.jpg,0,0,,R_1Jreilcdud9HMuf,2,2024-05-29_04h49.10.958,face trait task,2021.2.3,MacIntel,62.5,120429,,,,,,,
,,,,,,3.978571429,3.162,space,0.21,0,2,2,0,1,1,image/1.jpg,0,0,,R_1Jreilcdud9HMuf,2,2024-05-29_04h49.10.958,face trait task,2021.2.3,MacIntel,62.5,120429,,,,,,,
,,,,,,3.989285714,1.215,space,0.194,0,3,3,3,1,4,image/4.jpg,0,0,,R_1Jreilcdud9HMuf,2,2024-05-29_04h49.10.958,face trait task,2021.2.3,MacIntel,62.5,120429,,,,,,,
,,,,,,3.983928571,0.823,space,0.261,0,4,4,21,1,22,image/22.jpg,0,0,,R_1Jreilcdud9HMuf,2,2024-05-29_04h49.10.958,face trait task,2021.2.3,MacIntel,62.5,120429,,,,,,,
,,,,,,3.983928571,0.945,space,0.714,0,5,5,10,1,11,image/11.jpg,0,0,,R_1Jreilcdud9HMuf,2,2024-05-29_04h49.10.958,face trait task,2021.2.3,MacIntel,62.5,120429,,,,,,,
,,,,,,3.983928571,1.223,space,0.333,0,6,6,17,1,18,image/18.jpg,0,0,,R_1Jreilcdud9HMuf,2,2024-05-29_04h49.10.958,face trait task,2021.2.3,MacIntel,62.5,120429,,,,,,,
,,,,,,3.973214286,1.499,space,0.441,0,7,7,24,1,25,image/25.jpg,0,0,,R_1Jreilcdud9HMuf,2,2024-05-29_04h49.10.958,face trait task,2021.2.3,MacIntel,62.5,120429,,,,,,,
,,,,,,4.626785714,1.807,space,0.214,0,8,8,49,1,50,image/50.jpg,0,0,,R_1Jreilcdud9HMuf,2,2024-05-29_04h49.10.958,face trait task,2021.2.3,MacIntel,62.5,120429,,,,,,,
,,,,,,4.010714286,3.594,space,0.235,0,9,9,28,1,29,image/29.jpg,0,0,,R_1Jreilcdud9HMuf,2,2024-05-29_04h49.10.958,face trait task,2021.2.3,MacIntel,62.5,120429,,,,,,,
,,,,,,4.026785714,2.723,space,0.267,0,10,10,36,1,37,image/37.jpg,0,0,,R_1Jreilcdud9HMuf,2,2024-05-29_04h49.10.958,face trait task,2021.2.3,MacIntel,62.5,120429,,,,,,,
,,,,,,4.032142857,1.346,space,0.428,0,11,11,22,1,23,image/23.jpg,0,0,,R_1Jreilcdud9HMuf,2,2024-05-29_04h49.10.958,face trait task,2021.2.3,MacIntel,62.5,120429,,,,,,,
,,,,,,1.016071429,2.557,space,0.41,0,12,12,50,1,54,image/fill_img.png,1,1,Please move the slider all the way to the LEFT to show that you are paying attention.,R_1Jreilcdud9HMuf,2,2024-05-29_04h49.10.958,face trait task,2021.2.3,MacIntel,62.5,120429,,,,,,,
,,,,,,4.091071429,2.893,space,0.805,0,13,13,29,1,30,image/30.jpg,0,0,,R_1Jreilcdud9HMuf,2,2024-05-29_04h49.10.958,face trait task,2021.2.3,MacIntel,62.5,120429,,,,,,,
,,,,,,3.828571429,2.573,space,0.114,0,14,14,13,1,14,image/14.jpg,0,0,,R_1Jreilcdud9HMuf,2,2024-05-29_04h49.10.958,face trait task,2021.2.3,MacIntel,62.5,120429,,,,,,,
,,,,,,3.983928571,2.611,space,1.277,0,15,15,19,1,20,image/20.jpg,0,0,,R_1Jreilcdud9HMuf,2,2024-05-29_04h49.10.958,face trait task,2021.2.3,MacIntel,62.5,120429,,,,,,,
,,,,,,4.032142857,2.543,space,0.269,0,16,16,30,1,31,image/31.jpg,0,0,,R_1Jreilcdud9HMuf,2,2024-05-29_04h49.10.958,face trait task,2021.2.3,MacIntel,62.5,120429,,,,,,,
,,,,,,6.994642857,3.015,space,0.658,0,17,17,52,1,56,image/fill_img.png,1,7,Please move the slider all the way to the RIGHT to show that you are paying attention.,R_1Jreilcdud9HMuf,2,2024-05-29_04h49.10.958,face trait task,2021.2.3,MacIntel,62.5,120429,,,,,,,
,,,,,,4.005357143,4.913,space,0.112,0,18,18,43,1,44,image/44.jpg,0,0,,R_1Jreilcdud9HMuf,2,2024-05-29_04h49.10.958,face trait task,2021.2.3,MacIntel,62.5,120429,,,,,,,
,,,,,,2.757142857,3.678,space,1.442,0,19,19,32,1,33,image/33.jpg,0,0,,R_1Jreilcdud9HMuf,2,2024-05-29_04h49.10.958,face trait task,2021.2.3,MacIntel,62.5,120429,,,,,,,
,,,,,,3.930357143,1.632,space,0.393,0,20,20,27,1,28,image/28.jpg,0,0,,R_1Jreilcdud9HMuf,2,2024-05-29_04h49.10.958,face trait task,2021.2.3,MacIntel,62.5,120429,,,,,,,
,,,,,,4.117857143,3.299,space,2.15,0,21,21,4,1,5,image/5.jpg,0,0,,R_1Jreilcdud9HMuf,2,2024-05-29_04h49.10.958,face trait task,2021.2.3,MacIntel,62.5,120429,,,,,,,
,,,,,,3.507142857,2.077,space,0.25,0,22,22,16,1,17,image/17.jpg,0,0,,R_1Jreilcdud9HMuf,2,2024-05-29_04h49.10.958,face trait task,2021.2.3,MacIntel,62.5,120429,,,,,,,
,,,,,,4.996428571,7.665,space,0.367,0,23,23,41,1,42,image/42.jpg,0,0,,R_1Jreilcdud9HMuf,2,2024-05-29_04h49.10.958,face trait task,2021.2.3,MacIntel,62.5,120429,,,,,,,
,,,,,,3.732142857,4.064,space,0.909,0,24,24,15,1,16,image/16.jpg,0,0,,R_1Jreilcdud9HMuf,2,2024-05-29_04h49.10.958,face trait task,2021.2.3,MacIntel,62.5,120429,,,,,,,
,,,,,,5.982142857,2.328,space,0.4,0,25,25,33,1,34,image/34.jpg,0,0,,R_1Jreilcdud9HMuf,2,2024-05-29_04h49.10.958,face trait task,2021.2.3,MacIntel,62.5,120429,,,,,,,
,,,,,,2.526785714,4.024,space,0.441,0,26,26,40,1,41,image/41.jpg,0,0,,R_1Jreilcdud9HMuf,2,2024-05-29_04h49.10.958,face trait task,2021.2.3,MacIntel,62.5,120429,,,,,,,
,,,,,,4.005357143,2.914,space,1.052,0,27,27,5,1,6,image/6.jpg,0,0,,R_1Jreilcdud9HMuf,2,2024-05-29_04h49.10.958,face trait task,2021.2.3,MacIntel,62.5,120429,,,,,,,
,,,,,,4.005357143,1.314,space,0.187,0,28,28,9,1,10,image/10.jpg,0,0,,R_1Jreilcdud9HMuf,2,2024-05-29_04h49.10.958,face trait task,2021.2.3,MacIntel,62.5,120429,,,,,,,
,,,,,,5.066071429,1.881,space,1.409,0,29,29,38,1,39,image/39.jpg,0,0,,R_1Jreilcdud9HMuf,2,2024-05-29_04h49.10.958,face trait task,2021.2.3,MacIntel,62.5,120429,,,,,,,
,,,,,,3.571428571,1.699,space,0.259,0,30,30,8,1,9,image/9.jpg,0,0,,R_1Jreilcdud9HMuf,2,2024-05-29_04h49.10.958,face trait task,2021.2.3,MacIntel,62.5,120429,,,,,,,
,,,,,,3.110714286,2.547,space,0.359,0,31,31,14,1,15,image/15.jpg,0,0,,R_1Jreilcdud9HMuf,2,2024-05-29_04h49.10.958,face trait task,2021.2.3,MacIntel,62.5,120429,,,,,,,
,,,,,,6.458928571,2.826,space,0.667,0,32,32,35,1,36,image/36.jpg,0,0,,R_1Jreilcdud9HMuf,2,2024-05-29_04h49.10.958,face trait task,2021.2.3,MacIntel,62.5,120429,,,,,,,
,,,,,,5.023214286,1.866,space,0.363,0,33,33,45,1,46,image/46.jpg,0,0,,R_1Jreilcdud9HMuf,2,2024-05-29_04h49.10.958,face trait task,2021.2.3,MacIntel,62.5,120429,,,,,,,
,,,,,,5.644642857,2.157,space,0.233,0,34,34,47,1,48,image/48.jpg,0,0,,R_1Jreilcdud9HMuf,2,2024-05-29_04h49.10.958,face trait task,2021.2.3,MacIntel,62.5,120429,,,,,,,
,,,,,,5.280357143,1.631,space,0.518,0,35,35,48,1,49,image/49.jpg,0,0,,R_1Jreilcdud9HMuf,2,2024-05-29_04h49.10.958,face trait task,2021.2.3,MacIntel,62.5,120429,,,,,,,
,,,,,,6.041071429,2.747,space,0.483,0,36,36,26,1,27,image/27.jpg,0,0,,R_1Jreilcdud9HMuf,2,2024-05-29_04h49.10.958,face trait task,2021.2.3,MacIntel,62.5,120429,,,,,,,
,,,,,,4.257142857,3.359,space,1.719,0,37,37,25,1,26,image/26.jpg,0,0,,R_1Jreilcdud9HMuf,2,2024-05-29_04h49.10.958,face trait task,2021.2.3,MacIntel,62.5,120429,,,,,,,
,,,,,,3.994642857,1.915,space,1.418,0,38,38,6,1,7,image/7.jpg,0,0,,R_1Jreilcdud9HMuf,2,2024-05-29_04h49.10.958,face trait task,2021.2.3,MacIntel,62.5,120429,,,,,,,
,,,,,,4,110.982,space,0.942,0,39,39,20,1,21,image/21.jpg,0,0,,R_1Jreilcdud9HMuf,2,2024-05-29_04h49.10.958,face trait task,2021.2.3,MacIntel,62.5,120429,,,,,,,
,,,,,,3.994642857,3.663,space,0.593,0,40,40,39,1,40,image/40.jpg,0,0,,R_1Jreilcdud9HMuf,2,2024-05-29_04h49.10.958,face trait task,2021.2.3,MacIntel,62.5,120429,,,,,,,
,,,,,,3.989285714,3.5,space,0.774,0,41,41,12,1,13,image/13.jpg,0,0,,R_1Jreilcdud9HMuf,2,2024-05-29_04h49.10.958,face trait task,2021.2.3,MacIntel,62.5,120429,,,,,,,
,,,,,,5.033928571,7.863,space,1.622,0,42,42,31,1,32,image/32.jpg,0,0,,R_1Jreilcdud9HMuf,2,2024-05-29_04h49.10.958,face trait task,2021.2.3,MacIntel,62.5,120429,,,,,,,
,,,,,,3.373214286,11.215,space,0.344,0,43,43,2,1,3,image/3.jpg,0,0,,R_1Jreilcdud9HMuf,2,2024-05-29_04h49.10.958,face trait task,2021.2.3,MacIntel,62.5,120429,,,,,,,
,,,,,,2.735714286,4.541,space,1.108,0,44,44,18,1,19,image/19.jpg,0,0,,R_1Jreilcdud9HMuf,2,2024-05-29_04h49.10.958,face trait task,2021.2.3,MacIntel,62.5,120429,,,,,,,
,,,,,,1.021428571,3.708,space,0.584,0,45,45,51,1,51,image/fill_img.png,1,1,Please move the slider all the way to the LEFT to show that you are paying attention.,R_1Jreilcdud9HMuf,2,2024-05-29_04h49.10.958,face trait task,2021.2.3,MacIntel,62.5,120429,,,,,,,
,,,,,,3.983928571,1.872,space,0.575,0,46,46,11,1,12,image/12.jpg,0,0,,R_1Jreilcdud9HMuf,2,2024-05-29_04h49.10.958,face trait task,2021.2.3,MacIntel,62.5,120429,,,,,,,
,,,,,,3.983928571,1.846,space,0.329,0,47,47,37,1,38,image/38.jpg,0,0,,R_1Jreilcdud9HMuf,2,2024-05-29_04h49.10.958,face trait task,2021.2.3,MacIntel,62.5,120429,,,,,,,
,,,,,,5.601785714,5.496,space,0.853,0,48,48,42,1,43,image/43.jpg,0,0,,R_1Jreilcdud9HMuf,2,2024-05-29_04h49.10.958,face trait task,2021.2.3,MacIntel,62.5,120429,,,,,,,
,,,,,,5.301785714,286.083,space,0.459,0,49,49,1,1,2,image/2.jpg,0,0,,R_1Jreilcdud9HMuf,2,2024-05-29_04h49.10.958,face trait task,2021.2.3,MacIntel,62.5,120429,,,,,,,
,,,,,,3.994642857,2.698,space,0.157,0,50,50,23,1,24,image/24.jpg,0,0,,R_1Jreilcdud9HMuf,2,2024-05-29_04h49.10.958,face trait task,2021.2.3,MacIntel,62.5,120429,,,,,,,
,,,,,,3.978571429,3.762,space,4.759,0,51,51,44,1,45,image/45.jpg,0,0,,R_1Jreilcdud9HMuf,2,2024-05-29_04h49.10.958,face trait task,2021.2.3,MacIntel,62.5,120429,,,,,,,
,,,,,,4.985714286,2.08,space,0.192,0,52,52,34,1,35,image/35.jpg,0,0,,R_1Jreilcdud9HMuf,2,2024-05-29_04h49.10.958,face trait task,2021.2.3,MacIntel,62.5,120429,,,,,,,
,,,,,,,,,,,,,,,,,,,,R_1Jreilcdud9HMuf,2,2024-05-29_04h49.10.958,face trait task,2021.2.3,MacIntel,62.5,120429,0,2,2,1,1,1,competent.png
,,,,,friendly,3.978571429,5.339,space,1.616,0,0,0,17,1,18,image/18.jpg,0,0,,R_1Jreilcdud9HMuf,2,2024-05-29_04h49.10.958,face trait task,2021.2.3,MacIntel,62.5,120429,,,,,,,
,,,,,,3.983928571,1.891,space,0.135,0,1,1,39,1,40,image/40.jpg,0,0,,R_1Jreilcdud9HMuf,2,2024-05-29_04h49.10.958,face trait task,2021.2.3,MacIntel,62.5,120429,,,,,,,
,,,,,,6.967857143,2.531,space,0.867,0,2,2,33,1,34,image/34.jpg,0,0,,R_1Jreilcdud9HMuf,2,2024-05-29_04h49.10.958,face trait task,2021.2.3,MacIntel,62.5,120429,,,,,,,
,,,,,,5.317857143,5.213,space,1.026,0,3,3,44,1,45,image/45.jpg,0,0,,R_1Jreilcdud9HMuf,2,2024-05-29_04h49.10.958,face trait task,2021.2.3,MacIntel,62.5,120429,,,,,,,
,,,,,,5.317857143,7.248,space,1.075,0,4,4,38,1,39,image/39.jpg,0,0,,R_1Jreilcdud9HMuf,2,2024-05-29_04h49.10.958,face trait task,2021.2.3,MacIntel,62.5,120429,,,,,,,
,,,,,,6.073214286,2.263,space,0.84,0,5,5,35,1,36,image/36.jpg,0,0,,R_1Jreilcdud9HMuf,2,2024-05-29_04h49.10.958,face trait task,2021.2.3,MacIntel,62.5,120429,,,,,,,
,,,,,,5.173214286,1.539,space,0.369,0,6,6,48,1,49,image/49.jpg,0,0,,R_1Jreilcdud9HMuf,2,2024-05-29_04h49.10.958,face trait task,2021.2.3,MacIntel,62.5,120429,,,,,,,
,,,,,,4.107142857,2.332,space,0.493,0,7,7,9,1,10,image/10.jpg,0,0,,R_1Jreilcdud9HMuf,2,2024-05-29_04h49.10.958,face trait task,2021.2.3,MacIntel,62.5,120429,,,,,,,
,,,,,,3.308928571,2.014,space,0.235,0,8,8,21,1,22,image/22.jpg,0,0,,R_1Jreilcdud9HMuf,2,2024-05-29_04h49.10.958,face trait task,2021.2.3,MacIntel,62.5,120429,,,,,,,
,,,,,,3.9625,1.673,space,0.332,0,9,9,27,1,28,image/28.jpg,0,0,,R_1Jreilcdud9HMuf,2,2024-05-29_04h49.10.958,face trait task,2021.2.3,MacIntel,62.5,120429,,,,,,,
,,,,,,4.005357143,1.878,space,0.093,0,10,10,7,1,8,image/8.jpg,0,0,,R_1Jreilcdud9HMuf,2,2024-05-29_04h49.10.958,face trait task,2021.2.3,MacIntel,62.5,120429,,,,,,,
,,,,,,6.978571429,3.064,space,0.506,0,11,11,52,1,56,image/fill_img.png,1,7,Please move the slider all the way to the RIGHT to show that you are paying attention.,R_1Jreilcdud9HMuf,2,2024-05-29_04h49.10.958,face trait task,2021.2.3,MacIntel,62.5,120429,,,,,,,
,,,,,,3.180357143,2.598,space,0.301,0,12,12,0,1,1,image/1.jpg,0,0,,R_1Jreilcdud9HMuf,2,2024-05-29_04h49.10.958,face trait task,2021.2.3,MacIntel,62.5,120429,,,,,,,
,,,,,,3.057142857,3.165,space,0.893,0,13,13,45,1,46,image/46.jpg,0,0,,R_1Jreilcdud9HMuf,2,2024-05-29_04h49.10.958,face trait task,2021.2.3,MacIntel,62.5,120429,,,,,,,
,,,,,,4.032142857,2.991,space,0.343,0,14,14,42,1,43,image/43.jpg,0,0,,R_1Jreilcdud9HMuf,2,2024-05-29_04h49.10.958,face trait task,2021.2.3,MacIntel,62.5,120429,,,,,,,
,,,,,,3.9625,5.374,space,3.085,0,15,15,5,1,6,image/6.jpg,0,0,,R_1Jreilcdud9HMuf,2,2024-05-29_04h49.10.958,face trait task,2021.2.3,MacIntel,62.5,120429,,,,,,,
,,,,,,3.989285714,1.857,space,0.118,0,16,16,34,1,35,image/35.jpg,0,0,,R_1Jreilcdud9HMuf,2,2024-05-29_04h49.10.958,face trait task,2021.2.3,MacIntel,62.5,120429,,,,,,,
,,,,,,2.441071429,2.648,space,0.156,0,17,17,14,1,15,image/15.jpg,0,0,,R_1Jreilcdud9HMuf,2,2024-05-29_04h49.10.958,face trait task,2021.2.3,MacIntel,62.5,120429,,,,,,,
,,,,,,5.060714286,2.989,space,0.781,0,18,18,25,1,26,image/26.jpg,0,0,,R_1Jreilcdud9HMuf,2,2024-05-29_04h49.10.958,face trait task,2021.2.3,MacIntel,62.5,120429,,,,,,,
,,,,,,4.032142857,4.212,space,0.459,0,19,19,10,1,11,image/11.jpg,0,0,,R_1Jreilcdud9HMuf,2,2024-05-29_04h49.10.958,face trait task,2021.2.3,MacIntel,62.5,120429,,,,,,,
,,,,,,6.073214286,6.476,space,3,0,20,20,26,1,27,image/27.jpg,0,0,,R_1Jreilcdud9HMuf,2,2024-05-29_04h49.10.958,face trait task,2021.2.3,MacIntel,62.5,120429,,,,,,,
,,,,,,4.605357143,2.641,space,0.268,0,21,21,41,1,42,image/42.jpg,0,0,,R_1Jreilcdud9HMuf,2,2024-05-29_04h49.10.958,face trait task,2021.2.3,MacIntel,62.5,120429,,,,,,,
,,,,,,4.005357143,1.956,space,0.117,0,22,22,13,1,14,image/14.jpg,0,0,,R_1Jreilcdud9HMuf,2,2024-05-29_04h49.10.958,face trait task,2021.2.3,MacIntel,62.5,120429,,,,,,,
,,,,,,4.010714286,2.931,space,0.625,0,23,23,23,1,24,image/24.jpg,0,0,,R_1Jreilcdud9HMuf,2,2024-05-29_04h49.10.958,face trait task,2021.2.3,MacIntel,62.5,120429,,,,,,,
,,,,,,2.816071429,3.349,space,0.859,0,24,24,46,1,47,image/47.jpg,0,0,,R_1Jreilcdud9HMuf,2,2024-05-29_04h49.10.958,face trait task,2021.2.3,MacIntel,62.5,120429,,,,,,,
,,,,,,1.016071429,2.14,space,0.178,0,25,25,50,1,54,image/fill_img.png,1,1,Please move the slider all the way to the LEFT to show that you are paying attention.,R_1Jreilcdud9HMuf,2,2024-05-29_04h49.10.958,face trait task,2021.2.3,MacIntel,62.5,120429,,,,,,,
,,,,,,4.0375,2.461,space,1.06,0,26,26,11,1,12,image/12.jpg,0,0,,R_1Jreilcdud9HMuf,2,2024-05-29_04h49.10.958,face trait task,2021.2.3,MacIntel,62.5,120429,,,,,,,
,,,,,,4.016071429,2.449,space,0.171,0,27,27,18,1,19,image/19.jpg,0,0,,R_1Jreilcdud9HMuf,2,2024-05-29_04h49.10.958,face trait task,2021.2.3,MacIntel,62.5,120429,,,,,,,
,,,,,,4.685714286,1.519,space,0.301,0,28,28,47,1,48,image/48.jpg,0,0,,R_1Jreilcdud9HMuf,2,2024-05-29_04h49.10.958,face trait task,2021.2.3,MacIntel,62.5,120429,,,,,,,
,,,,,,4.069642857,5.115,space,0.625,0,29,29,43,1,44,image/44.jpg,0,0,,R_1Jreilcdud9HMuf,2,2024-05-29_04h49.10.958,face trait task,2021.2.3,MacIntel,62.5,120429,,,,,,,
,,,,,,3.989285714,1.99,space,1.21,0,30,30,2,1,3,image/3.jpg,0,0,,R_1Jreilcdud9HMuf,2,2024-05-29_04h49.10.958,face trait task,2021.2.3,MacIntel,62.5,120429,,,,,,,
,,,,,,2.864285714,4.174,space,0.133,0,31,31,32,1,33,image/33.jpg,0,0,,R_1Jreilcdud9HMuf,2,2024-05-29_04h49.10.958,face trait task,2021.2.3,MacIntel,62.5,120429,,,,,,,
,,,,,,5.125,2.664,space,0.551,0,32,32,15,1,16,image/16.jpg,0,0,,R_1Jreilcdud9HMuf,2,2024-05-29_04h49.10.958,face trait task,2021.2.3,MacIntel,62.5,120429,,,,,,,
,,,,,,3.823214286,1.34,space,0.17,0,33,33,16,1,17,image/17.jpg,0,0,,R_1Jreilcdud9HMuf,2,2024-05-29_04h49.10.958,face trait task,2021.2.3,MacIntel,62.5,120429,,,,,,,
,,,,,,3.491071429,1.965,space,0.381,0,34,34,40,1,41,image/41.jpg,0,0,,R_1Jreilcdud9HMuf,2,2024-05-29_04h49.10.958,face trait task,2021.2.3,MacIntel,62.5,120429,,,,,,,
,,,,,,4.021428571,3.658,space,0.115,0,35,35,24,1,25,image/25.jpg,0,0,,R_1Jreilcdud9HMuf,2,2024-05-29_04h49.10.958,face trait task,2021.2.3,MacIntel,62.5,120429,,,,,,,
,,,,,,4.005357143,1.758,space,0.183,0,36,36,3,1,4,image/4.jpg,0,0,,R_1Jreilcdud9HMuf,2,2024-05-29_04h49.10.958,face trait task,2021.2.3,MacIntel,62.5,120429,,,,,,,
,,,,,,4.005357143,1.449,space,0.309,0,37,37,6,1,7,image/7.jpg,0,0,,R_1Jreilcdud9HMuf,2,2024-05-29_04h49.10.958,face trait task,2021.2.3,MacIntel,62.5,120429,,,,,,,
,,,,,,3.555357143,3.228,space,0.138,0,38,38,30,1,31,image/31.jpg,0,0,,R_1Jreilcdud9HMuf,2,2024-05-29_04h49.10.958,face trait task,2021.2.3,MacIntel,62.5,120429,,,,,,,
,,,,,,4,1.715,space,0.868,0,39,39,49,1,50,image/50.jpg,0,0,,R_1Jreilcdud9HMuf,2,2024-05-29_04h49.10.958,face trait task,2021.2.3,MacIntel,62.5,120429,,,,,,,
,,,,,,4.669642857,3.648,space,2.357,0,40,40,31,1,32,image/32.jpg,0,0,,R_1Jreilcdud9HMuf,2,2024-05-29_04h49.10.958,face trait task,2021.2.3,MacIntel,62.5,120429,,,,,,,
,,,,,,5.226785714,2.645,space,0.43,0,41,41,20,1,21,image/21.jpg,0,0,,R_1Jreilcdud9HMuf,2,2024-05-29_04h49.10.958,face trait task,2021.2.3,MacIntel,62.5,120429,,,,,,,
,,,,,,4,3.378,space,0.155,0,42,42,1,1,2,image/2.jpg,0,0,,R_1Jreilcdud9HMuf,2,2024-05-29_04h49.10.958,face trait task,2021.2.3,MacIntel,62.5,120429,,,,,,,
,,,,,,4,1.557,space,1.364,0,43,43,37,1,38,image/38.jpg,0,0,,R_1Jreilcdud9HMuf,2,2024-05-29_04h49.10.958,face trait task,2021.2.3,MacIntel,62.5,120429,,,,,,,
,,,,,,4.021428571,1.948,space,0.059,0,44,44,19,1,20,image/20.jpg,0,0,,R_1Jreilcdud9HMuf,2,2024-05-29_04h49.10.958,face trait task,2021.2.3,MacIntel,62.5,120429,,,,,,,
,,,,,,2.789285714,1.797,space,0.258,0,45,45,12,1,13,image/13.jpg,0,0,,R_1Jreilcdud9HMuf,2,2024-05-29_04h49.10.958,face trait task,2021.2.3,MacIntel,62.5,120429,,,,,,,
,,,,,,3.132142857,2.19,space,0.333,0,46,46,36,1,37,image/37.jpg,0,0,,R_1Jreilcdud9HMuf,2,2024-05-29_04h49.10.958,face trait task,2021.2.3,MacIntel,62.5,120429,,,,,,,
,,,,,,3.983928571,1.716,space,0.082,0,47,47,28,1,29,image/29.jpg,0,0,,R_1Jreilcdud9HMuf,2,2024-05-29_04h49.10.958,face trait task,2021.2.3,MacIntel,62.5,120429,,,,,,,
,,,,,,4.905357143,2.108,space,0.678,0,48,48,22,1,23,image/23.jpg,0,0,,R_1Jreilcdud9HMuf,2,2024-05-29_04h49.10.958,face trait task,2021.2.3,MacIntel,62.5,120429,,,,,,,
,,,,,,3.796428571,2.064,space,0.158,0,49,49,8,1,9,image/9.jpg,0,0,,R_1Jreilcdud9HMuf,2,2024-05-29_04h49.10.958,face trait task,2021.2.3,MacIntel,62.5,120429,,,,,,,
,,,,,,1.048214286,3.266,space,0.438,0,50,50,51,1,51,image/fill_img.png,1,1,Please move the slider all the way to the LEFT to show that you are paying attention.,R_1Jreilcdud9HMuf,2,2024-05-29_04h49.10.958,face trait task,2021.2.3,MacIntel,62.5,120429,,,,,,,
,,,,,,4.032142857,3.582,space,0.207,0,51,51,4,1,5,image/5.jpg,0,0,,R_1Jreilcdud9HMuf,2,2024-05-29_04h49.10.958,face trait task,2021.2.3,MacIntel,62.5,120429,,,,,,,
,,,,,,5.2,2.38,space,2.541,0,52,52,29,1,30,image/30.jpg,0,0,,R_1Jreilcdud9HMuf,2,2024-05-29_04h49.10.958,face trait task,2021.2.3,MacIntel,62.5,120429,,,,,,,
,,,,,,,,,,,,,,,,,,,,R_1Jreilcdud9HMuf,2,2024-05-29_04h49.10.958,face trait task,2021.2.3,MacIntel,62.5,120429,0,3,3,3,1,3,friendly.png
