chooserow,ParID,pre_instru_resp_2.keys,pre_instru_resp_2.rt,pre_instru_resp_3.keys,pre_instru_resp_3.rt,pre_instru_resp_9.keys,pre_instru_resp_9.rt,pre_instru_resp_8.keys,pre_instru_resp_8.rt,pre_instru_resp_4.keys,pre_instru_resp_4.rt,pre_instru_resp_5.keys,pre_instru_resp_5.rt,pre_instru_resp_6.keys,pre_instru_resp_6.rt,key_resp_3.keys,key_resp_3.rt,key_resp_4.keys,key_resp_4.rt,key_resp_5.keys,key_resp_5.rt,key_resp_6.keys,key_resp_6.rt,key_resp_7.keys,key_resp_7.rt,trials_2.thisRepN,trials_2.thisTrialN,trials_2.thisN,trials_2.thisIndex,trials_2.ran,participant,session,date,expName,psychopyVersion,OS,frameRate,SONAid,pre_instru_resp.keys,pre_instru_resp.rt,clicked,judge_2.x,judge_2.y,judge_2.leftButton,judge_2.midButton,judge_2.rightButton,judge_2.clicked_name,trials.thisRepN,trials.thisTrialN,trials.thisN,trials.thisIndex,trials.ran,prac_answer,prac_dot_sti,dotlefttext,dotrighttext,prac_acc,judge.x,judge.y,judge.leftButton,judge.midButton,judge.rightButton,judge.clicked_name,clicked_guilt,slider_guilt.response,slider_guilt.rt,key_guilt.keys,key_guilt.rt,share_slider.response,share_slider.rt,key_share.keys,slider_apology.response,slider_apology.rt,key_apology.keys,slider_hide.response,slider_hide.rt,slider_forgiveness.response,slider_forgiveness.rt,key_forgiveness.keys,slider_mad.response,slider_mad.rt,trialseq.thisRepN,trialseq.thisTrialN,trialseq.thisN,trialseq.thisIndex,trialseq.ran,type_trial,stipic,DV,picture,answer,number,key_apology.rt,key_share.rt,key_forgiveness.rt
"[55,201,79,32,109,148,188,94,74,194,97,71,20,90,160,158,128,66,130,120,3,174,44,53,101,189,54,118,178,70,81,165,91,186,119,139,153,100,141,171,137,155]",R_1JOTZSNdzRD5obR,space,1.794,space,3.6121,space,20.8848,space,23.0629,space,28.8918,space,14.7365,space,4.1851,3,6.8288,3,11.3674,3,11.6836,2,5.1538,2,3.0915,0,0,0,0,1,R_1JOTZSNdzRD5obR,1,2024-05-14_20h22.54.419,interaction task,2021.2.3,Win32,60.24096386,120606,,,,,,,,,,,,,,,,,,,,,,,,,,,,,,,,,,,,,,,,,,,,,,,,,,,,,,,,,
,,,,space,0.8736,space,0.7182,space,0.7739,space,0.4356,space,2.8993,space,1.2097,3,2.6342,1,1.5727,3,3.5707,2,9.8935,2,1.4932,1,0,1,0,1,R_1JOTZSNdzRD5obR,1,2024-05-14_20h22.54.419,interaction task,2021.2.3,Win32,60.24096386,120606,,,,,,,,,,,,,,,,,,,,,,,,,,,,,,,,,,,,,,,,,,,,,,,,,,,,,,,,,
,,,,,,,,,,,,,,,,,,,,,,,,,,,,,,,R_1JOTZSNdzRD5obR,1,2024-05-14_20h22.54.419,interaction task,2021.2.3,Win32,60.24096386,120606,space,3.7539,"[""RightButton_2""]",0.321875,-0.338333435,1,0,0,RightButton_2,0,0,0,0,1,LeftButton_2,9dot1.png,Smaller,Greater,,,,,,,,,,,,,,,,,,,,,,,,,,,,,,,,,,,,,,,
,,,,,,,,,,,,,,,,,,,,,,,,,,,,,,,R_1JOTZSNdzRD5obR,1,2024-05-14_20h22.54.419,interaction task,2021.2.3,Win32,60.24096386,120606,,,[],0.294791698,-0.295,0,0,0,,0,1,1,2,1,RightButton_2,9dot1.png,Greater,Smaller,,,,,,,,,,,,,,,,,,,,,,,,,,,,,,,,,,,,,,,
,,,,,,,,,,,,,,,,,,,,,,,,,,,,,,,R_1JOTZSNdzRD5obR,1,2024-05-14_20h22.54.419,interaction task,2021.2.3,Win32,60.24096386,120606,,,"[""LeftButton_2""]",-0.222916651,-0.276666718,1,0,0,LeftButton_2,0,2,2,1,1,LeftButton_2,11dot1.png,Greater,Smaller,,,,,,,,,,,,,,,,,,,,,,,,,,,,,,,,,,,,,,,
,,,,,,,,,,,,,,,,,,,,,,,,,,,,,,,R_1JOTZSNdzRD5obR,1,2024-05-14_20h22.54.419,interaction task,2021.2.3,Win32,60.24096386,120606,,,,,,,,,,,,,,,,,Smaller,Greater,0.2,0.305208397,-0.473333435,1,0,0,RightButton,"[""RightButton""]",61,3.9422,space,1.6032,,,,,,,,,,,,,,0,0,0,0,1,1,both_wrong.png,0,RandomDot28.png,No answer,19,,,
,,,,,,,,,,,,,,,,,,,,,,,,,,,,,,,R_1JOTZSNdzRD5obR,1,2024-05-14_20h22.54.419,interaction task,2021.2.3,Win32,60.24096386,120606,,,,,,,,,,,,,,,,,Smaller,Greater,,-0.310416651,-0.535,1,0,0,LeftButton,"[""LeftButton""]",,,,,,,,,,,,,,,,,,0,1,1,1,1,5,both_right.png,10,RandomDot42.png,LeftButton,19,,,
,,,,,,,,,,,,,,,,,,,,,,,,,,,,,,,R_1JOTZSNdzRD5obR,1,2024-05-14_20h22.54.419,interaction task,2021.2.3,Win32,60.24096386,120606,,,,,,,,,,,,,,,,,Smaller,Greater,,-0.244791651,-0.52,1,0,0,LeftButton,"[""LeftButton""]",,,,,,,,79,18.1632,space,31,15.8296,,,,,,0,2,2,2,1,1,both_wrong.png,2,RandomDot24.png,No answer,21,11.9842,,
,,,,,,,,,,,,,,,,,,,,,,,,,,,,,,,R_1JOTZSNdzRD5obR,1,2024-05-14_20h22.54.419,interaction task,2021.2.3,Win32,60.24096386,120606,,,,,,,,,,,,,,,,,Smaller,Greater,,0.380208397,-0.481666718,1,0,0,RightButton,"[""RightButton""]",,,,,,,,,,,,,,,,,,0,3,3,3,1,0,both_right.png,2,RandomDot29.png,No answer,20,,,
,,,,,,,,,,,,,,,,,,,,,,,,,,,,,,,R_1JOTZSNdzRD5obR,1,2024-05-14_20h22.54.419,interaction task,2021.2.3,Win32,60.24096386,120606,,,,,,,,,,,,,,,,,Greater,Smaller,,-0.29375,-0.518333435,1,0,0,LeftButton,"[""LeftButton""]",,,,,4.973958492,7.4395,space,,,,,,,,,,,0,4,4,4,1,2,only_sub_right.png,1,RandomDot3.png,No answer,19,,1.152,
,,,,,,,,,,,,,,,,,,,,,,,,,,,,,,,R_1JOTZSNdzRD5obR,1,2024-05-14_20h22.54.419,interaction task,2021.2.3,Win32,60.24096386,120606,,,,,,,,,,,,,,,,,Greater,Smaller,,0.240625,-0.51,1,0,0,RightButton,"[""RightButton""]",80,3.9776,space,3.3515,,,,,,,,,,,,,,0,5,5,5,1,3,only_sub_wrong.png,0,RandomDot12.png,No answer,20,,,
,,,,,,,,,,,,,,,,,,,,,,,,,,,,,,,R_1JOTZSNdzRD5obR,1,2024-05-14_20h22.54.419,interaction task,2021.2.3,Win32,60.24096386,120606,,,,,,,,,,,,,,,,,Smaller,Greater,,-0.277083302,-0.516666718,1,0,0,LeftButton,"[""LeftButton""]",,,,,,,,,,,,,59.46969697,8.6425,space,49.7895655,5.1789,0,6,6,6,1,3,only_sub_wrong.png,3,RandomDot22.png,No answer,21,,,1.1988
,,,,,,,,,,,,,,,,,,,,,,,,,,,,,,,R_1JOTZSNdzRD5obR,1,2024-05-14_20h22.54.419,interaction task,2021.2.3,Win32,60.24096386,120606,,,,,,,,,,,,,,,,,Smaller,Greater,,-0.2375,-0.533333435,1,0,0,LeftButton,"[""LeftButton""]",,,,,,,,,,,,,58.41751484,4.5704,space,40.10943403,8.6108,0,7,7,7,1,1,both_wrong.png,3,RandomDot25.png,No answer,21,,,1.1371
,,,,,,,,,,,,,,,,,,,,,,,,,,,,,,,R_1JOTZSNdzRD5obR,1,2024-05-14_20h22.54.419,interaction task,2021.2.3,Win32,60.24096386,120606,,,,,,,,,,,,,,,,,Greater,Smaller,,0.2625,-0.503333435,1,0,0,RightButton,"[""RightButton""]",,,,,,,,71,3.7202,space,30,5.3971,,,,,,0,8,8,8,1,1,both_wrong.png,2,RandomDot16.png,No answer,20,0.7517,,
,,,,,,,,,,,,,,,,,,,,,,,,,,,,,,,R_1JOTZSNdzRD5obR,1,2024-05-14_20h22.54.419,interaction task,2021.2.3,Win32,60.24096386,120606,,,,,,,,,,,,,,,,,Greater,Smaller,,-0.364583302,-0.515,1,0,0,LeftButton,"[""LeftButton""]",,,,,,,,,,,,,,,,,,0,9,9,9,1,4,both_right.png,10,RandomDot41.png,LeftButton,5,,,
,,,,,,,,,,,,,,,,,,,,,,,,,,,,,,,R_1JOTZSNdzRD5obR,1,2024-05-14_20h22.54.419,interaction task,2021.2.3,Win32,60.24096386,120606,,,,,,,,,,,,,,,,,Greater,Smaller,,0.225,-0.533333435,1,0,0,RightButton,"[""RightButton""]",30,4.1793,space,2.0745,,,,,,,,,,,,,,0,10,10,10,1,2,only_sub_right.png,0,RandomDot8.png,No answer,20,,,
,,,,,,,,,,,,,,,,,,,,,,,,,,,,,,,R_1JOTZSNdzRD5obR,1,2024-05-14_20h22.54.419,interaction task,2021.2.3,Win32,60.24096386,120606,,,,,,,,,,,,,,,,,Smaller,Greater,,0.339583397,-0.528333435,1,0,0,RightButton,"[""RightButton""]",,,,,4.963541985,5.7851,space,,,,,,,,,,,0,11,11,11,1,1,both_wrong.png,1,RandomDot14.png,No answer,20,,1.2012,
,,,,,,,,,,,,,,,,,,,,,,,,,,,,,,,R_1JOTZSNdzRD5obR,1,2024-05-14_20h22.54.419,interaction task,2021.2.3,Win32,60.24096386,120606,,,,,,,,,,,,,,,,,Smaller,Greater,,0.234375,-0.543333435,1,0,0,RightButton,"[""RightButton""]",,,,,,,,,,,,,,,,,,0,12,12,12,1,0,both_right.png,1,RandomDot3.png,No answer,19,,,
,,,,,,,,,,,,,,,,,,,,,,,,,,,,,,,R_1JOTZSNdzRD5obR,1,2024-05-14_20h22.54.419,interaction task,2021.2.3,Win32,60.24096386,120606,,,,,,,,,,,,,,,,,Smaller,Greater,,-0.286458302,-0.52,1,0,0,LeftButton,"[""LeftButton""]",,,,,,,,,,,,,55.36616162,8.069,space,39.05724227,6.2202,0,13,13,13,1,1,both_wrong.png,3,RandomDot29.png,No answer,19,,,3.9539
,,,,,,,,,,,,,,,,,,,,,,,,,,,,,,,R_1JOTZSNdzRD5obR,1,2024-05-14_20h22.54.419,interaction task,2021.2.3,Win32,60.24096386,120606,,,,,,,,,,,,,,,,,Greater,Smaller,,0.285416698,-0.53,1,0,0,RightButton,"[""RightButton""]",,,,,4.979166985,3.2502,space,,,,,,,,,,,0,14,14,14,1,3,only_sub_wrong.png,1,RandomDot22.png,No answer,19,,1.0345,
,,,,,,,,,,,,,,,,,,,,,,,,,,,,,,,R_1JOTZSNdzRD5obR,1,2024-05-14_20h22.54.419,interaction task,2021.2.3,Win32,60.24096386,120606,,,,,,,,,,,,,,,,,Greater,Smaller,,0.385416698,-0.523333435,1,0,0,RightButton,"[""RightButton""]",,,,,4.963541985,3.2852,space,,,,,,,,,,,0,15,15,15,1,3,only_sub_wrong.png,1,RandomDot1.png,No answer,19,,1.6298,
,,,,,,,,,,,,,,,,,,,,,,,,,,,,,,,R_1JOTZSNdzRD5obR,1,2024-05-14_20h22.54.419,interaction task,2021.2.3,Win32,60.24096386,120606,,,,,,,,,,,,,,,,,Smaller,Greater,,-0.244791651,-0.503333435,1,0,0,LeftButton,"[""LeftButton""]",,,,,,,,40,5.4577,space,12,10.5167,,,,,,0,16,16,16,1,2,only_sub_right.png,2,RandomDot22.png,No answer,20,0.719,,
,,,,,,,,,,,,,,,,,,,,,,,,,,,,,,,R_1JOTZSNdzRD5obR,1,2024-05-14_20h22.54.419,interaction task,2021.2.3,Win32,60.24096386,120606,,,,,,,,,,,,,,,,,Smaller,Greater,,0.301041698,-0.505,1,0,0,RightButton,"[""RightButton""]",,,,,4.901041985,4.6116,space,,,,,,,,,,,0,17,17,17,1,1,both_wrong.png,1,RandomDot10.png,No answer,19,,1.6432,
,,,,,,,,,,,,,,,,,,,,,,,,,,,,,,,R_1JOTZSNdzRD5obR,1,2024-05-14_20h22.54.419,interaction task,2021.2.3,Win32,60.24096386,120606,,,,,,,,,,,,,,,,,Smaller,Greater,,-0.2875,-0.485,1,0,0,LeftButton,"[""LeftButton""]",,,,,,,,20,4.9075,space,10,7.6974,,,,,,0,18,18,18,1,2,only_sub_right.png,2,RandomDot8.png,No answer,21,1.1532,,
,,,,,,,,,,,,,,,,,,,,,,,,,,,,,,,R_1JOTZSNdzRD5obR,1,2024-05-14_20h22.54.419,interaction task,2021.2.3,Win32,60.24096386,120606,,,,,,,,,,,,,,,,,Greater,Smaller,,0.315625,-0.506666718,1,0,0,RightButton,"[""RightButton""]",,,,,,,,29,3.7503,space,8,5.9598,,,,,,0,19,19,19,1,2,only_sub_right.png,2,RandomDot21.png,No answer,21,0.8301,,
,,,,,,,,,,,,,,,,,,,,,,,,,,,,,,,R_1JOTZSNdzRD5obR,1,2024-05-14_20h22.54.419,interaction task,2021.2.3,Win32,60.24096386,120606,,,,,,,,,,,,,,,,,Greater,Smaller,,0.322916698,-0.518333435,1,0,0,RightButton,"[""RightButton""]",,,,,,,,,,,,,,,,,,0,20,20,20,1,0,both_right.png,0,RandomDot22.png,No answer,21,,,
,,,,,,,,,,,,,,,,,,,,,,,,,,,,,,,R_1JOTZSNdzRD5obR,1,2024-05-14_20h22.54.419,interaction task,2021.2.3,Win32,60.24096386,120606,,,,,,,,,,,,,,,,,Smaller,Greater,,-0.267708302,-0.523333435,1,0,0,LeftButton,"[""LeftButton""]",,,,,,,,80,2.2884,space,31,5.8808,,,,,,0,21,21,21,1,3,only_sub_wrong.png,2,RandomDot15.png,No answer,21,0.7865,,
,,,,,,,,,,,,,,,,,,,,,,,,,,,,,,,R_1JOTZSNdzRD5obR,1,2024-05-14_20h22.54.419,interaction task,2021.2.3,Win32,60.24096386,120606,,,,,,,,,,,,,,,,,Smaller,Greater,,0.258333397,-0.543333435,1,0,0,RightButton,"[""RightButton""]",,,,,,,,,,,,,,,,,,0,22,22,22,1,0,both_right.png,3,RandomDot26.png,No answer,20,,,
,,,,,,,,,,,,,,,,,,,,,,,,,,,,,,,R_1JOTZSNdzRD5obR,1,2024-05-14_20h22.54.419,interaction task,2021.2.3,Win32,60.24096386,120606,,,,,,,,,,,,,,,,,Greater,Smaller,,-0.265625,-0.536666718,1,0,0,LeftButton,"[""LeftButton""]",50,2.5844,space,0.4735,,,,,,,,,,,,,,0,23,23,23,1,1,both_wrong.png,0,RandomDot32.png,No answer,19,,,
,,,,,,,,,,,,,,,,,,,,,,,,,,,,,,,R_1JOTZSNdzRD5obR,1,2024-05-14_20h22.54.419,interaction task,2021.2.3,Win32,60.24096386,120606,,,,,,,,,,,,,,,,,Greater,Smaller,,0.301041698,-0.526666718,1,0,0,RightButton,"[""RightButton""]",51,3.6124,space,3.218,,,,,,,,,,,,,,0,24,24,24,1,2,only_sub_right.png,0,RandomDot18.png,No answer,21,,,
,,,,,,,,,,,,,,,,,,,,,,,,,,,,,,,R_1JOTZSNdzRD5obR,1,2024-05-14_20h22.54.419,interaction task,2021.2.3,Win32,60.24096386,120606,,,,,,,,,,,,,,,,,Smaller,Greater,,0.345833397,-0.495,1,0,0,RightButton,"[""RightButton""]",,,,,,,,,,,,,60.6271108,1.7177,space,58.73317141,13.511,0,25,25,25,1,3,only_sub_wrong.png,3,RandomDot38.png,No answer,20,,,9.533
,,,,,,,,,,,,,,,,,,,,,,,,,,,,,,,R_1JOTZSNdzRD5obR,1,2024-05-14_20h22.54.419,interaction task,2021.2.3,Win32,60.24096386,120606,,,,,,,,,,,,,,,,,Smaller,Greater,,0.321875,-0.503333435,1,0,0,RightButton,"[""RightButton""]",60,4.1955,space,2.4479,,,,,,,,,,,,,,0,26,26,26,1,1,both_wrong.png,0,RandomDot23.png,No answer,20,,,
,,,,,,,,,,,,,,,,,,,,,,,,,,,,,,,R_1JOTZSNdzRD5obR,1,2024-05-14_20h22.54.419,interaction task,2021.2.3,Win32,60.24096386,120606,,,,,,,,,,,,,,,,,Smaller,Greater,,-0.273958302,-0.48,1,0,0,LeftButton,"[""LeftButton""]",,,,,4.979166985,5.4819,space,,,,,,,,,,,0,27,27,27,1,2,only_sub_right.png,1,RandomDot34.png,No answer,19,,1,
,,,,,,,,,,,,,,,,,,,,,,,,,,,,,,,R_1JOTZSNdzRD5obR,1,2024-05-14_20h22.54.419,interaction task,2021.2.3,Win32,60.24096386,120606,,,,,,,,,,,,,,,,,Smaller,Greater,,0.269791698,-0.523333435,1,0,0,RightButton,"[""RightButton""]",,,,,,,,89,2.2708,space,36,6.2787,,,,,,0,28,28,28,1,3,only_sub_wrong.png,2,RandomDot22.png,No answer,19,2.3443,,
,,,,,,,,,,,,,,,,,,,,,,,,,,,,,,,R_1JOTZSNdzRD5obR,1,2024-05-14_20h22.54.419,interaction task,2021.2.3,Win32,60.24096386,120606,,,,,,,,,,,,,,,,,Smaller,Greater,,0.263541698,-0.526666718,1,0,0,RightButton,"[""RightButton""]",,,,,5,8.6791,space,,,,,,,,,,,0,29,29,29,1,1,both_wrong.png,1,RandomDot29.png,No answer,19,,5.008,
,,,,,,,,,,,,,,,,,,,,,,,,,,,,,,,R_1JOTZSNdzRD5obR,1,2024-05-14_20h22.54.419,interaction task,2021.2.3,Win32,60.24096386,120606,,,,,,,,,,,,,,,,,Smaller,Greater,,0.296875,-0.518333435,1,0,0,RightButton,"[""RightButton""]",,,,,,,,60,2.8939,space,10,4.3712,,,,,,0,30,30,30,1,1,both_wrong.png,2,RandomDot21.png,No answer,20,0.3302,,
,,,,,,,,,,,,,,,,,,,,,,,,,,,,,,,R_1JOTZSNdzRD5obR,1,2024-05-14_20h22.54.419,interaction task,2021.2.3,Win32,60.24096386,120606,,,,,,,,,,,,,,,,,Smaller,Greater,,-0.242708302,-0.536666718,1,0,0,LeftButton,"[""LeftButton""]",,,,,5,8.6061,space,,,,,,,,,,,0,31,31,31,1,3,only_sub_wrong.png,1,RandomDot6.png,No answer,21,,4.8748,
,,,,,,,,,,,,,,,,,,,,,,,,,,,,,,,R_1JOTZSNdzRD5obR,1,2024-05-14_20h22.54.419,interaction task,2021.2.3,Win32,60.24096386,120606,,,,,,,,,,,,,,,,,Smaller,Greater,,0.273958397,-0.496666718,1,0,0,RightButton,"[""RightButton""]",,,,,,,,,,,,,40.8459596,6.5852,space,49.68434343,8.9338,0,32,32,32,1,1,both_wrong.png,3,RandomDot23.png,No answer,20,,,0.654
,,,,,,,,,,,,,,,,,,,,,,,,,,,,,,,R_1JOTZSNdzRD5obR,1,2024-05-14_20h22.54.419,interaction task,2021.2.3,Win32,60.24096386,120606,,,,,,,,,,,,,,,,,Smaller,Greater,,0.290625,-0.495,1,0,0,RightButton,"[""RightButton""]",,,,,,,,,,,,,49.89478757,2.8623,space,49.7895655,4.3467,0,33,33,33,1,3,only_sub_wrong.png,3,RandomDot9.png,No answer,19,,,0.9735
,,,,,,,,,,,,,,,,,,,,,,,,,,,,,,,R_1JOTZSNdzRD5obR,1,2024-05-14_20h22.54.419,interaction task,2021.2.3,Win32,60.24096386,120606,,,,,,,,,,,,,,,,,Smaller,Greater,,-0.334375,-0.521666718,1,0,0,LeftButton,"[""LeftButton""]",,,,,4.96875,2.2228,space,,,,,,,,,,,0,34,34,34,1,2,only_sub_right.png,1,RandomDot38.png,No answer,19,,2.3281,
,,,,,,,,,,,,,,,,,,,,,,,,,,,,,,,R_1JOTZSNdzRD5obR,1,2024-05-14_20h22.54.419,interaction task,2021.2.3,Win32,60.24096386,120606,,,,,,,,,,,,,,,,,Smaller,Greater,,0.269791698,-0.535,1,0,0,RightButton,"[""RightButton""]",,,,,,,,,,,,,70.09680777,4.2668,space,39.05724227,10.0388,0,35,35,35,1,2,only_sub_right.png,3,RandomDot30.png,No answer,20,,,1.7722
,,,,,,,,,,,,,,,,,,,,,,,,,,,,,,,R_1JOTZSNdzRD5obR,1,2024-05-14_20h22.54.419,interaction task,2021.2.3,Win32,60.24096386,120606,,,,,,,,,,,,,,,,,Smaller,Greater,,-0.260416651,-0.48,1,0,0,LeftButton,"[""LeftButton""]",71,2.8427,space,0.5185,,,,,,,,,,,,,,0,36,36,36,1,3,only_sub_wrong.png,0,RandomDot25.png,No answer,20,,,
,,,,,,,,,,,,,,,,,,,,,,,,,,,,,,,R_1JOTZSNdzRD5obR,1,2024-05-14_20h22.54.419,interaction task,2021.2.3,Win32,60.24096386,120606,,,,,,,,,,,,,,,,,Greater,Smaller,,0.297916698,-0.49,1,0,0,RightButton,"[""RightButton""]",50,7.5986,space,2.8601,,,,,,,,,,,,,,0,37,37,37,1,2,only_sub_right.png,0,RandomDot33.png,No answer,21,,,
,,,,,,,,,,,,,,,,,,,,,,,,,,,,,,,R_1JOTZSNdzRD5obR,1,2024-05-14_20h22.54.419,interaction task,2021.2.3,Win32,60.24096386,120606,,,,,,,,,,,,,,,,,Smaller,Greater,,-0.258333302,-0.528333435,1,0,0,LeftButton,"[""LeftButton""]",,,,,,,,,,,,,59.25926247,2.191,space,50.7365352,6.0311,0,38,38,38,1,2,only_sub_right.png,3,RandomDot7.png,No answer,20,,,1.6665
,,,,,,,,,,,,,,,,,,,,,,,,,,,,,,,R_1JOTZSNdzRD5obR,1,2024-05-14_20h22.54.419,interaction task,2021.2.3,Win32,60.24096386,120606,,,,,,,,,,,,,,,,,Greater,Smaller,,0.259375,-0.528333435,1,0,0,RightButton,"[""RightButton""]",,,,,,,,75,3.092,space,40,6.6111,,,,,,0,39,39,39,1,3,only_sub_wrong.png,2,RandomDot23.png,No answer,20,2.4368,,
,,,,,,,,,,,,,,,,,,,,,,,,,,,,,,,R_1JOTZSNdzRD5obR,1,2024-05-14_20h22.54.419,interaction task,2021.2.3,Win32,60.24096386,120606,,,,,,,,,,,,,,,,,Greater,Smaller,,0.352083397,-0.54,1,0,0,RightButton,"[""RightButton""]",,,,,,,,,,,,,60.1010101,5.0833,space,44.21296939,7.5807,0,40,40,40,1,2,only_sub_right.png,3,RandomDot23.png,No answer,20,,,0.7349
,,,,,,,,,,,,,,,,,,,,,,,,,,,,,,,R_1JOTZSNdzRD5obR,1,2024-05-14_20h22.54.419,interaction task,2021.2.3,Win32,60.24096386,120606,,,,,,,,,,,,,,,,,Smaller,Greater,,0.365625,-0.52,1,0,0,RightButton,"[""RightButton""]",71,8.4827,space,3.8647,,,,,,,,,,,,,,0,41,41,41,1,3,only_sub_wrong.png,0,RandomDot2.png,No answer,20,,,
