chooserow,ParID,pre_instru_resp_2.keys,pre_instru_resp_2.rt,pre_instru_resp_3.keys,pre_instru_resp_3.rt,pre_instru_resp_9.keys,pre_instru_resp_9.rt,pre_instru_resp_8.keys,pre_instru_resp_8.rt,pre_instru_resp_4.keys,pre_instru_resp_4.rt,pre_instru_resp_5.keys,pre_instru_resp_5.rt,pre_instru_resp_6.keys,pre_instru_resp_6.rt,key_resp_3.keys,key_resp_3.rt,key_resp_4.keys,key_resp_4.rt,key_resp_5.keys,key_resp_5.rt,key_resp_6.keys,key_resp_6.rt,key_resp_7.keys,key_resp_7.rt,trials_2.thisRepN,trials_2.thisTrialN,trials_2.thisN,trials_2.thisIndex,trials_2.ran,participant,session,date,expName,psychopyVersion,OS,frameRate,SONAid,pre_instru_resp.keys,pre_instru_resp.rt,clicked,judge_2.x,judge_2.y,judge_2.leftButton,judge_2.midButton,judge_2.rightButton,trials.thisRepN,trials.thisTrialN,trials.thisN,trials.thisIndex,trials.ran,prac_answer,prac_dot_sti,dotlefttext,dotrighttext,judge_2.clicked_name,prac_acc,judge.x,judge.y,judge.leftButton,judge.midButton,judge.rightButton,judge.clicked_name,clicked_guilt,slider_guilt.response,slider_guilt.rt,key_guilt.keys,share_slider.response,share_slider.rt,key_share.keys,slider_apology.response,slider_apology.rt,key_apology.keys,slider_hide.response,slider_hide.rt,slider_forgiveness.response,slider_forgiveness.rt,key_forgiveness.keys,key_forgiveness.rt,slider_mad.response,slider_mad.rt,trialseq.thisRepN,trialseq.thisTrialN,trialseq.thisN,trialseq.thisIndex,trialseq.ran,type_trial,stipic,DV,picture,answer,number,key_guilt.rt,key_share.rt,key_apology.rt
"[191,153,195,159,54,141,107,111,164,44,143,67,96,117,84,80,121,86,68,131,1,145,34,99,56,92,189,14,138,115,202,81,127,150,172,180,53,168,60,156,169,82]",R_1JeBbwgNmS1aKcb,space,7.02,space,8.15,space,43.103,space,40.604,space,52.678,space,19.146,space,6.575,3,75.134,1,17.029,3,22.307,2,6.694,2,16.665,0,0,0,0,1,R_1JeBbwgNmS1aKcb,1,2024-05-29_12h25.43.107,interaction task,2021.2.3,MacIntel,30.3030303,120853,,,,,,,,,,,,,,,,,,,,,,,,,,,,,,,,,,,,,,,,,,,,,,,,,,,,,,,,,
,,,,,,,,,,,,,,,,,,,,,,,,,,,,,,,R_1JeBbwgNmS1aKcb,1,2024-05-29_12h25.43.107,interaction task,2021.2.3,MacIntel,30.3030303,120853,space,4.89,[],0.06440678,-0.004207574,0,0,0,0,0,0,0,1,RightButton_2,9dot2.png,Greater,Smaller,,,,,,,,,,,,,,,,,,,,,,,,,,,,,,,,,,,,,,,,
,,,,,,,,,,,,,,,,,,,,,,,,,,,,,,,R_1JeBbwgNmS1aKcb,1,2024-05-29_12h25.43.107,interaction task,2021.2.3,MacIntel,30.3030303,120853,,,[],0.06440678,-0.004207574,0,0,0,0,1,1,2,1,LeftButton_2,11dot1.png,Greater,Smaller,,,,,,,,,,,,,,,,,,,,,,,,,,,,,,,,,,,,,,,,
,,,,,,,,,,,,,,,,,,,,,,,,,,,,,,,R_1JeBbwgNmS1aKcb,1,2024-05-29_12h25.43.107,interaction task,2021.2.3,MacIntel,30.3030303,120853,,,"[""LeftButton_2""]",-0.305084746,-0.267882188,1,0,0,0,2,2,1,1,RightButton_2,11dot1.png,Smaller,Greater,LeftButton_2,,,,,,,,,,,,,,,,,,,,,,,,,,,,,,,,,,,,,,,
,,,,,,,,,,,,,,,,,,,,,,,,,,,,,,,R_1JeBbwgNmS1aKcb,1,2024-05-29_12h25.43.107,interaction task,2021.2.3,MacIntel,30.3030303,120853,,,,,,,,,,,,,,,,Smaller,Greater,,0,0.311864407,-0.461430575,1,0,0,RightButton,"[""RightButton""]",,,,,,,,,,,,80.13182674,19.127,space,7.466,57.19054956,20.376,0,0,0,0,1,3,only_sub_wrong.png,3,RandomDot36.png,No answer,21,,,
,,,,,,,,,,,,,,,,,,,,,,,,,,,,,,,R_1JeBbwgNmS1aKcb,1,2024-05-29_12h25.43.107,interaction task,2021.2.3,MacIntel,30.3030303,120853,,,,,,,,,,,,,,,,Smaller,Greater,,,-0.306779661,-0.50911641,1,0,0,LeftButton,"[""LeftButton""]",60,4.522,space,,,,,,,,,,,,,,,0,1,1,1,1,3,only_sub_wrong.png,0,RandomDot25.png,No answer,20,2.514,,
,,,,,,,,,,,,,,,,,,,,,,,,,,,,,,,R_1JeBbwgNmS1aKcb,1,2024-05-29_12h25.43.107,interaction task,2021.2.3,MacIntel,30.3030303,120853,,,,,,,,,,,,,,,,Smaller,Greater,,,0.283050847,-0.50911641,1,0,0,RightButton,"[""RightButton""]",,,,,,,,,,,,,,,,,,0,2,2,2,1,4,both_right.png,10,RandomDot41.png,RightButton,5,,,
,,,,,,,,,,,,,,,,,,,,,,,,,,,,,,,R_1JeBbwgNmS1aKcb,1,2024-05-29_12h25.43.107,interaction task,2021.2.3,MacIntel,30.3030303,120853,,,,,,,,,,,,,,,,Greater,Smaller,,,-0.289830508,-0.481065919,1,0,0,LeftButton,"[""LeftButton""]",,,,4.949152542,10.674,space,,,,,,,,,,,,0,3,3,3,1,3,only_sub_wrong.png,1,RandomDot11.png,No answer,20,,1.514,
,,,,,,,,,,,,,,,,,,,,,,,,,,,,,,,R_1JeBbwgNmS1aKcb,1,2024-05-29_12h25.43.107,interaction task,2021.2.3,MacIntel,30.3030303,120853,,,,,,,,,,,,,,,,Smaller,Greater,,,-0.327118644,-0.520336606,1,0,0,LeftButton,"[""LeftButton""]",78,2.856,space,,,,,,,,,,,,,,,0,4,4,4,1,1,both_wrong.png,0,RandomDot23.png,No answer,20,1.264,,
,,,,,,,,,,,,,,,,,,,,,,,,,,,,,,,R_1JeBbwgNmS1aKcb,1,2024-05-29_12h25.43.107,interaction task,2021.2.3,MacIntel,30.3030303,120853,,,,,,,,,,,,,,,,Smaller,Greater,,,-0.308474576,-0.47545582,1,0,0,LeftButton,"[""LeftButton""]",,,,,,,,,,,,94.68412943,4.26,space,1.042,33.56445814,9.716,0,5,5,5,1,2,only_sub_right.png,3,RandomDot7.png,No answer,20,,,
,,,,,,,,,,,,,,,,,,,,,,,,,,,,,,,R_1JeBbwgNmS1aKcb,1,2024-05-29_12h25.43.107,interaction task,2021.2.3,MacIntel,30.3030303,120853,,,,,,,,,,,,,,,,Smaller,Greater,,,-0.330508475,-0.492286115,1,0,0,LeftButton,"[""LeftButton""]",59,5.095,space,,,,,,,,,,,,,,,0,6,6,6,1,2,only_sub_right.png,0,RandomDot37.png,No answer,21,3.241,,
,,,,,,,,,,,,,,,,,,,,,,,,,,,,,,,R_1JeBbwgNmS1aKcb,1,2024-05-29_12h25.43.107,interaction task,2021.2.3,MacIntel,30.3030303,120853,,,,,,,,,,,,,,,,Greater,Smaller,,,-0.362711864,-0.517531557,1,0,0,LeftButton,"[""LeftButton""]",,,,4.847457627,12.539,space,,,,,,,,,,,,0,7,7,7,1,2,only_sub_right.png,1,RandomDot4.png,No answer,19,,2.401,
,,,,,,,,,,,,,,,,,,,,,,,,,,,,,,,R_1JeBbwgNmS1aKcb,1,2024-05-29_12h25.43.107,interaction task,2021.2.3,MacIntel,30.3030303,120853,,,,,,,,,,,,,,,,Smaller,Greater,,,0.323728814,-0.47826087,1,0,0,RightButton,"[""RightButton""]",,,,4.923728814,2.243,space,,,,,,,,,,,,0,8,8,8,1,3,only_sub_wrong.png,1,RandomDot40.png,No answer,19,,1.726,
,,,,,,,,,,,,,,,,,,,,,,,,,,,,,,,R_1JeBbwgNmS1aKcb,1,2024-05-29_12h25.43.107,interaction task,2021.2.3,MacIntel,30.3030303,120853,,,,,,,,,,,,,,,,Smaller,Greater,,,-0.281355932,-0.514726508,1,0,0,LeftButton,"[""LeftButton""]",,,,,,,,,,,,,,,,,,0,9,9,9,1,0,both_right.png,3,RandomDot26.png,No answer,20,,,
,,,,,,,,,,,,,,,,,,,,,,,,,,,,,,,R_1JeBbwgNmS1aKcb,1,2024-05-29_12h25.43.107,interaction task,2021.2.3,MacIntel,30.3030303,120853,,,,,,,,,,,,,,,,Smaller,Greater,,,0.26779661,-0.489481066,1,0,0,RightButton,"[""RightButton""]",,,,,,,,,,,,78.07738401,4.535,space,2.098,50.34240712,8.561,0,10,10,10,1,2,only_sub_right.png,3,RandomDot31.png,No answer,19,,,
,,,,,,,,,,,,,,,,,,,,,,,,,,,,,,,R_1JeBbwgNmS1aKcb,1,2024-05-29_12h25.43.107,interaction task,2021.2.3,MacIntel,30.3030303,120853,,,,,,,,,,,,,,,,Smaller,Greater,,,-0.266101695,-0.528751753,1,0,0,LeftButton,"[""LeftButton""]",,,,4.93220339,2.085,space,,,,,,,,,,,,0,11,11,11,1,1,both_wrong.png,1,RandomDot17.png,No answer,20,,0.867,
,,,,,,,,,,,,,,,,,,,,,,,,,,,,,,,R_1JeBbwgNmS1aKcb,1,2024-05-29_12h25.43.107,interaction task,2021.2.3,MacIntel,30.3030303,120853,,,,,,,,,,,,,,,,Greater,Smaller,,,-0.274576271,-0.517531557,1,0,0,LeftButton,"[""LeftButton""]",62,4.245,space,,,,,,,,,,,,,,,0,12,12,12,1,2,only_sub_right.png,0,RandomDot26.png,No answer,19,2.556,,
,,,,,,,,,,,,,,,,,,,,,,,,,,,,,,,R_1JeBbwgNmS1aKcb,1,2024-05-29_12h25.43.107,interaction task,2021.2.3,MacIntel,30.3030303,120853,,,,,,,,,,,,,,,,Smaller,Greater,,,-0.293220339,-0.47826087,1,0,0,LeftButton,"[""LeftButton""]",,,,4.898305085,4.398,space,,,,,,,,,,,,0,13,13,13,1,2,only_sub_right.png,1,RandomDot27.png,No answer,21,,1.117,
,,,,,,,,,,,,,,,,,,,,,,,,,,,,,,,R_1JeBbwgNmS1aKcb,1,2024-05-29_12h25.43.107,interaction task,2021.2.3,MacIntel,30.3030303,120853,,,,,,,,,,,,,,,,Greater,Smaller,,,0.23220339,-0.495091164,1,0,0,RightButton,"[""RightButton""]",,,,,,,,,,,,62.49785996,3.292,space,1.685,48.97277863,6.392,0,14,14,14,1,1,both_wrong.png,3,RandomDot6.png,No answer,20,,,
,,,,,,,,,,,,,,,,,,,,,,,,,,,,,,,R_1JeBbwgNmS1aKcb,1,2024-05-29_12h25.43.107,interaction task,2021.2.3,MacIntel,30.3030303,120853,,,,,,,,,,,,,,,,Smaller,Greater,,,-0.345762712,-0.469845722,1,0,0,LeftButton,"[""LeftButton""]",,,,,,,52,7.317,space,11,13.741,,,,,,,0,15,15,15,1,1,both_wrong.png,2,RandomDot8.png,No answer,20,,,2.716
,,,,,,,,,,,,,,,,,,,,,,,,,,,,,,,R_1JeBbwgNmS1aKcb,1,2024-05-29_12h25.43.107,interaction task,2021.2.3,MacIntel,30.3030303,120853,,,,,,,,,,,,,,,,Greater,Smaller,,,0.294915254,-0.50911641,1,0,0,RightButton,"[""RightButton""]",,,,,,,61,6.165,space,11,9.716,,,,,,,0,16,16,16,1,2,only_sub_right.png,2,RandomDot18.png,No answer,19,,,1.474
,,,,,,,,,,,,,,,,,,,,,,,,,,,,,,,R_1JeBbwgNmS1aKcb,1,2024-05-29_12h25.43.107,interaction task,2021.2.3,MacIntel,30.3030303,120853,,,,,,,,,,,,,,,,Greater,Smaller,,,0.281355932,-0.534361851,1,0,0,RightButton,"[""RightButton""]",,,,,,,,,,,,59.41619586,2.454,space,0.579,49.82879644,6.536,0,17,17,17,1,1,both_wrong.png,3,RandomDot13.png,No answer,21,,,
,,,,,,,,,,,,,,,,,,,,,,,,,,,,,,,R_1JeBbwgNmS1aKcb,1,2024-05-29_12h25.43.107,interaction task,2021.2.3,MacIntel,30.3030303,120853,,,,,,,,,,,,,,,,Smaller,Greater,,,-0.327118644,-0.514726508,1,0,0,LeftButton,"[""LeftButton""]",,,,4.93220339,4.118,space,,,,,,,,,,,,0,18,18,18,1,1,both_wrong.png,1,RandomDot8.png,No answer,21,,0.728,
,,,,,,,,,,,,,,,,,,,,,,,,,,,,,,,R_1JeBbwgNmS1aKcb,1,2024-05-29_12h25.43.107,interaction task,2021.2.3,MacIntel,30.3030303,120853,,,,,,,,,,,,,,,,Smaller,Greater,,,-0.283050847,-0.511921459,1,0,0,LeftButton,"[""LeftButton""]",,,,,,,66,2.342,space,9,6.4,,,,,,,0,19,19,19,1,2,only_sub_right.png,2,RandomDot5.png,No answer,21,,,1.829
,,,,,,,,,,,,,,,,,,,,,,,,,,,,,,,R_1JeBbwgNmS1aKcb,1,2024-05-29_12h25.43.107,interaction task,2021.2.3,MacIntel,30.3030303,120853,,,,,,,,,,,,,,,,Greater,Smaller,,,-0.330508475,-0.500701262,1,0,0,LeftButton,"[""LeftButton""]",,,,,,,,,,,,,,,,,,0,20,20,20,1,0,both_right.png,0,RandomDot36.png,No answer,21,,,
,,,,,,,,,,,,,,,,,,,,,,,,,,,,,,,R_1JeBbwgNmS1aKcb,1,2024-05-29_12h25.43.107,interaction task,2021.2.3,MacIntel,30.3030303,120853,,,,,,,,,,,,,,,,Greater,Smaller,,,-0.305084746,-0.517531557,1,0,0,LeftButton,"[""LeftButton""]",83,2.073,space,,,,,,,,,,,,,,,0,21,21,21,1,3,only_sub_wrong.png,0,RandomDot15.png,No answer,20,1.215,,
,,,,,,,,,,,,,,,,,,,,,,,,,,,,,,,R_1JeBbwgNmS1aKcb,1,2024-05-29_12h25.43.107,interaction task,2021.2.3,MacIntel,30.3030303,120853,,,,,,,,,,,,,,,,Smaller,Greater,,,-0.261016949,-0.489481066,1,0,0,LeftButton,"[""LeftButton""]",,,,,,,,,,,,,,,,,,0,22,22,22,1,0,both_right.png,2,RandomDot15.png,No answer,21,,,
,,,,,,,,,,,,,,,,,,,,,,,,,,,,,,,R_1JeBbwgNmS1aKcb,1,2024-05-29_12h25.43.107,interaction task,2021.2.3,MacIntel,30.3030303,120853,,,,,,,,,,,,,,,,Greater,Smaller,,,-0.33559322,-0.514726508,1,0,0,LeftButton,"[""LeftButton""]",82,1.863,space,,,,,,,,,,,,,,,0,23,23,23,1,2,only_sub_right.png,0,RandomDot21.png,No answer,19,0.872,,
,,,,,,,,,,,,,,,,,,,,,,,,,,,,,,,R_1JeBbwgNmS1aKcb,1,2024-05-29_12h25.43.107,interaction task,2021.2.3,MacIntel,30.3030303,120853,,,,,,,,,,,,,,,,Smaller,Greater,,,-0.257627119,-0.500701262,1,0,0,LeftButton,"[""LeftButton""]",90,1.371,space,,,,,,,,,,,,,,,0,24,24,24,1,1,both_wrong.png,0,RandomDot39.png,No answer,21,1.122,,
,,,,,,,,,,,,,,,,,,,,,,,,,,,,,,,R_1JeBbwgNmS1aKcb,1,2024-05-29_12h25.43.107,interaction task,2021.2.3,MacIntel,30.3030303,120853,,,,,,,,,,,,,,,,Smaller,Greater,,,-0.33220339,-0.50911641,1,0,0,LeftButton,"[""LeftButton""]",,,,,,,,,,,,60.1010101,2.481,space,0.971,54.28008903,5.271,0,25,25,25,1,1,both_wrong.png,3,RandomDot7.png,No answer,21,,,
,,,,,,,,,,,,,,,,,,,,,,,,,,,,,,,R_1JeBbwgNmS1aKcb,1,2024-05-29_12h25.43.107,interaction task,2021.2.3,MacIntel,30.3030303,120853,,,,,,,,,,,,,,,,Smaller,Greater,,,-0.313559322,-0.514726508,1,0,0,LeftButton,"[""LeftButton""]",,,,,,,,,,,,57.87536381,2.823,space,0.617,60.95702791,5.389,0,26,26,26,1,3,only_sub_wrong.png,3,RandomDot38.png,No answer,20,,,
,,,,,,,,,,,,,,,,,,,,,,,,,,,,,,,R_1JeBbwgNmS1aKcb,1,2024-05-29_12h25.43.107,interaction task,2021.2.3,MacIntel,30.3030303,120853,,,,,,,,,,,,,,,,Greater,Smaller,,,0.284745763,-0.511921459,1,0,0,RightButton,"[""RightButton""]",,,,,,,,,,,,,,,,,,0,27,27,27,1,0,both_right.png,1,RandomDot29.png,No answer,21,,,
,,,,,,,,,,,,,,,,,,,,,,,,,,,,,,,R_1JeBbwgNmS1aKcb,1,2024-05-29_12h25.43.107,interaction task,2021.2.3,MacIntel,30.3030303,120853,,,,,,,,,,,,,,,,Smaller,Greater,,,-0.316949153,-0.47545582,1,0,0,LeftButton,"[""LeftButton""]",,,,,,,,,,,,57.70416025,3.765,space,1.448,51.19842493,6.881,0,28,28,28,1,2,only_sub_right.png,3,RandomDot25.png,No answer,21,,,
,,,,,,,,,,,,,,,,,,,,,,,,,,,,,,,R_1JeBbwgNmS1aKcb,1,2024-05-29_12h25.43.107,interaction task,2021.2.3,MacIntel,30.3030303,120853,,,,,,,,,,,,,,,,Smaller,Greater,,,-0.318644068,-0.483870968,1,0,0,LeftButton,"[""LeftButton""]",,,,4.93220339,2.82,space,,,,,,,,,,,,0,29,29,29,1,2,only_sub_right.png,1,RandomDot14.png,No answer,20,,1.341,
,,,,,,,,,,,,,,,,,,,,,,,,,,,,,,,R_1JeBbwgNmS1aKcb,1,2024-05-29_12h25.43.107,interaction task,2021.2.3,MacIntel,30.3030303,120853,,,,,,,,,,,,,,,,Smaller,Greater,,,-0.279661017,-0.483870968,1,0,0,LeftButton,"[""LeftButton""]",,,,,,,,,,,,,,,,,,0,30,30,30,1,5,both_right.png,10,RandomDot42.png,LeftButton,21,,,
,,,,,,,,,,,,,,,,,,,,,,,,,,,,,,,R_1JeBbwgNmS1aKcb,1,2024-05-29_12h25.43.107,interaction task,2021.2.3,MacIntel,30.3030303,120853,,,,,,,,,,,,,,,,Smaller,Greater,,,0.306779661,-0.534361851,1,0,0,RightButton,"[""RightButton""]",,,,,,,61,4.618,space,2,6.967,,,,,,,0,31,31,31,1,1,both_wrong.png,2,RandomDot21.png,No answer,20,,,0.866
,,,,,,,,,,,,,,,,,,,,,,,,,,,,,,,R_1JeBbwgNmS1aKcb,1,2024-05-29_12h25.43.107,interaction task,2021.2.3,MacIntel,30.3030303,120853,,,,,,,,,,,,,,,,Smaller,Greater,,,-0.308474576,-0.486676017,1,0,0,LeftButton,"[""LeftButton""]",,,,,,,60,19.03,space,3,35.427,,,,,,,0,32,32,32,1,2,only_sub_right.png,2,RandomDot22.png,No answer,19,,,0.693
,,,,,,,,,,,,,,,,,,,,,,,,,,,,,,,R_1JeBbwgNmS1aKcb,1,2024-05-29_12h25.43.107,interaction task,2021.2.3,MacIntel,30.3030303,120853,,,,,,,,,,,,,,,,Smaller,Greater,,,-0.311864407,-0.511921459,1,0,0,LeftButton,"[""LeftButton""]",84,3.113,space,,,,,,,,,,,,,,,0,33,33,33,1,3,only_sub_wrong.png,0,RandomDot16.png,No answer,21,1.101,,
,,,,,,,,,,,,,,,,,,,,,,,,,,,,,,,R_1JeBbwgNmS1aKcb,1,2024-05-29_12h25.43.107,interaction task,2021.2.3,MacIntel,30.3030303,120853,,,,,,,,,,,,,,,,Greater,Smaller,,,0.355932203,-0.469845722,1,0,0,RightButton,"[""RightButton""]",,,,,,,68,4.888,space,4,7.355,,,,,,,0,34,34,34,1,3,only_sub_wrong.png,2,RandomDot38.png,No answer,21,,,0.848
,,,,,,,,,,,,,,,,,,,,,,,,,,,,,,,R_1JeBbwgNmS1aKcb,1,2024-05-29_12h25.43.107,interaction task,2021.2.3,MacIntel,30.3030303,120853,,,,,,,,,,,,,,,,Greater,Smaller,,,0.308474576,-0.458625526,1,0,0,RightButton,"[""RightButton""]",,,,,,,,,,,,51.02722137,4.933,space,0.475,52.39684985,7.967,0,35,35,35,1,3,only_sub_wrong.png,3,RandomDot20.png,No answer,19,,,
,,,,,,,,,,,,,,,,,,,,,,,,,,,,,,,R_1JeBbwgNmS1aKcb,1,2024-05-29_12h25.43.107,interaction task,2021.2.3,MacIntel,30.3030303,120853,,,,,,,,,,,,,,,,Greater,Smaller,,,0.266101695,-0.481065919,1,0,0,RightButton,"[""RightButton""]",71,3.129,space,,,,,,,,,,,,,,,0,36,36,36,1,1,both_wrong.png,0,RandomDot32.png,No answer,19,0.64,,
,,,,,,,,,,,,,,,,,,,,,,,,,,,,,,,R_1JeBbwgNmS1aKcb,1,2024-05-29_12h25.43.107,interaction task,2021.2.3,MacIntel,30.3030303,120853,,,,,,,,,,,,,,,,Greater,Smaller,,,0.284745763,-0.53997195,1,0,0,RightButton,"[""RightButton""]",,,,,,,72,2.224,space,1,3.877,,,,,,,0,37,37,37,1,3,only_sub_wrong.png,2,RandomDot13.png,No answer,21,,,0.56
,,,,,,,,,,,,,,,,,,,,,,,,,,,,,,,R_1JeBbwgNmS1aKcb,1,2024-05-29_12h25.43.107,interaction task,2021.2.3,MacIntel,30.3030303,120853,,,,,,,,,,,,,,,,Greater,Smaller,,,-0.298305085,-0.525946704,1,0,0,LeftButton,"[""LeftButton""]",,,,4.898305085,4.254,space,,,,,,,,,,,,0,38,38,38,1,1,both_wrong.png,1,RandomDot13.png,No answer,19,,0.778,
,,,,,,,,,,,,,,,,,,,,,,,,,,,,,,,R_1JeBbwgNmS1aKcb,1,2024-05-29_12h25.43.107,interaction task,2021.2.3,MacIntel,30.3030303,120853,,,,,,,,,,,,,,,,Greater,Smaller,,,0.286440678,-0.5371669,1,0,0,RightButton,"[""RightButton""]",,,,4.966101695,3.76,space,,,,,,,,,,,,0,39,39,39,1,3,only_sub_wrong.png,1,RandomDot4.png,No answer,20,,1.441,
,,,,,,,,,,,,,,,,,,,,,,,,,,,,,,,R_1JeBbwgNmS1aKcb,1,2024-05-29_12h25.43.107,interaction task,2021.2.3,MacIntel,30.3030303,120853,,,,,,,,,,,,,,,,Greater,Smaller,,,0.26779661,-0.514726508,1,0,0,RightButton,"[""RightButton""]",,,,,,,64,5.178,space,4,7.061,,,,,,,0,40,40,40,1,3,only_sub_wrong.png,2,RandomDot1.png,No answer,20,,,0.552
,,,,,,,,,,,,,,,,,,,,,,,,,,,,,,,R_1JeBbwgNmS1aKcb,1,2024-05-29_12h25.43.107,interaction task,2021.2.3,MacIntel,30.3030303,120853,,,,,,,,,,,,,,,,Smaller,Greater,,,-0.276271186,-0.483870968,1,0,0,LeftButton,"[""LeftButton""]",,,,,,,72,1.767,space,1,3.376,,,,,,,0,41,41,41,1,1,both_wrong.png,2,RandomDot7.png,No answer,21,,,0.501
