choose_trial,key_resp.keys,key_resp.rt,key_resp_4.keys,key_resp_4.rt,session_trait,slider_face_judge.response,slider_face_judge.rt,key_resp_3.keys,key_resp_3.rt,face_loop.thisRepN,face_loop.thisTrialN,face_loop.thisN,face_loop.thisIndex,face_loop.ran,face_serial,image_name,isCheck,answer,check_question,participant,session,date,expName,psychopyVersion,OS,frameRate,SONAid,session.thisRepN,session.thisTrialN,session.thisN,session.thisIndex,session.ran,session_serial,slider_judge_img
"[0,1,2,3,4,5,6,7,8,9,10,11,12,13,14,15,16,17,18,19,20,21,22,23,24,25,26,27,28,29,30,31,32,33,34,35,36,37,38,39,40,41,42,43,44,45,46,47,48,49,55,58,59]",space,0.9151,space,0.6126,trustworthy,3.028359375,4.3921,space,1.0612,0,0,0,22,1,23,image/23.jpg,0,0,,R_1lh2G802tSwgxMU,2,2024-04-19_15h43.09.937,face trait task,2021.2.3,MacIntel,60.24096386,120217,,,,,,,
,,,,,,2.0046875,2.0971,space,0.7964,0,1,1,48,1,49,image/49.jpg,0,0,,R_1lh2G802tSwgxMU,2,2024-04-19_15h43.09.937,face trait task,2021.2.3,MacIntel,60.24096386,120217,,,,,,,
,,,,,,3.999140625,4.2267,space,0.8868,0,2,2,51,1,59,image/59.jpg,1,3,Please drag the slider to around 3 to indicate that you are paying attention,R_1lh2G802tSwgxMU,2,2024-04-19_15h43.09.937,face trait task,2021.2.3,MacIntel,60.24096386,120217,,,,,,,
,,,,,,4.022578125,7.579,space,0.8762,0,3,3,3,1,4,image/4.jpg,0,0,,R_1lh2G802tSwgxMU,2,2024-04-19_15h43.09.937,face trait task,2021.2.3,MacIntel,60.24096386,120217,,,,,,,
,,,,,,3.030989583,9.2716,space,0.7472,0,4,4,29,1,30,image/30.jpg,0,0,,R_1lh2G802tSwgxMU,2,2024-04-19_15h43.09.937,face trait task,2021.2.3,MacIntel,60.24096386,120217,,,,,,,
,,,,,,3.985234375,9.1831,space,0.4835,0,5,5,49,1,50,image/50.jpg,0,0,,R_1lh2G802tSwgxMU,2,2024-04-19_15h43.09.937,face trait task,2021.2.3,MacIntel,60.24096386,120217,,,,,,,
,,,,,,1,2.454,space,0.4343,0,6,6,8,1,9,image/9.jpg,0,0,,R_1lh2G802tSwgxMU,2,2024-04-19_15h43.09.937,face trait task,2021.2.3,MacIntel,60.24096386,120217,,,,,,,
,,,,,,2.02015625,1.9799,space,0.4369,0,7,7,37,1,38,image/38.jpg,0,0,,R_1lh2G802tSwgxMU,2,2024-04-19_15h43.09.937,face trait task,2021.2.3,MacIntel,60.24096386,120217,,,,,,,
,,,,,,1,1.7879,space,0.6172,0,8,8,13,1,14,image/14.jpg,0,0,,R_1lh2G802tSwgxMU,2,2024-04-19_15h43.09.937,face trait task,2021.2.3,MacIntel,60.24096386,120217,,,,,,,
,,,,,,2.01640625,3.0476,space,0.3619,0,9,9,34,1,35,image/35.jpg,0,0,,R_1lh2G802tSwgxMU,2,2024-04-19_15h43.09.937,face trait task,2021.2.3,MacIntel,60.24096386,120217,,,,,,,
,,,,,,1.021015625,2.4205,space,0.4688,0,10,10,42,1,43,image/43.jpg,0,0,,R_1lh2G802tSwgxMU,2,2024-04-19_15h43.09.937,face trait task,2021.2.3,MacIntel,60.24096386,120217,,,,,,,
,,,,,,3.007890625,5.8226,space,0.5772,0,11,11,11,1,12,image/12.jpg,0,0,,R_1lh2G802tSwgxMU,2,2024-04-19_15h43.09.937,face trait task,2021.2.3,MacIntel,60.24096386,120217,,,,,,,
,,,,,,4.02140625,2.0286,space,0.5507,0,12,12,14,1,15,image/15.jpg,0,0,,R_1lh2G802tSwgxMU,2,2024-04-19_15h43.09.937,face trait task,2021.2.3,MacIntel,60.24096386,120217,,,,,,,
,,,,,,1.977369792,2.897,space,0.3792,0,13,13,2,1,3,image/3.jpg,0,0,,R_1lh2G802tSwgxMU,2,2024-04-19_15h43.09.937,face trait task,2021.2.3,MacIntel,60.24096386,120217,,,,,,,
,,,,,,1.02671875,2.0176,space,0.6175,0,14,14,52,1,60,image/60.jpg,1,2,Please drag the slider to around 2 to indicate that you are paying attention,R_1lh2G802tSwgxMU,2,2024-04-19_15h43.09.937,face trait task,2021.2.3,MacIntel,60.24096386,120217,,,,,,,
,,,,,,1.010572917,3.3544,space,1.2013,0,15,15,15,1,16,image/16.jpg,0,0,,R_1lh2G802tSwgxMU,2,2024-04-19_15h43.09.937,face trait task,2021.2.3,MacIntel,60.24096386,120217,,,,,,,
,,,,,,2.04609375,1.691,space,0.6365,0,16,16,41,1,42,image/42.jpg,0,0,,R_1lh2G802tSwgxMU,2,2024-04-19_15h43.09.937,face trait task,2021.2.3,MacIntel,60.24096386,120217,,,,,,,
,,,,,,1.961380208,1.7295,space,0.8865,0,17,17,46,1,47,image/47.jpg,0,0,,R_1lh2G802tSwgxMU,2,2024-04-19_15h43.09.937,face trait task,2021.2.3,MacIntel,60.24096386,120217,,,,,,,
,,,,,,2.005364583,1.9628,space,0.4035,0,18,18,23,1,24,image/24.jpg,0,0,,R_1lh2G802tSwgxMU,2,2024-04-19_15h43.09.937,face trait task,2021.2.3,MacIntel,60.24096386,120217,,,,,,,
,,,,,,3.031119792,1.852,space,0.5836,0,19,19,18,1,19,image/19.jpg,0,0,,R_1lh2G802tSwgxMU,2,2024-04-19_15h43.09.937,face trait task,2021.2.3,MacIntel,60.24096386,120217,,,,,,,
,,,,,,2.985260417,1.8057,space,0.5226,0,20,20,30,1,31,image/31.jpg,0,0,,R_1lh2G802tSwgxMU,2,2024-04-19_15h43.09.937,face trait task,2021.2.3,MacIntel,60.24096386,120217,,,,,,,
,,,,,,2.0290625,3.3081,space,0.4765,0,21,21,9,1,10,image/10.jpg,0,0,,R_1lh2G802tSwgxMU,2,2024-04-19_15h43.09.937,face trait task,2021.2.3,MacIntel,60.24096386,120217,,,,,,,
,,,,,,2.0290625,1.973,space,0.4015,0,22,22,10,1,11,image/11.jpg,0,0,,R_1lh2G802tSwgxMU,2,2024-04-19_15h43.09.937,face trait task,2021.2.3,MacIntel,60.24096386,120217,,,,,,,
,,,,,,1.964739583,1.957,space,0.8685,0,23,23,43,1,44,image/44.jpg,0,0,,R_1lh2G802tSwgxMU,2,2024-04-19_15h43.09.937,face trait task,2021.2.3,MacIntel,60.24096386,120217,,,,,,,
,,,,,,1.953020833,1.8794,space,0.5808,0,24,24,20,1,21,image/21.jpg,0,0,,R_1lh2G802tSwgxMU,2,2024-04-19_15h43.09.937,face trait task,2021.2.3,MacIntel,60.24096386,120217,,,,,,,
,,,,,,1.028645833,2.1319,space,0.3838,0,25,25,36,1,37,image/37.jpg,0,0,,R_1lh2G802tSwgxMU,2,2024-04-19_15h43.09.937,face trait task,2021.2.3,MacIntel,60.24096386,120217,,,,,,,
,,,,,,1.030026042,2.4476,space,0.3187,0,26,26,47,1,48,image/48.jpg,0,0,,R_1lh2G802tSwgxMU,2,2024-04-19_15h43.09.937,face trait task,2021.2.3,MacIntel,60.24096386,120217,,,,,,,
,,,,,,1.010833333,1.7738,space,0.6524,0,27,27,40,1,41,image/41.jpg,0,0,,R_1lh2G802tSwgxMU,2,2024-04-19_15h43.09.937,face trait task,2021.2.3,MacIntel,60.24096386,120217,,,,,,,
,,,,,,1.0203125,1.4319,space,0.4788,0,28,28,26,1,27,image/27.jpg,0,0,,R_1lh2G802tSwgxMU,2,2024-04-19_15h43.09.937,face trait task,2021.2.3,MacIntel,60.24096386,120217,,,,,,,
,,,,,,1.0203125,2.5831,space,0.5008,0,29,29,21,1,22,image/22.jpg,0,0,,R_1lh2G802tSwgxMU,2,2024-04-19_15h43.09.937,face trait task,2021.2.3,MacIntel,60.24096386,120217,,,,,,,
,,,,,,1.023463542,3.0844,space,0.8648,0,30,30,25,1,26,image/26.jpg,0,0,,R_1lh2G802tSwgxMU,2,2024-04-19_15h43.09.937,face trait task,2021.2.3,MacIntel,60.24096386,120217,,,,,,,
,,,,,,2.03359375,2.1256,space,0.5684,0,31,31,50,1,56,image/56.jpg,1,2,Please drag the slider to around 2 to indicate that you are paying attention,R_1lh2G802tSwgxMU,2,2024-04-19_15h43.09.937,face trait task,2021.2.3,MacIntel,60.24096386,120217,,,,,,,
,,,,,,2.022864583,3.7417,space,0.3599,0,32,32,16,1,17,image/17.jpg,0,0,,R_1lh2G802tSwgxMU,2,2024-04-19_15h43.09.937,face trait task,2021.2.3,MacIntel,60.24096386,120217,,,,,,,
,,,,,,2.018177083,1.7017,space,0.3842,0,33,33,45,1,46,image/46.jpg,0,0,,R_1lh2G802tSwgxMU,2,2024-04-19_15h43.09.937,face trait task,2021.2.3,MacIntel,60.24096386,120217,,,,,,,
,,,,,,1.888307292,2.1149,space,0.433,0,34,34,1,1,2,image/2.jpg,0,0,,R_1lh2G802tSwgxMU,2,2024-04-19_15h43.09.937,face trait task,2021.2.3,MacIntel,60.24096386,120217,,,,,,,
,,,,,,2.52875,1.563,space,0.6549,0,35,35,12,1,13,image/13.jpg,0,0,,R_1lh2G802tSwgxMU,2,2024-04-19_15h43.09.937,face trait task,2021.2.3,MacIntel,60.24096386,120217,,,,,,,
,,,,,,2.181380208,2.3356,space,0.2841,0,36,36,19,1,20,image/20.jpg,0,0,,R_1lh2G802tSwgxMU,2,2024-04-19_15h43.09.937,face trait task,2021.2.3,MacIntel,60.24096386,120217,,,,,,,
,,,,,,1.6271875,1.4787,space,0.2516,0,37,37,27,1,28,image/28.jpg,0,0,,R_1lh2G802tSwgxMU,2,2024-04-19_15h43.09.937,face trait task,2021.2.3,MacIntel,60.24096386,120217,,,,,,,
,,,,,,2.500885417,1.1686,space,0.8973,0,38,38,44,1,45,image/45.jpg,0,0,,R_1lh2G802tSwgxMU,2,2024-04-19_15h43.09.937,face trait task,2021.2.3,MacIntel,60.24096386,120217,,,,,,,
,,,,,,2.03515625,1.1966,space,0.2862,0,39,39,31,1,32,image/32.jpg,0,0,,R_1lh2G802tSwgxMU,2,2024-04-19_15h43.09.937,face trait task,2021.2.3,MacIntel,60.24096386,120217,,,,,,,
,,,,,,2.615911458,1.0906,space,0.4005,0,40,40,28,1,29,image/29.jpg,0,0,,R_1lh2G802tSwgxMU,2,2024-04-19_15h43.09.937,face trait task,2021.2.3,MacIntel,60.24096386,120217,,,,,,,
,,,,,,2.690546875,1.4801,space,0.2973,0,41,41,17,1,18,image/18.jpg,0,0,,R_1lh2G802tSwgxMU,2,2024-04-19_15h43.09.937,face trait task,2021.2.3,MacIntel,60.24096386,120217,,,,,,,
,,,,,,2.721588542,1.6968,space,0.2376,0,42,42,39,1,40,image/40.jpg,0,0,,R_1lh2G802tSwgxMU,2,2024-04-19_15h43.09.937,face trait task,2021.2.3,MacIntel,60.24096386,120217,,,,,,,
,,,,,,1.6384375,2.7645,space,1.3864,0,43,43,5,1,6,image/6.jpg,0,0,,R_1lh2G802tSwgxMU,2,2024-04-19_15h43.09.937,face trait task,2021.2.3,MacIntel,60.24096386,120217,,,,,,,
,,,,,,1.271354167,2.2688,space,0.3504,0,44,44,38,1,39,image/39.jpg,0,0,,R_1lh2G802tSwgxMU,2,2024-04-19_15h43.09.937,face trait task,2021.2.3,MacIntel,60.24096386,120217,,,,,,,
,,,,,,1.657083333,2.6574,space,0.9259,0,45,45,32,1,33,image/33.jpg,0,0,,R_1lh2G802tSwgxMU,2,2024-04-19_15h43.09.937,face trait task,2021.2.3,MacIntel,60.24096386,120217,,,,,,,
,,,,,,2.37265625,1.9487,space,0.5947,0,46,46,6,1,7,image/7.jpg,0,0,,R_1lh2G802tSwgxMU,2,2024-04-19_15h43.09.937,face trait task,2021.2.3,MacIntel,60.24096386,120217,,,,,,,
,,,,,,1.945130208,3.9315,space,1.3363,0,47,47,7,1,8,image/8.jpg,0,0,,R_1lh2G802tSwgxMU,2,2024-04-19_15h43.09.937,face trait task,2021.2.3,MacIntel,60.24096386,120217,,,,,,,
,,,,,,1.724765625,2.3686,space,0.874,0,48,48,4,1,5,image/5.jpg,0,0,,R_1lh2G802tSwgxMU,2,2024-04-19_15h43.09.937,face trait task,2021.2.3,MacIntel,60.24096386,120217,,,,,,,
,,,,,,1.974296875,1.8554,space,0.3837,0,49,49,24,1,25,image/25.jpg,0,0,,R_1lh2G802tSwgxMU,2,2024-04-19_15h43.09.937,face trait task,2021.2.3,MacIntel,60.24096386,120217,,,,,,,
,,,,,,1.965182292,1.6149,space,0.3672,0,50,50,35,1,36,image/36.jpg,0,0,,R_1lh2G802tSwgxMU,2,2024-04-19_15h43.09.937,face trait task,2021.2.3,MacIntel,60.24096386,120217,,,,,,,
,,,,,,1.973489583,3.0644,space,0.4675,0,51,51,0,1,1,image/1.jpg,0,0,,R_1lh2G802tSwgxMU,2,2024-04-19_15h43.09.937,face trait task,2021.2.3,MacIntel,60.24096386,120217,,,,,,,
,,,,,,2.018619792,1.7208,space,0.6055,0,52,52,33,1,34,image/34.jpg,0,0,,R_1lh2G802tSwgxMU,2,2024-04-19_15h43.09.937,face trait task,2021.2.3,MacIntel,60.24096386,120217,,,,,,,
,,,,,,,,,,,,,,,,,,,,R_1lh2G802tSwgxMU,2,2024-04-19_15h43.09.937,face trait task,2021.2.3,MacIntel,60.24096386,120217,0,0,0,2,1,2,trustworthy.png
,,,,,competent,1.991484375,2.3372,space,0.7892,0,0,0,50,1,56,image/56.jpg,1,2,Please drag the slider to around 2 to indicate that you are paying attention,R_1lh2G802tSwgxMU,2,2024-04-19_15h43.09.937,face trait task,2021.2.3,MacIntel,60.24096386,120217,,,,,,,
,,,,,,1.968541667,2.138,space,0.5212,0,1,1,17,1,18,image/18.jpg,0,0,,R_1lh2G802tSwgxMU,2,2024-04-19_15h43.09.937,face trait task,2021.2.3,MacIntel,60.24096386,120217,,,,,,,
,,,,,,1.057942708,1.8392,space,0.3003,0,2,2,6,1,7,image/7.jpg,0,0,,R_1lh2G802tSwgxMU,2,2024-04-19_15h43.09.937,face trait task,2021.2.3,MacIntel,60.24096386,120217,,,,,,,
,,,,,,1.254791667,1.1244,space,0.3208,0,3,3,37,1,38,image/38.jpg,0,0,,R_1lh2G802tSwgxMU,2,2024-04-19_15h43.09.937,face trait task,2021.2.3,MacIntel,60.24096386,120217,,,,,,,
,,,,,,1.223567708,1.5477,space,0.4676,0,4,4,15,1,16,image/16.jpg,0,0,,R_1lh2G802tSwgxMU,2,2024-04-19_15h43.09.937,face trait task,2021.2.3,MacIntel,60.24096386,120217,,,,,,,
,,,,,,1.495208333,1.4232,space,0.7385,0,5,5,19,1,20,image/20.jpg,0,0,,R_1lh2G802tSwgxMU,2,2024-04-19_15h43.09.937,face trait task,2021.2.3,MacIntel,60.24096386,120217,,,,,,,
,,,,,,1.573046875,1.4126,space,0.4541,0,6,6,44,1,45,image/45.jpg,0,0,,R_1lh2G802tSwgxMU,2,2024-04-19_15h43.09.937,face trait task,2021.2.3,MacIntel,60.24096386,120217,,,,,,,
,,,,,,1.643619792,2.0646,space,0.5675,0,7,7,25,1,26,image/26.jpg,0,0,,R_1lh2G802tSwgxMU,2,2024-04-19_15h43.09.937,face trait task,2021.2.3,MacIntel,60.24096386,120217,,,,,,,
,,,,,,1.649895833,2.1968,space,0.8307,0,8,8,4,1,5,image/5.jpg,0,0,,R_1lh2G802tSwgxMU,2,2024-04-19_15h43.09.937,face trait task,2021.2.3,MacIntel,60.24096386,120217,,,,,,,
,,,,,,1.681875,3.2096,space,1.1848,0,9,9,35,1,36,image/36.jpg,0,0,,R_1lh2G802tSwgxMU,2,2024-04-19_15h43.09.937,face trait task,2021.2.3,MacIntel,60.24096386,120217,,,,,,,
,,,,,,1.91125,1.7635,space,0.4552,0,10,10,38,1,39,image/39.jpg,0,0,,R_1lh2G802tSwgxMU,2,2024-04-19_15h43.09.937,face trait task,2021.2.3,MacIntel,60.24096386,120217,,,,,,,
,,,,,,1.924765625,2.1304,space,0.5504,0,11,11,1,1,2,image/2.jpg,0,0,,R_1lh2G802tSwgxMU,2,2024-04-19_15h43.09.937,face trait task,2021.2.3,MacIntel,60.24096386,120217,,,,,,,
,,,,,,1.847473958,1.7864,space,0.3961,0,12,12,18,1,19,image/19.jpg,0,0,,R_1lh2G802tSwgxMU,2,2024-04-19_15h43.09.937,face trait task,2021.2.3,MacIntel,60.24096386,120217,,,,,,,
,,,,,,1.897005208,1.369,space,0.3172,0,13,13,5,1,6,image/6.jpg,0,0,,R_1lh2G802tSwgxMU,2,2024-04-19_15h43.09.937,face trait task,2021.2.3,MacIntel,60.24096386,120217,,,,,,,
,,,,,,1.260755208,1.2639,space,0.6017,0,14,14,49,1,50,image/50.jpg,0,0,,R_1lh2G802tSwgxMU,2,2024-04-19_15h43.09.937,face trait task,2021.2.3,MacIntel,60.24096386,120217,,,,,,,
,,,,,,1.454140625,1.9184,space,0.6053,0,15,15,21,1,22,image/22.jpg,0,0,,R_1lh2G802tSwgxMU,2,2024-04-19_15h43.09.937,face trait task,2021.2.3,MacIntel,60.24096386,120217,,,,,,,
,,,,,,1.584348958,2.2241,space,0.7519,0,16,16,41,1,42,image/42.jpg,0,0,,R_1lh2G802tSwgxMU,2,2024-04-19_15h43.09.937,face trait task,2021.2.3,MacIntel,60.24096386,120217,,,,,,,
,,,,,,1.793619792,1.8392,space,2.8623,0,17,17,42,1,43,image/43.jpg,0,0,,R_1lh2G802tSwgxMU,2,2024-04-19_15h43.09.937,face trait task,2021.2.3,MacIntel,60.24096386,120217,,,,,,,
,,,,,,2.979713542,2.3701,space,0.8224,0,18,18,51,1,59,image/59.jpg,1,3,Please drag the slider to around 3 to indicate that you are paying attention,R_1lh2G802tSwgxMU,2,2024-04-19_15h43.09.937,face trait task,2021.2.3,MacIntel,60.24096386,120217,,,,,,,
,,,,,,1.937890625,1.8948,space,0.319,0,19,19,46,1,47,image/47.jpg,0,0,,R_1lh2G802tSwgxMU,2,2024-04-19_15h43.09.937,face trait task,2021.2.3,MacIntel,60.24096386,120217,,,,,,,
,,,,,,1.541770833,1.381,space,0.3702,0,20,20,29,1,30,image/30.jpg,0,0,,R_1lh2G802tSwgxMU,2,2024-04-19_15h43.09.937,face trait task,2021.2.3,MacIntel,60.24096386,120217,,,,,,,
,,,,,,1.396067708,0.7036,space,0.6129,0,21,21,30,1,31,image/31.jpg,0,0,,R_1lh2G802tSwgxMU,2,2024-04-19_15h43.09.937,face trait task,2021.2.3,MacIntel,60.24096386,120217,,,,,,,
,,,,,,3.178723958,1.5354,space,0.5878,0,22,22,20,1,21,image/21.jpg,0,0,,R_1lh2G802tSwgxMU,2,2024-04-19_15h43.09.937,face trait task,2021.2.3,MacIntel,60.24096386,120217,,,,,,,
,,,,,,1.302864583,1.5573,space,0.4627,0,23,23,48,1,49,image/49.jpg,0,0,,R_1lh2G802tSwgxMU,2,2024-04-19_15h43.09.937,face trait task,2021.2.3,MacIntel,60.24096386,120217,,,,,,,
,,,,,,1.815364583,1.8902,space,0.617,0,24,24,23,1,24,image/24.jpg,0,0,,R_1lh2G802tSwgxMU,2,2024-04-19_15h43.09.937,face trait task,2021.2.3,MacIntel,60.24096386,120217,,,,,,,
,,,,,,1.387083333,2.0357,space,0.4635,0,25,25,22,1,23,image/23.jpg,0,0,,R_1lh2G802tSwgxMU,2,2024-04-19_15h43.09.937,face trait task,2021.2.3,MacIntel,60.24096386,120217,,,,,,,
,,,,,,1.731171875,3.1854,space,0.3012,0,26,26,34,1,35,image/35.jpg,0,0,,R_1lh2G802tSwgxMU,2,2024-04-19_15h43.09.937,face trait task,2021.2.3,MacIntel,60.24096386,120217,,,,,,,
,,,,,,1.575182292,1.6856,space,0.5012,0,27,27,28,1,29,image/29.jpg,0,0,,R_1lh2G802tSwgxMU,2,2024-04-19_15h43.09.937,face trait task,2021.2.3,MacIntel,60.24096386,120217,,,,,,,
,,,,,,1.556953125,1.641,space,0.5361,0,28,28,10,1,11,image/11.jpg,0,0,,R_1lh2G802tSwgxMU,2,2024-04-19_15h43.09.937,face trait task,2021.2.3,MacIntel,60.24096386,120217,,,,,,,
,,,,,,1.988828125,1.6809,space,0.2501,0,29,29,11,1,12,image/12.jpg,0,0,,R_1lh2G802tSwgxMU,2,2024-04-19_15h43.09.937,face trait task,2021.2.3,MacIntel,60.24096386,120217,,,,,,,
,,,,,,5.0325,3.5484,space,0.7878,0,30,30,39,1,40,image/40.jpg,0,0,,R_1lh2G802tSwgxMU,2,2024-04-19_15h43.09.937,face trait task,2021.2.3,MacIntel,60.24096386,120217,,,,,,,
,,,,,,1.566770833,2.0293,space,0.5177,0,31,31,14,1,15,image/15.jpg,0,0,,R_1lh2G802tSwgxMU,2,2024-04-19_15h43.09.937,face trait task,2021.2.3,MacIntel,60.24096386,120217,,,,,,,
,,,,,,1.042317708,1.7474,space,0.5842,0,32,32,40,1,41,image/41.jpg,0,0,,R_1lh2G802tSwgxMU,2,2024-04-19_15h43.09.937,face trait task,2021.2.3,MacIntel,60.24096386,120217,,,,,,,
,,,,,,1.015338542,1.8468,space,0.3367,0,33,33,3,1,4,image/4.jpg,0,0,,R_1lh2G802tSwgxMU,2,2024-04-19_15h43.09.937,face trait task,2021.2.3,MacIntel,60.24096386,120217,,,,,,,
,,,,,,1.211510417,1.3128,space,0.3039,0,34,34,31,1,32,image/32.jpg,0,0,,R_1lh2G802tSwgxMU,2,2024-04-19_15h43.09.937,face trait task,2021.2.3,MacIntel,60.24096386,120217,,,,,,,
,,,,,,1.181041667,1.2589,space,0.3449,0,35,35,27,1,28,image/28.jpg,0,0,,R_1lh2G802tSwgxMU,2,2024-04-19_15h43.09.937,face trait task,2021.2.3,MacIntel,60.24096386,120217,,,,,,,
,,,,,,1.199557292,1.4211,space,0.4964,0,36,36,8,1,9,image/9.jpg,0,0,,R_1lh2G802tSwgxMU,2,2024-04-19_15h43.09.937,face trait task,2021.2.3,MacIntel,60.24096386,120217,,,,,,,
,,,,,,1.366432292,1.1132,space,0.3366,0,37,37,13,1,14,image/14.jpg,0,0,,R_1lh2G802tSwgxMU,2,2024-04-19_15h43.09.937,face trait task,2021.2.3,MacIntel,60.24096386,120217,,,,,,,
,,,,,,1.459661458,1.2699,space,0.4173,0,38,38,26,1,27,image/27.jpg,0,0,,R_1lh2G802tSwgxMU,2,2024-04-19_15h43.09.937,face trait task,2021.2.3,MacIntel,60.24096386,120217,,,,,,,
,,,,,,1.97140625,1.2348,space,0.3503,0,39,39,36,1,37,image/37.jpg,0,0,,R_1lh2G802tSwgxMU,2,2024-04-19_15h43.09.937,face trait task,2021.2.3,MacIntel,60.24096386,120217,,,,,,,
,,,,,,1.67359375,1.9034,space,0.529,0,40,40,2,1,3,image/3.jpg,0,0,,R_1lh2G802tSwgxMU,2,2024-04-19_15h43.09.937,face trait task,2021.2.3,MacIntel,60.24096386,120217,,,,,,,
,,,,,,1.75390625,1.6025,space,0.5239,0,41,41,0,1,1,image/1.jpg,0,0,,R_1lh2G802tSwgxMU,2,2024-04-19_15h43.09.937,face trait task,2021.2.3,MacIntel,60.24096386,120217,,,,,,,
,,,,,,1.771432292,1.4043,space,0.4061,0,42,42,24,1,25,image/25.jpg,0,0,,R_1lh2G802tSwgxMU,2,2024-04-19_15h43.09.937,face trait task,2021.2.3,MacIntel,60.24096386,120217,,,,,,,
,,,,,,1.976901042,2.8455,space,0.3507,0,43,43,45,1,46,image/46.jpg,0,0,,R_1lh2G802tSwgxMU,2,2024-04-19_15h43.09.937,face trait task,2021.2.3,MacIntel,60.24096386,120217,,,,,,,
,,,,,,1.956901042,2.036,space,0.2705,0,44,44,32,1,33,image/33.jpg,0,0,,R_1lh2G802tSwgxMU,2,2024-04-19_15h43.09.937,face trait task,2021.2.3,MacIntel,60.24096386,120217,,,,,,,
,,,,,,2.014947917,2.6586,space,0.3147,0,45,45,12,1,13,image/13.jpg,0,0,,R_1lh2G802tSwgxMU,2,2024-04-19_15h43.09.937,face trait task,2021.2.3,MacIntel,60.24096386,120217,,,,,,,
,,,,,,2.018515625,2.1252,space,0.4833,0,46,46,47,1,48,image/48.jpg,0,0,,R_1lh2G802tSwgxMU,2,2024-04-19_15h43.09.937,face trait task,2021.2.3,MacIntel,60.24096386,120217,,,,,,,
,,,,,,2.018515625,1.8971,space,0.3301,0,47,47,7,1,8,image/8.jpg,0,0,,R_1lh2G802tSwgxMU,2,2024-04-19_15h43.09.937,face trait task,2021.2.3,MacIntel,60.24096386,120217,,,,,,,
,,,,,,1.989192708,1.7735,space,0.5505,0,48,48,43,1,44,image/44.jpg,0,0,,R_1lh2G802tSwgxMU,2,2024-04-19_15h43.09.937,face trait task,2021.2.3,MacIntel,60.24096386,120217,,,,,,,
,,,,,,1.989192708,1.1181,space,0.2182,0,49,49,9,1,10,image/10.jpg,0,0,,R_1lh2G802tSwgxMU,2,2024-04-19_15h43.09.937,face trait task,2021.2.3,MacIntel,60.24096386,120217,,,,,,,
,,,,,,1.727291667,1.8699,space,0.7168,0,50,50,33,1,34,image/34.jpg,0,0,,R_1lh2G802tSwgxMU,2,2024-04-19_15h43.09.937,face trait task,2021.2.3,MacIntel,60.24096386,120217,,,,,,,
,,,,,,1.662708333,1.2802,space,0.4622,0,51,51,52,1,60,image/60.jpg,1,2,Please drag the slider to around 2 to indicate that you are paying attention,R_1lh2G802tSwgxMU,2,2024-04-19_15h43.09.937,face trait task,2021.2.3,MacIntel,60.24096386,120217,,,,,,,
,,,,,,1.646796875,1.4331,space,0.321,0,52,52,16,1,17,image/17.jpg,0,0,,R_1lh2G802tSwgxMU,2,2024-04-19_15h43.09.937,face trait task,2021.2.3,MacIntel,60.24096386,120217,,,,,,,
,,,,,,,,,,,,,,,,,,,,R_1lh2G802tSwgxMU,2,2024-04-19_15h43.09.937,face trait task,2021.2.3,MacIntel,60.24096386,120217,0,1,1,1,1,1,competent.png
,,,,,critical,2.017057292,2.3678,space,0.6208,0,0,0,48,1,49,image/49.jpg,0,0,,R_1lh2G802tSwgxMU,2,2024-04-19_15h43.09.937,face trait task,2021.2.3,MacIntel,60.24096386,120217,,,,,,,
,,,,,,2.118880208,3.2183,space,2.1483,0,1,1,29,1,30,image/30.jpg,0,0,,R_1lh2G802tSwgxMU,2,2024-04-19_15h43.09.937,face trait task,2021.2.3,MacIntel,60.24096386,120217,,,,,,,
,,,,,,2.771041667,2.7248,space,0.3183,0,2,2,3,1,4,image/4.jpg,0,0,,R_1lh2G802tSwgxMU,2,2024-04-19_15h43.09.937,face trait task,2021.2.3,MacIntel,60.24096386,120217,,,,,,,
,,,,,,2.603385417,2.1358,space,0.6392,0,3,3,30,1,31,image/31.jpg,0,0,,R_1lh2G802tSwgxMU,2,2024-04-19_15h43.09.937,face trait task,2021.2.3,MacIntel,60.24096386,120217,,,,,,,
,,,,,,3.190859375,1.3632,space,0.3358,0,4,4,51,1,59,image/59.jpg,1,3,Please drag the slider to around 3 to indicate that you are paying attention,R_1lh2G802tSwgxMU,2,2024-04-19_15h43.09.937,face trait task,2021.2.3,MacIntel,60.24096386,120217,,,,,,,
,,,,,,2.862161458,1.1844,space,0.4342,0,5,5,45,1,46,image/46.jpg,0,0,,R_1lh2G802tSwgxMU,2,2024-04-19_15h43.09.937,face trait task,2021.2.3,MacIntel,60.24096386,120217,,,,,,,
,,,,,,3.573333333,1.5404,space,0.3177,0,6,6,25,1,26,image/26.jpg,0,0,,R_1lh2G802tSwgxMU,2,2024-04-19_15h43.09.937,face trait task,2021.2.3,MacIntel,60.24096386,120217,,,,,,,
,,,,,,2.316979167,4.4129,space,0.3064,0,7,7,43,1,44,image/44.jpg,0,0,,R_1lh2G802tSwgxMU,2,2024-04-19_15h43.09.937,face trait task,2021.2.3,MacIntel,60.24096386,120217,,,,,,,
,,,,,,2.896145833,3.057,space,1.0841,0,8,8,49,1,50,image/50.jpg,0,0,,R_1lh2G802tSwgxMU,2,2024-04-19_15h43.09.937,face trait task,2021.2.3,MacIntel,60.24096386,120217,,,,,,,
,,,,,,2.753645833,1.3186,space,0.578,0,9,9,17,1,18,image/18.jpg,0,0,,R_1lh2G802tSwgxMU,2,2024-04-19_15h43.09.937,face trait task,2021.2.3,MacIntel,60.24096386,120217,,,,,,,
,,,,,,2.449479167,4.3376,space,0.6448,0,10,10,42,1,43,image/43.jpg,0,0,,R_1lh2G802tSwgxMU,2,2024-04-19_15h43.09.937,face trait task,2021.2.3,MacIntel,60.24096386,120217,,,,,,,
,,,,,,2.719114583,2.2111,space,1.3189,0,11,11,18,1,19,image/19.jpg,0,0,,R_1lh2G802tSwgxMU,2,2024-04-19_15h43.09.937,face trait task,2021.2.3,MacIntel,60.24096386,120217,,,,,,,
,,,,,,2.900989583,2.2135,space,0.584,0,12,12,34,1,35,image/35.jpg,0,0,,R_1lh2G802tSwgxMU,2,2024-04-19_15h43.09.937,face trait task,2021.2.3,MacIntel,60.24096386,120217,,,,,,,
,,,,,,2.811458333,2.7691,space,1.322,0,13,13,24,1,25,image/25.jpg,0,0,,R_1lh2G802tSwgxMU,2,2024-04-19_15h43.09.937,face trait task,2021.2.3,MacIntel,60.24096386,120217,,,,,,,
,,,,,,2.935546875,2.0893,space,0.4674,0,14,14,12,1,13,image/13.jpg,0,0,,R_1lh2G802tSwgxMU,2,2024-04-19_15h43.09.937,face trait task,2021.2.3,MacIntel,60.24096386,120217,,,,,,,
,,,,,,2.940052083,1.9809,space,0.5682,0,15,15,46,1,47,image/47.jpg,0,0,,R_1lh2G802tSwgxMU,2,2024-04-19_15h43.09.937,face trait task,2021.2.3,MacIntel,60.24096386,120217,,,,,,,
,,,,,,2.938411458,1.8522,space,0.5402,0,16,16,16,1,17,image/17.jpg,0,0,,R_1lh2G802tSwgxMU,2,2024-04-19_15h43.09.937,face trait task,2021.2.3,MacIntel,60.24096386,120217,,,,,,,
,,,,,,2.938411458,1.7682,space,1.0672,0,17,17,2,1,3,image/3.jpg,0,0,,R_1lh2G802tSwgxMU,2,2024-04-19_15h43.09.937,face trait task,2021.2.3,MacIntel,60.24096386,120217,,,,,,,
,,,,,,2.944557292,8.2565,space,0.2583,0,18,18,20,1,21,image/21.jpg,0,0,,R_1lh2G802tSwgxMU,2,2024-04-19_15h43.09.937,face trait task,2021.2.3,MacIntel,60.24096386,120217,,,,,,,
,,,,,,3.025963542,1.5724,space,0.6293,0,19,19,7,1,8,image/8.jpg,0,0,,R_1lh2G802tSwgxMU,2,2024-04-19_15h43.09.937,face trait task,2021.2.3,MacIntel,60.24096386,120217,,,,,,,
,,,,,,2.664661458,1.7131,space,0.3208,0,20,20,40,1,41,image/41.jpg,0,0,,R_1lh2G802tSwgxMU,2,2024-04-19_15h43.09.937,face trait task,2021.2.3,MacIntel,60.24096386,120217,,,,,,,
,,,,,,3.021145833,2.1305,space,0.7968,0,21,21,33,1,34,image/34.jpg,0,0,,R_1lh2G802tSwgxMU,2,2024-04-19_15h43.09.937,face trait task,2021.2.3,MacIntel,60.24096386,120217,,,,,,,
,,,,,,3.934583333,3.0015,space,8.8951,0,22,22,39,1,40,image/40.jpg,0,0,,R_1lh2G802tSwgxMU,2,2024-04-19_15h43.09.937,face trait task,2021.2.3,MacIntel,60.24096386,120217,,,,,,,
,,,,,,2.320677083,2.5244,space,0.3511,0,23,23,44,1,45,image/45.jpg,0,0,,R_1lh2G802tSwgxMU,2,2024-04-19_15h43.09.937,face trait task,2021.2.3,MacIntel,60.24096386,120217,,,,,,,
,,,,,,2.888619792,8.8459,space,1.2688,0,24,24,31,1,32,image/32.jpg,0,0,,R_1lh2G802tSwgxMU,2,2024-04-19_15h43.09.937,face trait task,2021.2.3,MacIntel,60.24096386,120217,,,,,,,
,,,,,,4.049739583,6.4012,space,5.37,0,25,25,1,1,2,image/2.jpg,0,0,,R_1lh2G802tSwgxMU,2,2024-04-19_15h43.09.937,face trait task,2021.2.3,MacIntel,60.24096386,120217,,,,,,,
,,,,,,3.4421875,4.667,space,1.0461,0,26,26,28,1,29,image/29.jpg,0,0,,R_1lh2G802tSwgxMU,2,2024-04-19_15h43.09.937,face trait task,2021.2.3,MacIntel,60.24096386,120217,,,,,,,
,,,,,,3.625625,9.3288,space,0.4184,0,27,27,14,1,15,image/15.jpg,0,0,,R_1lh2G802tSwgxMU,2,2024-04-19_15h43.09.937,face trait task,2021.2.3,MacIntel,60.24096386,120217,,,,,,,
,,,,,,2.567916667,2.8139,space,0.2524,0,28,28,0,1,1,image/1.jpg,0,0,,R_1lh2G802tSwgxMU,2,2024-04-19_15h43.09.937,face trait task,2021.2.3,MacIntel,60.24096386,120217,,,,,,,
,,,,,,3.692369792,23.9451,space,0.5375,0,29,29,23,1,24,image/24.jpg,0,0,,R_1lh2G802tSwgxMU,2,2024-04-19_15h43.09.937,face trait task,2021.2.3,MacIntel,60.24096386,120217,,,,,,,
,,,,,,2.697734375,13.5787,space,19.9971,0,30,30,10,1,11,image/11.jpg,0,0,,R_1lh2G802tSwgxMU,2,2024-04-19_15h43.09.937,face trait task,2021.2.3,MacIntel,60.24096386,120217,,,,,,,
,,,,,,2.989661458,1.9034,space,0.3461,0,31,31,4,1,5,image/5.jpg,0,0,,R_1lh2G802tSwgxMU,2,2024-04-19_15h43.09.937,face trait task,2021.2.3,MacIntel,60.24096386,120217,,,,,,,
,,,,,,3.010182292,2.0149,space,6.3692,0,32,32,38,1,39,image/39.jpg,0,0,,R_1lh2G802tSwgxMU,2,2024-04-19_15h43.09.937,face trait task,2021.2.3,MacIntel,60.24096386,120217,,,,,,,
,,,,,,3.321510417,2.1419,space,0.4961,0,33,33,36,1,37,image/37.jpg,0,0,,R_1lh2G802tSwgxMU,2,2024-04-19_15h43.09.937,face trait task,2021.2.3,MacIntel,60.24096386,120217,,,,,,,
,,,,,,3.227708333,1.8403,space,0.3952,0,34,34,27,1,28,image/28.jpg,0,0,,R_1lh2G802tSwgxMU,2,2024-04-19_15h43.09.937,face trait task,2021.2.3,MacIntel,60.24096386,120217,,,,,,,
,,,,,,3.250208333,1.7026,space,0.734,0,35,35,13,1,14,image/14.jpg,0,0,,R_1lh2G802tSwgxMU,2,2024-04-19_15h43.09.937,face trait task,2021.2.3,MacIntel,60.24096386,120217,,,,,,,
,,,,,,3.349401042,4.4183,space,0.8831,0,36,36,47,1,48,image/48.jpg,0,0,,R_1lh2G802tSwgxMU,2,2024-04-19_15h43.09.937,face trait task,2021.2.3,MacIntel,60.24096386,120217,,,,,,,
,,,,,,3.374348958,1.7364,space,0.5342,0,37,37,35,1,36,image/36.jpg,0,0,,R_1lh2G802tSwgxMU,2,2024-04-19_15h43.09.937,face trait task,2021.2.3,MacIntel,60.24096386,120217,,,,,,,
,,,,,,3.731822917,6.0144,space,1.3144,0,38,38,11,1,12,image/12.jpg,0,0,,R_1lh2G802tSwgxMU,2,2024-04-19_15h43.09.937,face trait task,2021.2.3,MacIntel,60.24096386,120217,,,,,,,
,,,,,,3.554348958,1.6802,space,0.2843,0,39,39,22,1,23,image/23.jpg,0,0,,R_1lh2G802tSwgxMU,2,2024-04-19_15h43.09.937,face trait task,2021.2.3,MacIntel,60.24096386,120217,,,,,,,
,,,,,,3.553932292,5.0942,space,1.0183,0,40,40,15,1,16,image/16.jpg,0,0,,R_1lh2G802tSwgxMU,2,2024-04-19_15h43.09.937,face trait task,2021.2.3,MacIntel,60.24096386,120217,,,,,,,
,,,,,,1.984036458,3.5127,space,0.7285,0,41,41,52,1,60,image/60.jpg,1,2,Please drag the slider to around 2 to indicate that you are paying attention,R_1lh2G802tSwgxMU,2,2024-04-19_15h43.09.937,face trait task,2021.2.3,MacIntel,60.24096386,120217,,,,,,,
,,,,,,2.601171875,4.1559,space,0.5779,0,42,42,32,1,33,image/33.jpg,0,0,,R_1lh2G802tSwgxMU,2,2024-04-19_15h43.09.937,face trait task,2021.2.3,MacIntel,60.24096386,120217,,,,,,,
,,,,,,3.023619792,2.3962,space,0.5731,0,43,43,19,1,20,image/20.jpg,0,0,,R_1lh2G802tSwgxMU,2,2024-04-19_15h43.09.937,face trait task,2021.2.3,MacIntel,60.24096386,120217,,,,,,,
,,,,,,3.097005208,5.7617,space,0.4177,0,44,44,6,1,7,image/7.jpg,0,0,,R_1lh2G802tSwgxMU,2,2024-04-19_15h43.09.937,face trait task,2021.2.3,MacIntel,60.24096386,120217,,,,,,,
,,,,,,3.098723958,3.3152,space,0.4008,0,45,45,5,1,6,image/6.jpg,0,0,,R_1lh2G802tSwgxMU,2,2024-04-19_15h43.09.937,face trait task,2021.2.3,MacIntel,60.24096386,120217,,,,,,,
,,,,,,3.272682292,2.7326,space,0.8638,0,46,46,21,1,22,image/22.jpg,0,0,,R_1lh2G802tSwgxMU,2,2024-04-19_15h43.09.937,face trait task,2021.2.3,MacIntel,60.24096386,120217,,,,,,,
,,,,,,3.300911458,2.4708,space,0.4008,0,47,47,50,1,56,image/56.jpg,1,2,Please drag the slider to around 2 to indicate that you are paying attention,R_1lh2G802tSwgxMU,2,2024-04-19_15h43.09.937,face trait task,2021.2.3,MacIntel,60.24096386,120217,,,,,,,
,,,,,,2.979348958,11.9887,space,0.2403,0,48,48,41,1,42,image/42.jpg,0,0,,R_1lh2G802tSwgxMU,2,2024-04-19_15h43.09.937,face trait task,2021.2.3,MacIntel,60.24096386,120217,,,,,,,
,,,,,,2.290052083,1.8547,space,0.5615,0,49,49,37,1,38,image/38.jpg,0,0,,R_1lh2G802tSwgxMU,2,2024-04-19_15h43.09.937,face trait task,2021.2.3,MacIntel,60.24096386,120217,,,,,,,
,,,,,,2.463489583,1.203,space,0.5327,0,50,50,26,1,27,image/27.jpg,0,0,,R_1lh2G802tSwgxMU,2,2024-04-19_15h43.09.937,face trait task,2021.2.3,MacIntel,60.24096386,120217,,,,,,,
,,,,,,2.907447917,1.1408,space,0.2838,0,51,51,8,1,9,image/9.jpg,0,0,,R_1lh2G802tSwgxMU,2,2024-04-19_15h43.09.937,face trait task,2021.2.3,MacIntel,60.24096386,120217,,,,,,,
,,,,,,2.79328125,1.4806,space,0.4008,0,52,52,9,1,10,image/10.jpg,0,0,,R_1lh2G802tSwgxMU,2,2024-04-19_15h43.09.937,face trait task,2021.2.3,MacIntel,60.24096386,120217,,,,,,,
,,,,,,,,,,,,,,,,,,,,R_1lh2G802tSwgxMU,2,2024-04-19_15h43.09.937,face trait task,2021.2.3,MacIntel,60.24096386,120217,0,2,2,0,1,0,critical.png
,,,,,friendly,3.321770833,1.471,space,0.6575,0,0,0,3,1,4,image/4.jpg,0,0,,R_1lh2G802tSwgxMU,2,2024-04-19_15h43.09.937,face trait task,2021.2.3,MacIntel,60.24096386,120217,,,,,,,
,,,,,,3.628020833,1.5147,space,0.6004,0,1,1,35,1,36,image/36.jpg,0,0,,R_1lh2G802tSwgxMU,2,2024-04-19_15h43.09.937,face trait task,2021.2.3,MacIntel,60.24096386,120217,,,,,,,
,,,,,,3.0309375,2.2817,space,0.3051,0,2,2,6,1,7,image/7.jpg,0,0,,R_1lh2G802tSwgxMU,2,2024-04-19_15h43.09.937,face trait task,2021.2.3,MacIntel,60.24096386,120217,,,,,,,
,,,,,,2.286848958,1.9394,space,0.9306,0,3,3,26,1,27,image/27.jpg,0,0,,R_1lh2G802tSwgxMU,2,2024-04-19_15h43.09.937,face trait task,2021.2.3,MacIntel,60.24096386,120217,,,,,,,
,,,,,,2.49546875,1.1302,space,0.5865,0,4,4,15,1,16,image/16.jpg,0,0,,R_1lh2G802tSwgxMU,2,2024-04-19_15h43.09.937,face trait task,2021.2.3,MacIntel,60.24096386,120217,,,,,,,
,,,,,,2.483333333,2.3238,space,0.3346,0,5,5,48,1,49,image/49.jpg,0,0,,R_1lh2G802tSwgxMU,2,2024-04-19_15h43.09.937,face trait task,2021.2.3,MacIntel,60.24096386,120217,,,,,,,
,,,,,,2.507109375,2.7484,space,0.4675,0,6,6,10,1,11,image/11.jpg,0,0,,R_1lh2G802tSwgxMU,2,2024-04-19_15h43.09.937,face trait task,2021.2.3,MacIntel,60.24096386,120217,,,,,,,
,,,,,,2.575,3.2131,space,0.5169,0,7,7,4,1,5,image/5.jpg,0,0,,R_1lh2G802tSwgxMU,2,2024-04-19_15h43.09.937,face trait task,2021.2.3,MacIntel,60.24096386,120217,,,,,,,
,,,,,,2.738255208,1.9117,space,0.267,0,8,8,46,1,47,image/47.jpg,0,0,,R_1lh2G802tSwgxMU,2,2024-04-19_15h43.09.937,face trait task,2021.2.3,MacIntel,60.24096386,120217,,,,,,,
,,,,,,2.850546875,2.2652,space,5.4342,0,9,9,27,1,28,image/28.jpg,0,0,,R_1lh2G802tSwgxMU,2,2024-04-19_15h43.09.937,face trait task,2021.2.3,MacIntel,60.24096386,120217,,,,,,,
,,,,,,3.722890625,24.8892,space,0.9209,0,10,10,38,1,39,image/39.jpg,0,0,,R_1lh2G802tSwgxMU,2,2024-04-19_15h43.09.937,face trait task,2021.2.3,MacIntel,60.24096386,120217,,,,,,,
,,,,,,3.722890625,4.6235,space,0.7612,0,11,11,2,1,3,image/3.jpg,0,0,,R_1lh2G802tSwgxMU,2,2024-04-19_15h43.09.937,face trait task,2021.2.3,MacIntel,60.24096386,120217,,,,,,,
,,,,,,3.722890625,2.8971,space,0.8668,0,12,12,19,1,20,image/20.jpg,0,0,,R_1lh2G802tSwgxMU,2,2024-04-19_15h43.09.937,face trait task,2021.2.3,MacIntel,60.24096386,120217,,,,,,,
,,,,,,3.722890625,5.9778,space,1.2131,0,13,13,34,1,35,image/35.jpg,0,0,,R_1lh2G802tSwgxMU,2,2024-04-19_15h43.09.937,face trait task,2021.2.3,MacIntel,60.24096386,120217,,,,,,,
,,,,,,3.624739583,3.7609,space,13.1844,0,14,14,7,1,8,image/8.jpg,0,0,,R_1lh2G802tSwgxMU,2,2024-04-19_15h43.09.937,face trait task,2021.2.3,MacIntel,60.24096386,120217,,,,,,,
,,,,,,3.547916667,8.3017,space,0.8518,0,15,15,36,1,37,image/37.jpg,0,0,,R_1lh2G802tSwgxMU,2,2024-04-19_15h43.09.937,face trait task,2021.2.3,MacIntel,60.24096386,120217,,,,,,,
,,,,,,3.473880208,1.8295,space,0.2342,0,16,16,28,1,29,image/29.jpg,0,0,,R_1lh2G802tSwgxMU,2,2024-04-19_15h43.09.937,face trait task,2021.2.3,MacIntel,60.24096386,120217,,,,,,,
,,,,,,3.42296875,2.0882,space,0.663,0,17,17,21,1,22,image/22.jpg,0,0,,R_1lh2G802tSwgxMU,2,2024-04-19_15h43.09.937,face trait task,2021.2.3,MacIntel,60.24096386,120217,,,,,,,
,,,,,,3.019166667,1.8013,space,0.5842,0,18,18,29,1,30,image/30.jpg,0,0,,R_1lh2G802tSwgxMU,2,2024-04-19_15h43.09.937,face trait task,2021.2.3,MacIntel,60.24096386,120217,,,,,,,
,,,,,,2.979583333,1.9135,space,0.2805,0,19,19,16,1,17,image/17.jpg,0,0,,R_1lh2G802tSwgxMU,2,2024-04-19_15h43.09.937,face trait task,2021.2.3,MacIntel,60.24096386,120217,,,,,,,
,,,,,,2.97890625,1.9157,space,0.4034,0,20,20,33,1,34,image/34.jpg,0,0,,R_1lh2G802tSwgxMU,2,2024-04-19_15h43.09.937,face trait task,2021.2.3,MacIntel,60.24096386,120217,,,,,,,
,,,,,,2.984947917,1.513,space,0.2022,0,21,21,14,1,15,image/15.jpg,0,0,,R_1lh2G802tSwgxMU,2,2024-04-19_15h43.09.937,face trait task,2021.2.3,MacIntel,60.24096386,120217,,,,,,,
,,,,,,3.006484375,2.8354,space,0.3171,0,22,22,9,1,10,image/10.jpg,0,0,,R_1lh2G802tSwgxMU,2,2024-04-19_15h43.09.937,face trait task,2021.2.3,MacIntel,60.24096386,120217,,,,,,,
,,,,,,3.008098958,2.4309,space,1.2776,0,23,23,5,1,6,image/6.jpg,0,0,,R_1lh2G802tSwgxMU,2,2024-04-19_15h43.09.937,face trait task,2021.2.3,MacIntel,60.24096386,120217,,,,,,,
,,,,,,3.005078125,1.7313,space,0.4001,0,24,24,25,1,26,image/26.jpg,0,0,,R_1lh2G802tSwgxMU,2,2024-04-19_15h43.09.937,face trait task,2021.2.3,MacIntel,60.24096386,120217,,,,,,,
,,,,,,3.005078125,6.7783,space,0.7704,0,25,25,41,1,42,image/42.jpg,0,0,,R_1lh2G802tSwgxMU,2,2024-04-19_15h43.09.937,face trait task,2021.2.3,MacIntel,60.24096386,120217,,,,,,,
,,,,,,2.98328125,3.4663,space,0.913,0,26,26,22,1,23,image/23.jpg,0,0,,R_1lh2G802tSwgxMU,2,2024-04-19_15h43.09.937,face trait task,2021.2.3,MacIntel,60.24096386,120217,,,,,,,
,,,,,,2.98328125,2.1191,space,0.3801,0,27,27,43,1,44,image/44.jpg,0,0,,R_1lh2G802tSwgxMU,2,2024-04-19_15h43.09.937,face trait task,2021.2.3,MacIntel,60.24096386,120217,,,,,,,
,,,,,,3.003984375,2.3232,space,0.5216,0,28,28,37,1,38,image/38.jpg,0,0,,R_1lh2G802tSwgxMU,2,2024-04-19_15h43.09.937,face trait task,2021.2.3,MacIntel,60.24096386,120217,,,,,,,
,,,,,,2.961458333,4.407,space,0.388,0,29,29,30,1,31,image/31.jpg,0,0,,R_1lh2G802tSwgxMU,2,2024-04-19_15h43.09.937,face trait task,2021.2.3,MacIntel,60.24096386,120217,,,,,,,
,,,,,,2.797994792,1.8966,space,0.4634,0,30,30,8,1,9,image/9.jpg,0,0,,R_1lh2G802tSwgxMU,2,2024-04-19_15h43.09.937,face trait task,2021.2.3,MacIntel,60.24096386,120217,,,,,,,
,,,,,,3.001640625,1.7464,space,0.6347,0,31,31,40,1,41,image/41.jpg,0,0,,R_1lh2G802tSwgxMU,2,2024-04-19_15h43.09.937,face trait task,2021.2.3,MacIntel,60.24096386,120217,,,,,,,
,,,,,,2.904635417,1.9488,space,0.3329,0,32,32,1,1,2,image/2.jpg,0,0,,R_1lh2G802tSwgxMU,2,2024-04-19_15h43.09.937,face trait task,2021.2.3,MacIntel,60.24096386,120217,,,,,,,
,,,,,,2.854427083,4.2742,space,1.0936,0,33,33,39,1,40,image/40.jpg,0,0,,R_1lh2G802tSwgxMU,2,2024-04-19_15h43.09.937,face trait task,2021.2.3,MacIntel,60.24096386,120217,,,,,,,
,,,,,,3.007473958,2.3005,space,0.4845,0,34,34,51,1,59,image/59.jpg,1,3,Please drag the slider to around 3 to indicate that you are paying attention,R_1lh2G802tSwgxMU,2,2024-04-19_15h43.09.937,face trait task,2021.2.3,MacIntel,60.24096386,120217,,,,,,,
,,,,,,2.922161458,5.373,space,0.7446,0,35,35,11,1,12,image/12.jpg,0,0,,R_1lh2G802tSwgxMU,2,2024-04-19_15h43.09.937,face trait task,2021.2.3,MacIntel,60.24096386,120217,,,,,,,
,,,,,,2.988619792,6.694,space,1.2117,0,36,36,42,1,43,image/43.jpg,0,0,,R_1lh2G802tSwgxMU,2,2024-04-19_15h43.09.937,face trait task,2021.2.3,MacIntel,60.24096386,120217,,,,,,,
,,,,,,3.044244792,1.4595,space,0.5113,0,37,37,23,1,24,image/24.jpg,0,0,,R_1lh2G802tSwgxMU,2,2024-04-19_15h43.09.937,face trait task,2021.2.3,MacIntel,60.24096386,120217,,,,,,,
,,,,,,3.05921875,2.3142,space,0.6344,0,38,38,13,1,14,image/14.jpg,0,0,,R_1lh2G802tSwgxMU,2,2024-04-19_15h43.09.937,face trait task,2021.2.3,MacIntel,60.24096386,120217,,,,,,,
,,,,,,3.096328125,3.2376,space,1.2671,0,39,39,32,1,33,image/33.jpg,0,0,,R_1lh2G802tSwgxMU,2,2024-04-19_15h43.09.937,face trait task,2021.2.3,MacIntel,60.24096386,120217,,,,,,,
,,,,,,2.91796875,5.7718,space,0.3937,0,40,40,24,1,25,image/25.jpg,0,0,,R_1lh2G802tSwgxMU,2,2024-04-19_15h43.09.937,face trait task,2021.2.3,MacIntel,60.24096386,120217,,,,,,,
,,,,,,3.177708333,2.2465,space,0.3007,0,41,41,12,1,13,image/13.jpg,0,0,,R_1lh2G802tSwgxMU,2,2024-04-19_15h43.09.937,face trait task,2021.2.3,MacIntel,60.24096386,120217,,,,,,,
,,,,,,3.316744792,8.9781,space,0.3712,0,42,42,44,1,45,image/45.jpg,0,0,,R_1lh2G802tSwgxMU,2,2024-04-19_15h43.09.937,face trait task,2021.2.3,MacIntel,60.24096386,120217,,,,,,,
,,,,,,2.904036458,3.7357,space,1.7707,0,43,43,18,1,19,image/19.jpg,0,0,,R_1lh2G802tSwgxMU,2,2024-04-19_15h43.09.937,face trait task,2021.2.3,MacIntel,60.24096386,120217,,,,,,,
,,,,,,2.7996875,3.2637,space,2.5192,0,44,44,31,1,32,image/32.jpg,0,0,,R_1lh2G802tSwgxMU,2,2024-04-19_15h43.09.937,face trait task,2021.2.3,MacIntel,60.24096386,120217,,,,,,,
,,,,,,2.822916667,2.4317,space,2.6013,0,45,45,49,1,50,image/50.jpg,0,0,,R_1lh2G802tSwgxMU,2,2024-04-19_15h43.09.937,face trait task,2021.2.3,MacIntel,60.24096386,120217,,,,,,,
,,,,,,2.983984375,3.9134,space,0.3126,0,46,46,45,1,46,image/46.jpg,0,0,,R_1lh2G802tSwgxMU,2,2024-04-19_15h43.09.937,face trait task,2021.2.3,MacIntel,60.24096386,120217,,,,,,,
,,,,,,3.001875,1.7538,space,0.287,0,47,47,17,1,18,image/18.jpg,0,0,,R_1lh2G802tSwgxMU,2,2024-04-19_15h43.09.937,face trait task,2021.2.3,MacIntel,60.24096386,120217,,,,,,,
,,,,,,3.081015625,2.7113,space,0.8019,0,48,48,47,1,48,image/48.jpg,0,0,,R_1lh2G802tSwgxMU,2,2024-04-19_15h43.09.937,face trait task,2021.2.3,MacIntel,60.24096386,120217,,,,,,,
,,,,,,3.378151042,1.6971,space,0.3351,0,49,49,20,1,21,image/21.jpg,0,0,,R_1lh2G802tSwgxMU,2,2024-04-19_15h43.09.937,face trait task,2021.2.3,MacIntel,60.24096386,120217,,,,,,,
,,,,,,3.272317708,1.6195,space,0.4665,0,50,50,0,1,1,image/1.jpg,0,0,,R_1lh2G802tSwgxMU,2,2024-04-19_15h43.09.937,face trait task,2021.2.3,MacIntel,60.24096386,120217,,,,,,,
,,,,,,1.99578125,3.0972,space,0.8672,0,51,51,52,1,60,image/60.jpg,1,2,Please drag the slider to around 2 to indicate that you are paying attention,R_1lh2G802tSwgxMU,2,2024-04-19_15h43.09.937,face trait task,2021.2.3,MacIntel,60.24096386,120217,,,,,,,
,,,,,,1.992604167,2.5179,space,0.5014,0,52,52,50,1,56,image/56.jpg,1,2,Please drag the slider to around 2 to indicate that you are paying attention,R_1lh2G802tSwgxMU,2,2024-04-19_15h43.09.937,face trait task,2021.2.3,MacIntel,60.24096386,120217,,,,,,,
,,,,,,,,,,,,,,,,,,,,R_1lh2G802tSwgxMU,2,2024-04-19_15h43.09.937,face trait task,2021.2.3,MacIntel,60.24096386,120217,0,3,3,3,1,3,friendly.png
