chooserow,ParID,pre_instru_resp_2.keys,pre_instru_resp_2.rt,pre_instru_resp_3.keys,pre_instru_resp_3.rt,pre_instru_resp_9.keys,pre_instru_resp_9.rt,pre_instru_resp_8.keys,pre_instru_resp_8.rt,pre_instru_resp_4.keys,pre_instru_resp_4.rt,pre_instru_resp_5.keys,pre_instru_resp_5.rt,pre_instru_resp_6.keys,pre_instru_resp_6.rt,key_resp_3.keys,key_resp_3.rt,key_resp_4.keys,key_resp_4.rt,key_resp_5.keys,key_resp_5.rt,key_resp_6.keys,key_resp_6.rt,key_resp_7.keys,key_resp_7.rt,trials_2.thisRepN,trials_2.thisTrialN,trials_2.thisN,trials_2.thisIndex,trials_2.ran,participant,session,date,expName,psychopyVersion,OS,frameRate,SONAid,pre_instru_resp.keys,pre_instru_resp.rt,clicked,judge_2.x,judge_2.y,judge_2.leftButton,judge_2.midButton,judge_2.rightButton,trials.thisRepN,trials.thisTrialN,trials.thisN,trials.thisIndex,trials.ran,prac_answer,prac_dot_sti,dotlefttext,dotrighttext,judge_2.clicked_name,prac_acc,judge.x,judge.y,judge.leftButton,judge.midButton,judge.rightButton,judge.clicked_name,clicked_guilt,slider_guilt.response,slider_guilt.rt,key_guilt.keys,share_slider.response,share_slider.rt,key_share.keys,slider_apology.response,slider_apology.rt,key_apology.keys,key_apology.rt,slider_hide.response,slider_hide.rt,slider_forgiveness.response,slider_forgiveness.rt,key_forgiveness.keys,slider_mad.response,slider_mad.rt,trialseq.thisRepN,trialseq.thisTrialN,trialseq.thisN,trialseq.thisIndex,trialseq.ran,type_trial,stipic,DV,picture,answer,number,key_share.rt,key_guilt.rt,key_forgiveness.rt,incompleteTrials,trials_redo.thisRepN,trials_redo.thisTrialN,trials_redo.thisN,trials_redo.thisIndex,trials_redo.ran
"[75,198,174,27,160,70,57,95,68,102,88,155,119,118,74,45,185,145,83,150,134,129,138,6,55,108,197,100,191,180,66,12,93,175,53,143,96,177,126,158,125,164]",R_1lh2G802tSwgxMU,space,10.1464,space,0.9869,space,0.502,space,0.3553,space,0.8175,space,12.176,space,6.3539,3,4.9181,3,12.9771,3,16.4394,2,13.9539,3,20.3467,0,0,0,0,1,R_1lh2G802tSwgxMU,1,2024-04-19_15h21.29.995,interaction task,2021.2.3,MacIntel,59.88023952,120217,,,,,,,,,,,,,,,,,,,,,,,,,,,,,,,,,,,,,,,,,,,,,,,,,,,,,,,,,,,,,,,
,,,,space,14.297,space,29.0961,space,42.4296,space,45.792,space,14.6506,space,5.136,3,6.7308,1,7.5637,3,11.0454,2,15.495,1,3.7928,1,0,1,0,1,R_1lh2G802tSwgxMU,1,2024-04-19_15h21.29.995,interaction task,2021.2.3,MacIntel,59.88023952,120217,,,,,,,,,,,,,,,,,,,,,,,,,,,,,,,,,,,,,,,,,,,,,,,,,,,,,,,,,,,,,,,
,,,,space,7.4558,space,0.4636,space,1.2103,space,1.8271,space,1.665,space,0.4695,3,3.0162,1,8.4833,3,5.1117,2,2.9778,1,15.6653,2,0,2,0,1,R_1lh2G802tSwgxMU,1,2024-04-19_15h21.29.995,interaction task,2021.2.3,MacIntel,59.88023952,120217,,,,,,,,,,,,,,,,,,,,,,,,,,,,,,,,,,,,,,,,,,,,,,,,,,,,,,,,,,,,,,,
,,,,space,1.2461,space,0.4827,space,0.5328,space,0.8602,space,1.0329,space,0.6848,3,1.7782,1,1.4326,3,2.015,2,2.8285,3,4.0214,3,0,3,0,1,R_1lh2G802tSwgxMU,1,2024-04-19_15h21.29.995,interaction task,2021.2.3,MacIntel,59.88023952,120217,,,,,,,,,,,,,,,,,,,,,,,,,,,,,,,,,,,,,,,,,,,,,,,,,,,,,,,,,,,,,,,
,,,,space,0.8047,space,0.3825,space,0.3497,space,0.7217,space,2.8667,space,1.6669,3,1.3336,1,2.5143,3,1.4008,2,1.8656,2,4.3623,4,0,4,0,1,R_1lh2G802tSwgxMU,1,2024-04-19_15h21.29.995,interaction task,2021.2.3,MacIntel,59.88023952,120217,,,,,,,,,,,,,,,,,,,,,,,,,,,,,,,,,,,,,,,,,,,,,,,,,,,,,,,,,,,,,,,
,,,,,,,,,,,,,,,,,,,,,,,,,,,,,,,R_1lh2G802tSwgxMU,1,2024-04-19_15h21.29.995,interaction task,2021.2.3,MacIntel,59.88023952,120217,space,1.6028,[],0.091536458,0.266206597,0,0,0,0,0,0,1,1,LeftButton_2,9dot1.png,Smaller,Greater,,,,,,,,,,,,,,,,,,,,,,,,,,,,,,,,,,,,,,,,,,,,,,
,,,,,,,,,,,,,,,,,,,,,,,,,,,,,,,R_1lh2G802tSwgxMU,1,2024-04-19_15h21.29.995,interaction task,2021.2.3,MacIntel,59.88023952,120217,,,"[""LeftButton_2""]",-0.243863932,-0.324904514,1,0,0,0,1,1,0,1,RightButton_2,11dot1.png,Smaller,Greater,LeftButton_2,,,,,,,,,,,,,,,,,,,,,,,,,,,,,,,,,,,,,,,,,,,,,
,,,,,,,,,,,,,,,,,,,,,,,,,,,,,,,R_1lh2G802tSwgxMU,1,2024-04-19_15h21.29.995,interaction task,2021.2.3,MacIntel,59.88023952,120217,,,"[""LeftButton_2""]",-0.268207465,-0.350112847,1,0,0,0,2,2,2,1,LeftButton_2,11dot1.png,Greater,Smaller,LeftButton_2,,,,,,,,,,,,,,,,,,,,,,,,,,,,,,,,,,,,,,,,,,,,,
,,,,,,,,,,,,,,,,,,,,,,,,,,,,,,,R_1lh2G802tSwgxMU,1,2024-04-19_15h21.29.995,interaction task,2021.2.3,MacIntel,59.88023952,120217,,,,,,,,,,,,,,,,Greater,Smaller,,0.2,0.324007161,-0.537994792,1,0,0,RightButton,"[""RightButton""]",,,,,,,49,10.5228,space,8.8335,68,13.3007,,,,,,0,0,0,0,1,1,both_wrong.png,2,RandomDot10.png,No answer,20,,,,,,,,,
,,,,,,,,,,,,,,,,,,,,,,,,,,,,,,,R_1lh2G802tSwgxMU,1,2024-04-19_15h21.29.995,interaction task,2021.2.3,MacIntel,59.88023952,120217,,,,,,,,,,,,,,,,Greater,Smaller,,,0.318207465,-0.529192708,1,0,0,RightButton,"[""RightButton""]",,,,,,,,,,,,,,,,,,0,1,1,1,1,5,both_right.png,10,RandomDot42.png,RightButton,20,,,,,,,,,
,,,,,,,,,,,,,,,,,,,,,,,,,,,,,,,R_1lh2G802tSwgxMU,1,2024-04-19_15h21.29.995,interaction task,2021.2.3,MacIntel,59.88023952,120217,,,,,,,,,,,,,,,,Smaller,Greater,,,-0.22687717,-0.500451389,1,0,0,LeftButton,"[""LeftButton""]",,,,,,,68,3.9751,space,1.5074,72,5.3201,,,,,,0,2,2,2,1,3,only_sub_wrong.png,2,RandomDot15.png,No answer,21,,,,,,,,,
,,,,,,,,,,,,,,,,,,,,,,,,,,,,,,,R_1lh2G802tSwgxMU,1,2024-04-19_15h21.29.995,interaction task,2021.2.3,MacIntel,59.88023952,120217,,,,,,,,,,,,,,,,Greater,Smaller,,,-0.274902344,-0.518472222,1,0,0,LeftButton,"[""LeftButton""]",,,,,,,,,,,,,,,,,,0,3,3,3,1,0,both_right.png,2,RandomDot28.png,No answer,21,,,,,,,,,
,,,,,,,,,,,,,,,,,,,,,,,,,,,,,,,R_1lh2G802tSwgxMU,1,2024-04-19_15h21.29.995,interaction task,2021.2.3,MacIntel,59.88023952,120217,,,,,,,,,,,,,,,,Greater,Smaller,,,-0.242768012,-0.525685764,1,0,0,LeftButton,"[""LeftButton""]",,,,2.9972602,1.3335,space,,,,,,,,,,,,0,4,4,4,1,3,only_sub_wrong.png,1,RandomDot22.png,No answer,19,1.3655,,,,,,,,
,,,,,,,,,,,,,,,,,,,,,,,,,,,,,,,R_1lh2G802tSwgxMU,1,2024-04-19_15h21.29.995,interaction task,2021.2.3,MacIntel,59.88023952,120217,,,,,,,,,,,,,,,,Smaller,Greater,,,0.329844835,-0.507690972,1,0,0,RightButton,"[""RightButton""]",,,,2.98819987,1.2696,space,,,,,,,,,,,,0,5,5,5,1,1,both_wrong.png,1,RandomDot29.png,No answer,19,1.4629,,,,,,,,
,,,,,,,,,,,,,,,,,,,,,,,,,,,,,,,R_1lh2G802tSwgxMU,1,2024-04-19_15h21.29.995,interaction task,2021.2.3,MacIntel,59.88023952,120217,,,,,,,,,,,,,,,,Smaller,Greater,,,0.21117079,-0.54296875,1,0,0,RightButton,"[""RightButton""]",60,2.9424,space,,,,,,,,,,,,,,,0,6,6,6,1,1,both_wrong.png,0,RandomDot22.png,No answer,21,,2.4619,,,,,,,
,,,,,,,,,,,,,,,,,,,,,,,,,,,,,,,R_1lh2G802tSwgxMU,1,2024-04-19_15h21.29.995,interaction task,2021.2.3,MacIntel,59.88023952,120217,,,,,,,,,,,,,,,,Smaller,Greater,,,-0.22515191,-0.521614583,1,0,0,LeftButton,"[""LeftButton""]",,,,,,,,,,,,,49.48925014,2.2202,space,51.95148096,3.2297,0,7,7,7,1,1,both_wrong.png,3,RandomDot12.png,No answer,19,,,0.8165,,,,,,
,,,,,,,,,,,,,,,,,,,,,,,,,,,,,,,R_1lh2G802tSwgxMU,1,2024-04-19_15h21.29.995,interaction task,2021.2.3,MacIntel,59.88023952,120217,,,,,,,,,,,,,,,,Smaller,Greater,,,0.259450955,-0.513203125,1,0,0,RightButton,"[""RightButton""]",,,,3.035373264,1.8799,space,,,,,,,,,,,,0,8,8,8,1,1,both_wrong.png,1,RandomDot8.png,No answer,21,0.9462,,,,,,,,
,,,,,,,,,,,,,,,,,,,,,,,,,,,,,,,R_1lh2G802tSwgxMU,1,2024-04-19_15h21.29.995,interaction task,2021.2.3,MacIntel,59.88023952,120217,,,,,,,,,,,,,,,,Smaller,Greater,,,-0.3175727,-0.491215278,1,0,0,LeftButton,"[""LeftButton""]",61,2.205,space,,,,,,,,,,,,,,,0,9,9,9,1,2,only_sub_right.png,0,RandomDot16.png,No answer,21,,1.1172,,,,,,,
,,,,,,,,,,,,,,,,,,,,,,,,,,,,,,,R_1lh2G802tSwgxMU,1,2024-04-19_15h21.29.995,interaction task,2021.2.3,MacIntel,59.88023952,120217,,,,,,,,,,,,,,,,Greater,Smaller,,,-0.361208767,-0.541892361,1,0,0,LeftButton,"[""LeftButton""]",,,,,,,,,,,,,69.04077669,1.8648,space,69.90828423,2.683,0,10,10,10,1,1,both_wrong.png,3,RandomDot30.png,No answer,20,,,0.9017,,,,,,
,,,,,,,,,,,,,,,,,,,,,,,,,,,,,,,R_1lh2G802tSwgxMU,1,2024-04-19_15h21.29.995,interaction task,2021.2.3,MacIntel,59.88023952,120217,,,,,,,,,,,,,,,,Smaller,Greater,,,0.267013889,-0.537421875,1,0,0,RightButton,"[""RightButton""]",68,1.0553,space,,,,,,,,,,,,,,,0,11,11,11,1,3,only_sub_wrong.png,0,RandomDot2.png,No answer,20,,1.0523,,,,,,,
,,,,,,,,,,,,,,,,,,,,,,,,,,,,,,,R_1lh2G802tSwgxMU,1,2024-04-19_15h21.29.995,interaction task,2021.2.3,MacIntel,59.88023952,120217,,,,,,,,,,,,,,,,Smaller,Greater,,,-0.333170573,-0.490164931,1,0,0,LeftButton,"[""LeftButton""]",,,,3.046115451,1.439,space,,,,,,,,,,,,0,12,12,12,1,2,only_sub_right.png,1,RandomDot38.png,No answer,19,0.8939,,,,,,,,
,,,,,,,,,,,,,,,,,,,,,,,,,,,,,,,R_1lh2G802tSwgxMU,1,2024-04-19_15h21.29.995,interaction task,2021.2.3,MacIntel,59.88023952,120217,,,,,,,,,,,,,,,,Smaller,Greater,,,0.262565104,-0.527560764,1,0,0,RightButton,"[""RightButton""]",,,,3.993489583,3.5551,space,,,,,,,,,,,,0,13,13,13,1,2,only_sub_right.png,1,RandomDot34.png,No answer,19,0.3453,,,,,,,,
,,,,,,,,,,,,,,,,,,,,,,,,,,,,,,,R_1lh2G802tSwgxMU,1,2024-04-19_15h21.29.995,interaction task,2021.2.3,MacIntel,59.88023952,120217,,,,,,,,,,,,,,,,Greater,Smaller,,,0.255815972,-0.52296875,1,0,0,RightButton,"[""RightButton""]",,,,,,,68,2.7851,space,11.4674,67,1.4334,,,,,,0,14,14,14,1,1,both_wrong.png,2,RandomDot16.png,No answer,20,,,,,,,,,
,,,,,,,,,,,,,,,,,,,,,,,,,,,,,,,R_1lh2G802tSwgxMU,1,2024-04-19_15h21.29.995,interaction task,2021.2.3,MacIntel,59.88023952,120217,,,,,,,,,,,,,,,,Smaller,Greater,,,0.049810113,-0.356328125,0,0,0,,[],,,,,,,,,,,,,,,,,,0,15,15,15,1,0,both_right.png,3,RandomDot13.png,No answer,20,,,,45,,,,,
,,,,,,,,,,,,,,,,,,,,,,,,,,,,,,,R_1lh2G802tSwgxMU,1,2024-04-19_15h21.29.995,interaction task,2021.2.3,MacIntel,59.88023952,120217,,,,,,,,,,,,,,,,Greater,Smaller,,,-0.240109592,-0.514123264,1,0,0,LeftButton,"[""LeftButton""]",,,,,,,,,,,,,59.66698232,2.6321,space,32.44653567,9.1655,0,16,16,16,1,3,only_sub_wrong.png,3,RandomDot34.png,No answer,20,,,9.3339,,,,,,
,,,,,,,,,,,,,,,,,,,,,,,,,,,,,,,R_1lh2G802tSwgxMU,1,2024-04-19_15h21.29.995,interaction task,2021.2.3,MacIntel,59.88023952,120217,,,,,,,,,,,,,,,,Greater,Smaller,,,-0.243570964,-0.50921875,0,0,0,,[],,,,,,,,,,,,,,,,,,0,17,17,17,1,3,only_sub_wrong.png,0,RandomDot15.png,No answer,20,,,,145,,,,,
,,,,,,,,,,,,,,,,,,,,,,,,,,,,,,,R_1lh2G802tSwgxMU,1,2024-04-19_15h21.29.995,interaction task,2021.2.3,MacIntel,59.88023952,120217,,,,,,,,,,,,,,,,Smaller,Greater,,,0.243663194,-0.535755208,1,0,0,RightButton,"[""RightButton""]",,,,,,,46,2.003,space,1.5846,52,1.1608,,,,,,0,18,18,18,1,1,both_wrong.png,2,RandomDot8.png,No answer,20,,,,,,,,,
,,,,,,,,,,,,,,,,,,,,,,,,,,,,,,,R_1lh2G802tSwgxMU,1,2024-04-19_15h21.29.995,interaction task,2021.2.3,MacIntel,59.88023952,120217,,,,,,,,,,,,,,,,Smaller,Greater,,,-0.228803168,-0.531397569,1,0,0,LeftButton,"[""LeftButton""]",31,2.7718,space,,,,,,,,,,,,,,,0,19,19,19,1,3,only_sub_wrong.png,0,RandomDot16.png,No answer,21,,1.7008,,,,,,,
,,,,,,,,,,,,,,,,,,,,,,,,,,,,,,,R_1lh2G802tSwgxMU,1,2024-04-19_15h21.29.995,interaction task,2021.2.3,MacIntel,59.88023952,120217,,,,,,,,,,,,,,,,Greater,Smaller,,,0.307269965,-0.515095486,1,0,0,RightButton,"[""RightButton""]",,,,,,,,,,,,,56.99540983,2.0384,space,58.54026375,3.1239,0,20,20,20,1,2,only_sub_right.png,3,RandomDot22.png,No answer,20,,,0.6343,,,,,,
,,,,,,,,,,,,,,,,,,,,,,,,,,,,,,,R_1lh2G802tSwgxMU,1,2024-04-19_15h21.29.995,interaction task,2021.2.3,MacIntel,59.88023952,120217,,,,,,,,,,,,,,,,Smaller,Greater,,,-0.211740451,-0.507369792,1,0,0,LeftButton,"[""LeftButton""]",,,,,,,69,10.9495,space,0.4112,48,11.8892,,,,,,0,21,21,21,1,2,only_sub_right.png,2,RandomDot37.png,No answer,19,,,,,,,,,
,,,,,,,,,,,,,,,,,,,,,,,,,,,,,,,R_1lh2G802tSwgxMU,1,2024-04-19_15h21.29.995,interaction task,2021.2.3,MacIntel,59.88023952,120217,,,,,,,,,,,,,,,,Smaller,Greater,,,0.287505425,-0.534626736,1,0,0,RightButton,"[""RightButton""]",,,,,,,,,,,,,56.44465488,1.9718,space,62.41472889,1.0992,0,22,22,22,1,2,only_sub_right.png,3,RandomDot25.png,No answer,21,,,0.6737,,,,,,
,,,,,,,,,,,,,,,,,,,,,,,,,,,,,,,R_1lh2G802tSwgxMU,1,2024-04-19_15h21.29.995,interaction task,2021.2.3,MacIntel,59.88023952,120217,,,,,,,,,,,,,,,,Smaller,Greater,,,0.25475803,-0.493793403,1,0,0,RightButton,"[""RightButton""]",,,,,,,,,,,,,,,,,,0,23,23,23,1,0,both_right.png,0,RandomDot22.png,No answer,19,,,,,,,,,
,,,,,,,,,,,,,,,,,,,,,,,,,,,,,,,R_1lh2G802tSwgxMU,1,2024-04-19_15h21.29.995,interaction task,2021.2.3,MacIntel,59.88023952,120217,,,,,,,,,,,,,,,,Smaller,Greater,,,-0.27913954,-0.489227431,1,0,0,LeftButton,"[""LeftButton""]",48,1.5561,space,,,,,,,,,,,,,,,0,24,24,24,1,1,both_wrong.png,0,RandomDot28.png,No answer,19,,1.4676,,,,,,,
,,,,,,,,,,,,,,,,,,,,,,,,,,,,,,,R_1lh2G802tSwgxMU,1,2024-04-19_15h21.29.995,interaction task,2021.2.3,MacIntel,59.88023952,120217,,,,,,,,,,,,,,,,Greater,Smaller,,,0.059548611,-0.465494792,0,0,0,,[],,,,,,,,,,,,,,,,,,0,25,25,25,1,2,only_sub_right.png,1,RandomDot3.png,No answer,20,,,,108,,,,,
,,,,,,,,,,,,,,,,,,,,,,,,,,,,,,,R_1lh2G802tSwgxMU,1,2024-04-19_15h21.29.995,interaction task,2021.2.3,MacIntel,59.88023952,120217,,,,,,,,,,,,,,,,Smaller,Greater,,,0.225661892,-0.497977431,1,0,0,RightButton,"[""RightButton""]",,,,,,,,,,,,,,,,,,0,26,26,26,1,4,both_right.png,10,RandomDot41.png,RightButton,5,,,,,,,,,
,,,,,,,,,,,,,,,,,,,,,,,,,,,,,,,R_1lh2G802tSwgxMU,1,2024-04-19_15h21.29.995,interaction task,2021.2.3,MacIntel,59.88023952,120217,,,,,,,,,,,,,,,,Greater,Smaller,,,-0.257074653,-0.537604167,1,0,0,LeftButton,"[""LeftButton""]",60,2.4124,space,,,,,,,,,,,,,,,0,27,27,27,1,2,only_sub_right.png,0,RandomDot33.png,No answer,21,,1.0666,,,,,,,
,,,,,,,,,,,,,,,,,,,,,,,,,,,,,,,R_1lh2G802tSwgxMU,1,2024-04-19_15h21.29.995,interaction task,2021.2.3,MacIntel,59.88023952,120217,,,,,,,,,,,,,,,,Smaller,Greater,,,-0.033311632,-0.708567708,0,0,0,,[],,,,,,,,,,,,,,,,,,0,28,28,28,1,3,only_sub_wrong.png,3,RandomDot36.png,No answer,21,,,,191,,,,,
,,,,,,,,,,,,,,,,,,,,,,,,,,,,,,,R_1lh2G802tSwgxMU,1,2024-04-19_15h21.29.995,interaction task,2021.2.3,MacIntel,59.88023952,120217,,,,,,,,,,,,,,,,Greater,Smaller,,,-0.260194227,-0.491918403,1,0,0,LeftButton,"[""LeftButton""]",,,,,,,,,,,,,63.8856008,3.6902,space,60.19800873,2.9137,0,29,29,29,1,3,only_sub_wrong.png,3,RandomDot20.png,No answer,19,,,0.9394,,,,,,
,,,,,,,,,,,,,,,,,,,,,,,,,,,,,,,R_1lh2G802tSwgxMU,1,2024-04-19_15h21.29.995,interaction task,2021.2.3,MacIntel,59.88023952,120217,,,,,,,,,,,,,,,,Smaller,Greater,,,-0.237749566,-0.524131944,1,0,0,LeftButton,"[""LeftButton""]",,,,3.068847656,2.36,space,,,,,,,,,,,,0,30,30,30,1,1,both_wrong.png,1,RandomDot10.png,No answer,19,1.2334,,,,,,,,
,,,,,,,,,,,,,,,,,,,,,,,,,,,,,,,R_1lh2G802tSwgxMU,1,2024-04-19_15h21.29.995,interaction task,2021.2.3,MacIntel,59.88023952,120217,,,,,,,,,,,,,,,,Greater,Smaller,,,0.253553602,-0.541015625,1,0,0,RightButton,"[""RightButton""]",,,,,,,,,,,,,,,,,,0,31,31,31,1,0,both_right.png,1,RandomDot30.png,No answer,20,,,,,,,,,
,,,,,,,,,,,,,,,,,,,,,,,,,,,,,,,R_1lh2G802tSwgxMU,1,2024-04-19_15h21.29.995,interaction task,2021.2.3,MacIntel,59.88023952,120217,,,,,,,,,,,,,,,,Smaller,Greater,,,-0.235427517,-0.53109375,1,0,0,LeftButton,"[""LeftButton""]",,,,,,,,,,,,,55.2477904,6.825,space,51.3081115,5.9106,0,32,32,32,1,1,both_wrong.png,3,RandomDot12.png,No answer,21,,,1.2165,,,,,,
,,,,,,,,,,,,,,,,,,,,,,,,,,,,,,,R_1lh2G802tSwgxMU,1,2024-04-19_15h21.29.995,interaction task,2021.2.3,MacIntel,59.88023952,120217,,,,,,,,,,,,,,,,Smaller,Greater,,,-0.283789063,-0.523706597,1,0,0,LeftButton,"[""LeftButton""]",,,,,,,49,1.8065,space,0.5178,56,2.9415,,,,,,0,33,33,33,1,3,only_sub_wrong.png,2,RandomDot17.png,No answer,19,,,,,,,,,
,,,,,,,,,,,,,,,,,,,,,,,,,,,,,,,R_1lh2G802tSwgxMU,1,2024-04-19_15h21.29.995,interaction task,2021.2.3,MacIntel,59.88023952,120217,,,,,,,,,,,,,,,,Greater,Smaller,,,0.241270616,-0.539279514,1,0,0,RightButton,"[""RightButton""]",59,13.0522,space,,,,,,,,,,,,,,,0,34,34,34,1,1,both_wrong.png,0,RandomDot32.png,No answer,19,,1.4523,,,,,,,
,,,,,,,,,,,,,,,,,,,,,,,,,,,,,,,R_1lh2G802tSwgxMU,1,2024-04-19_15h21.29.995,interaction task,2021.2.3,MacIntel,59.88023952,120217,,,,,,,,,,,,,,,,Smaller,Greater,,,-0.292182075,-0.521675347,1,0,0,LeftButton,"[""LeftButton""]",,,,,,,,,,,,,63.82257909,23.0758,space,66.54402094,24.1091,0,35,35,35,1,2,only_sub_right.png,3,RandomDot31.png,No answer,19,,,0.8515,,,,,,
,,,,,,,,,,,,,,,,,,,,,,,,,,,,,,,R_1lh2G802tSwgxMU,1,2024-04-19_15h21.29.995,interaction task,2021.2.3,MacIntel,59.88023952,120217,,,,,,,,,,,,,,,,Greater,Smaller,,,0.304985894,-0.524939236,1,0,0,RightButton,"[""RightButton""]",61,6.5523,space,,,,,,,,,,,,,,,0,36,36,36,1,2,only_sub_right.png,0,RandomDot26.png,No answer,19,,0.7675,,,,,,,
,,,,,,,,,,,,,,,,,,,,,,,,,,,,,,,R_1lh2G802tSwgxMU,1,2024-04-19_15h21.29.995,interaction task,2021.2.3,MacIntel,59.88023952,120217,,,,,,,,,,,,,,,,Smaller,Greater,,,0.247753906,-0.522282986,1,0,0,RightButton,"[""RightButton""]",,,,,,,68,3.0596,space,1.4014,60,1.212,,,,,,0,37,37,37,1,3,only_sub_wrong.png,2,RandomDot31.png,No answer,19,,,,,,,,,
,,,,,,,,,,,,,,,,,,,,,,,,,,,,,,,R_1lh2G802tSwgxMU,1,2024-04-19_15h21.29.995,interaction task,2021.2.3,MacIntel,59.88023952,120217,,,,,,,,,,,,,,,,Smaller,Greater,,,-0.245713976,-0.4834375,1,0,0,LeftButton,"[""LeftButton""]",,,,,,,60,13.1032,space,1.4529,54,13.9434,,,,,,0,38,38,38,1,2,only_sub_right.png,2,RandomDot34.png,No answer,20,,,,,,,,,
,,,,,,,,,,,,,,,,,,,,,,,,,,,,,,,R_1lh2G802tSwgxMU,1,2024-04-19_15h21.29.995,interaction task,2021.2.3,MacIntel,59.88023952,120217,,,,,,,,,,,,,,,,Greater,Smaller,,,-0.268657769,-0.535026042,1,0,0,LeftButton,"[""LeftButton""]",,,,4.00764974,5.645,space,,,,,,,,,,,,0,39,39,39,1,3,only_sub_wrong.png,1,RandomDot1.png,No answer,19,0.6341,,,,,,,,
,,,,,,,,,,,,,,,,,,,,,,,,,,,,,,,R_1lh2G802tSwgxMU,1,2024-04-19_15h21.29.995,interaction task,2021.2.3,MacIntel,59.88023952,120217,,,,,,,,,,,,,,,,Greater,Smaller,,,0.233930122,-0.521467014,1,0,0,RightButton,"[""RightButton""]",,,,,,,54,2.1899,space,3.3546,60,1.2017,,,,,,0,40,40,40,1,2,only_sub_right.png,2,RandomDot36.png,No answer,21,,,,,,,,,
,,,,,,,,,,,,,,,,,,,,,,,,,,,,,,,R_1lh2G802tSwgxMU,1,2024-04-19_15h21.29.995,interaction task,2021.2.3,MacIntel,59.88023952,120217,,,,,,,,,,,,,,,,Smaller,Greater,,,-0.006667752,-0.58640625,0,0,0,,[],,,,,,,,,,,,,,,,,,0,41,41,41,1,3,only_sub_wrong.png,1,RandomDot40.png,No answer,19,,,,164,,,,,
,,,,,,,,,,,,,,,,,,,,,,,,,,,,,,,R_1lh2G802tSwgxMU,1,2024-04-19_15h21.29.995,interaction task,2021.2.3,MacIntel,59.88023952,120217,,,,,,,,,,,,,,,,Smaller,Greater,,,0.460112847,0.212890625,0,0,0,,[],,,,,,,,,,,,,,,,,,,,,,,0,both_right.png,3,RandomDot13.png,No answer,20,,,,164,0,0,0,0,1
,,,,,,,,,,,,,,,,,,,,,,,,,,,,,,,R_1lh2G802tSwgxMU,1,2024-04-19_15h21.29.995,interaction task,2021.2.3,MacIntel,59.88023952,120217,,,,,,,,,,,,,,,,Smaller,Greater,,,0.27781033,-0.506380208,1,0,0,RightButton,"[""RightButton""]",,,,,,,,,,,,,57.17899481,1.6356,space,60.84850238,2.5711,,,,,,3,only_sub_wrong.png,3,RandomDot36.png,No answer,21,,,0.9504,,0,1,1,3,1
,,,,,,,,,,,,,,,,,,,,,,,,,,,,,,,R_1lh2G802tSwgxMU,1,2024-04-19_15h21.29.995,interaction task,2021.2.3,MacIntel,59.88023952,120217,,,,,,,,,,,,,,,,Smaller,Greater,,,0.255886502,-0.530963542,1,0,0,RightButton,"[""RightButton""]",,,,2.977539063,3.063,space,,,,,,,,,,,,,,,,,3,only_sub_wrong.png,1,RandomDot40.png,No answer,19,3.5849,,,,0,2,2,4,1
,,,,,,,,,,,,,,,,,,,,,,,,,,,,,,,R_1lh2G802tSwgxMU,1,2024-04-19_15h21.29.995,interaction task,2021.2.3,MacIntel,59.88023952,120217,,,,,,,,,,,,,,,,Greater,Smaller,,,0.293136936,-0.470833333,1,0,0,RightButton,"[""RightButton""]",69,3.1621,space,,,,,,,,,,,,,,,,,,,,3,only_sub_wrong.png,0,RandomDot15.png,No answer,20,,0.9178,,,0,3,3,1,1
,,,,,,,,,,,,,,,,,,,,,,,,,,,,,,,R_1lh2G802tSwgxMU,1,2024-04-19_15h21.29.995,interaction task,2021.2.3,MacIntel,59.88023952,120217,,,,,,,,,,,,,,,,Greater,Smaller,,,0.254660373,-0.5403125,1,0,0,RightButton,"[""RightButton""]",,,,4.029188368,1.8903,space,,,,,,,,,,,,,,,,,2,only_sub_right.png,1,RandomDot3.png,No answer,20,0.8512,,,,0,4,4,2,1
