chooserow,ParID,pre_instru_resp_2.keys,pre_instru_resp_2.rt,pre_instru_resp_3.keys,pre_instru_resp_3.rt,pre_instru_resp_9.keys,pre_instru_resp_9.rt,pre_instru_resp_8.keys,pre_instru_resp_8.rt,pre_instru_resp_4.keys,pre_instru_resp_4.rt,pre_instru_resp_5.keys,pre_instru_resp_5.rt,pre_instru_resp_6.keys,pre_instru_resp_6.rt,key_resp_3.keys,key_resp_3.rt,key_resp_4.keys,key_resp_4.rt,key_resp_5.keys,key_resp_5.rt,key_resp_6.keys,key_resp_6.rt,key_resp_7.keys,key_resp_7.rt,trials_2.thisRepN,trials_2.thisTrialN,trials_2.thisN,trials_2.thisIndex,trials_2.ran,participant,session,date,expName,psychopyVersion,OS,frameRate,SONAid,pre_instru_resp.keys,pre_instru_resp.rt,clicked,judge_2.x,judge_2.y,judge_2.leftButton,judge_2.midButton,judge_2.rightButton,judge_2.clicked_name,trials.thisRepN,trials.thisTrialN,trials.thisN,trials.thisIndex,trials.ran,prac_answer,prac_dot_sti,dotlefttext,dotrighttext,prac_acc,judge.x,judge.y,judge.leftButton,judge.midButton,judge.rightButton,judge.clicked_name,clicked_guilt,slider_guilt.response,slider_guilt.rt,key_guilt.keys,share_slider.response,share_slider.rt,key_share.keys,slider_apology.response,slider_apology.rt,key_apology.keys,key_apology.rt,slider_hide.response,slider_hide.rt,slider_forgiveness.response,slider_forgiveness.rt,key_forgiveness.keys,slider_mad.response,slider_mad.rt,trialseq.thisRepN,trialseq.thisTrialN,trialseq.thisN,trialseq.thisIndex,trialseq.ran,type_trial,stipic,DV,picture,answer,number,key_guilt.rt,key_share.rt,key_forgiveness.rt
"[169,102,54,114,37,185,154,20,157,104,88,202,187,127,195,173,82,139,138,171,95,50,141,161,60,78,4,76,125,67,31,149,100,116,85,61,147,180,124,158,118,53]",R_1lsKKVQpKnRQfFs,space,1.177,space,1.9724,space,4.0112,space,2.4223,space,1.1298,space,3.577,space,3.0231,3,4.3021,1,4.3736,1,7.2345,2,7.7541,3,3.9046,0,0,0,0,1,R_1lsKKVQpKnRQfFs,1,2024-05-14_13h06.57.565,interaction task,2021.2.3,MacIntel,60.24096386,120644,,,,,,,,,,,,,,,,,,,,,,,,,,,,,,,,,,,,,,,,,,,,,,,,,,,,,,,,,
,,,,space,1.6894,space,6.54,space,0.999,space,1.6163,space,6.7984,space,1.549,3,3.3962,1,31.9779,3,4.4156,3,1.411,3,1.695,1,0,1,0,1,R_1lsKKVQpKnRQfFs,1,2024-05-14_13h06.57.565,interaction task,2021.2.3,MacIntel,60.24096386,120644,,,,,,,,,,,,,,,,,,,,,,,,,,,,,,,,,,,,,,,,,,,,,,,,,,,,,,,,,
,,,,space,0.4398,space,0.7529,space,2.3751,space,2.0317,space,2.4283,space,0.8924,3,0.9705,1,1.2766,2,8.5429,2,2.9816,2,7.1786,2,0,2,0,1,R_1lsKKVQpKnRQfFs,1,2024-05-14_13h06.57.565,interaction task,2021.2.3,MacIntel,60.24096386,120644,,,,,,,,,,,,,,,,,,,,,,,,,,,,,,,,,,,,,,,,,,,,,,,,,,,,,,,,,
,,,,space,0.002,space,0.4504,space,0.9459,space,0.7506,space,1.812,space,0.9827,3,1.3977,1,0.801,3,8.2653,2,8.4316,2,4.9119,3,0,3,0,1,R_1lsKKVQpKnRQfFs,1,2024-05-14_13h06.57.565,interaction task,2021.2.3,MacIntel,60.24096386,120644,,,,,,,,,,,,,,,,,,,,,,,,,,,,,,,,,,,,,,,,,,,,,,,,,,,,,,,,,
,,,,,,,,,,,,,,,,,,,,,,,,,,,,,,,R_1lsKKVQpKnRQfFs,1,2024-05-14_13h06.57.565,interaction task,2021.2.3,MacIntel,60.24096386,120644,space,1.9703,"[""RightButton_2""]",0.273777636,-0.293384851,1,0,0,RightButton_2,0,0,0,1,1,LeftButton_2,9dot1.png,Smaller,Greater,,,,,,,,,,,,,,,,,,,,,,,,,,,,,,,,,,,,,,,
,,,,,,,,,,,,,,,,,,,,,,,,,,,,,,,R_1lsKKVQpKnRQfFs,1,2024-05-14_13h06.57.565,interaction task,2021.2.3,MacIntel,60.24096386,120644,,,"[""RightButton_2""]",0.207684949,-0.308075747,1,0,0,RightButton_2,0,1,1,2,1,RightButton_2,11dot1.png,Smaller,Greater,,,,,,,,,,,,,,,,,,,,,,,,,,,,,,,,,,,,,,,
,,,,,,,,,,,,,,,,,,,,,,,,,,,,,,,R_1lsKKVQpKnRQfFs,1,2024-05-14_13h06.57.565,interaction task,2021.2.3,MacIntel,60.24096386,120644,,,"[""RightButton_2""]",0.265215774,-0.316584579,1,0,0,RightButton_2,0,2,2,0,1,RightButton_2,11dot1.png,Smaller,Greater,,,,,,,,,,,,,,,,,,,,,,,,,,,,,,,,,,,,,,,
,,,,,,,,,,,,,,,,,,,,,,,,,,,,,,,R_1lsKKVQpKnRQfFs,1,2024-05-14_13h06.57.565,interaction task,2021.2.3,MacIntel,60.24096386,120644,,,,,,,,,,,,,,,,,Greater,Smaller,0.4,-0.251615646,-0.532336957,1,0,0,LeftButton,"[""LeftButton""]",,,,,,,10,6.3725,space,0.8854,11,8.5418,,,,,,0,0,0,0,1,3,only_sub_wrong.png,2,RandomDot1.png,No answer,20,,,
,,,,,,,,,,,,,,,,,,,,,,,,,,,,,,,R_1lsKKVQpKnRQfFs,1,2024-05-14_13h06.57.565,interaction task,2021.2.3,MacIntel,60.24096386,120644,,,,,,,,,,,,,,,,,Smaller,Greater,,-0.268734056,-0.496441916,1,0,0,LeftButton,"[""LeftButton""]",10,4.7385,space,,,,,,,,,,,,,,,0,1,1,1,1,2,only_sub_right.png,0,RandomDot16.png,No answer,21,0.8385,,
,,,,,,,,,,,,,,,,,,,,,,,,,,,,,,,R_1lsKKVQpKnRQfFs,1,2024-05-14_13h06.57.565,interaction task,2021.2.3,MacIntel,60.24096386,120644,,,,,,,,,,,,,,,,,Smaller,Greater,,-0.254969175,-0.513552989,1,0,0,LeftButton,"[""LeftButton""]",11,2.9091,space,,,,,,,,,,,,,,,0,2,2,2,1,1,both_wrong.png,0,RandomDot23.png,No answer,20,0.8479,,
,,,,,,,,,,,,,,,,,,,,,,,,,,,,,,,R_1lsKKVQpKnRQfFs,1,2024-05-14_13h06.57.565,interaction task,2021.2.3,MacIntel,60.24096386,120644,,,,,,,,,,,,,,,,,Smaller,Greater,,-0.261697491,-0.509765625,1,0,0,LeftButton,"[""LeftButton""]",,,,1.984561012,6.3894,space,,,,,,,,,,,,0,3,3,3,1,2,only_sub_right.png,1,RandomDot15.png,No answer,19,,1.9971,
,,,,,,,,,,,,,,,,,,,,,,,,,,,,,,,R_1lsKKVQpKnRQfFs,1,2024-05-14_13h06.57.565,interaction task,2021.2.3,MacIntel,60.24096386,120644,,,,,,,,,,,,,,,,,Greater,Smaller,,-0.241018282,-0.521730639,1,0,0,LeftButton,"[""LeftButton""]",,,,,,,,,,,,,,,,,,0,4,4,4,1,0,both_right.png,3,RandomDot27.png,No answer,20,,,
,,,,,,,,,,,,,,,,,,,,,,,,,,,,,,,R_1lsKKVQpKnRQfFs,1,2024-05-14_13h06.57.565,interaction task,2021.2.3,MacIntel,60.24096386,120644,,,,,,,,,,,,,,,,,Greater,Smaller,,-0.272608418,-0.497630774,1,0,0,LeftButton,"[""LeftButton""]",,,,,,,,,,,,,29.32771593,3.4186,space,29.85112606,5.533,0,5,5,5,1,3,only_sub_wrong.png,3,RandomDot34.png,No answer,20,,,0.5137
,,,,,,,,,,,,,,,,,,,,,,,,,,,,,,,R_1lsKKVQpKnRQfFs,1,2024-05-14_13h06.57.565,interaction task,2021.2.3,MacIntel,60.24096386,120644,,,,,,,,,,,,,,,,,Smaller,Greater,,-0.290975765,-0.536285666,1,0,0,LeftButton,"[""LeftButton""]",40,4.3209,space,,,,,,,,,,,,,,,0,6,6,6,1,3,only_sub_wrong.png,0,RandomDot25.png,No answer,21,3.3517,,
,,,,,,,,,,,,,,,,,,,,,,,,,,,,,,,R_1lsKKVQpKnRQfFs,1,2024-05-14_13h06.57.565,interaction task,2021.2.3,MacIntel,60.24096386,120644,,,,,,,,,,,,,,,,,Smaller,Greater,,-0.249569515,-0.516338315,1,0,0,LeftButton,"[""LeftButton""]",,,,,,,,,,,,,,,,,,0,7,7,7,1,0,both_right.png,1,RandomDot3.png,No answer,19,,,
,,,,,,,,,,,,,,,,,,,,,,,,,,,,,,,R_1lsKKVQpKnRQfFs,1,2024-05-14_13h06.57.565,interaction task,2021.2.3,MacIntel,60.24096386,120644,,,,,,,,,,,,,,,,,Greater,Smaller,,0.328098427,-0.487678329,1,0,0,RightButton,"[""RightButton""]",,,,3.044270833,3.6207,space,,,,,,,,,,,,0,8,8,8,1,3,only_sub_wrong.png,1,RandomDot8.png,No answer,21,,0.9523,
,,,,,,,,,,,,,,,,,,,,,,,,,,,,,,,R_1lsKKVQpKnRQfFs,1,2024-05-14_13h06.57.565,interaction task,2021.2.3,MacIntel,60.24096386,120644,,,,,,,,,,,,,,,,,Smaller,Greater,,-0.252620111,-0.522248641,1,0,0,LeftButton,"[""LeftButton""]",10,2.1383,space,,,,,,,,,,,,,,,0,9,9,9,1,2,only_sub_right.png,0,RandomDot29.png,No answer,20,0.6731,,
,,,,,,,,,,,,,,,,,,,,,,,,,,,,,,,R_1lsKKVQpKnRQfFs,1,2024-05-14_13h06.57.565,interaction task,2021.2.3,MacIntel,60.24096386,120644,,,,,,,,,,,,,,,,,Greater,Smaller,,0.255234906,-0.483704144,1,0,0,RightButton,"[""RightButton""]",,,,,,,,,,,,,10.11453824,2.6804,space,10.50427747,4.0641,0,10,10,10,1,1,both_wrong.png,3,RandomDot30.png,No answer,20,,,1.1018
,,,,,,,,,,,,,,,,,,,,,,,,,,,,,,,R_1lsKKVQpKnRQfFs,1,2024-05-14_13h06.57.565,interaction task,2021.2.3,MacIntel,60.24096386,120644,,,,,,,,,,,,,,,,,Smaller,Greater,,-0.260023384,-0.518902853,1,0,0,LeftButton,"[""LeftButton""]",,,,,,,,,,,,,,,,,,0,11,11,11,1,5,both_right.png,10,RandomDot42.png,LeftButton,21,,,
,,,,,,,,,,,,,,,,,,,,,,,,,,,,,,,R_1lsKKVQpKnRQfFs,1,2024-05-14_13h06.57.565,interaction task,2021.2.3,MacIntel,60.24096386,120644,,,,,,,,,,,,,,,,,Smaller,Greater,,-0.291687925,-0.510988451,1,0,0,LeftButton,"[""LeftButton""]",,,,,,,,,,,,,10.34752285,3.9796,space,20.08563526,5.0656,0,12,12,12,1,3,only_sub_wrong.png,3,RandomDot18.png,No answer,21,,,0.5741
,,,,,,,,,,,,,,,,,,,,,,,,,,,,,,,R_1lsKKVQpKnRQfFs,1,2024-05-14_13h06.57.565,interaction task,2021.2.3,MacIntel,60.24096386,120644,,,,,,,,,,,,,,,,,Smaller,Greater,,-0.307615859,-0.538136889,1,0,0,LeftButton,"[""LeftButton""]",,,,,,,2,2.72,space,0.4825,10,4.1933,,,,,,0,13,13,13,1,2,only_sub_right.png,2,RandomDot22.png,No answer,19,,,
,,,,,,,,,,,,,,,,,,,,,,,,,,,,,,,R_1lsKKVQpKnRQfFs,1,2024-05-14_13h06.57.565,interaction task,2021.2.3,MacIntel,60.24096386,120644,,,,,,,,,,,,,,,,,Smaller,Greater,,0.245126488,-0.489045516,1,0,0,RightButton,"[""RightButton""]",,,,,,,,,,,,,,,,,,0,14,14,14,1,4,both_right.png,10,RandomDot41.png,RightButton,5,,,
,,,,,,,,,,,,,,,,,,,,,,,,,,,,,,,R_1lsKKVQpKnRQfFs,1,2024-05-14_13h06.57.565,interaction task,2021.2.3,MacIntel,60.24096386,120644,,,,,,,,,,,,,,,,,Greater,Smaller,,0.239317602,-0.546560802,1,0,0,RightButton,"[""RightButton""]",,,,,,,20,3.4599,space,0.2984,21,4.8176,,,,,,0,15,15,15,1,3,only_sub_wrong.png,2,RandomDot20.png,No answer,19,,,
,,,,,,,,,,,,,,,,,,,,,,,,,,,,,,,R_1lsKKVQpKnRQfFs,1,2024-05-14_13h06.57.565,interaction task,2021.2.3,MacIntel,60.24096386,120644,,,,,,,,,,,,,,,,,Smaller,Greater,,-0.293059099,-0.525704823,1,0,0,LeftButton,"[""LeftButton""]",,,,,,,30,2.6086,space,0.4353,30,3.3625,,,,,,0,16,16,16,1,1,both_wrong.png,2,RandomDot7.png,No answer,21,,,
,,,,,,,,,,,,,,,,,,,,,,,,,,,,,,,R_1lsKKVQpKnRQfFs,1,2024-05-14_13h06.57.565,interaction task,2021.2.3,MacIntel,60.24096386,120644,,,,,,,,,,,,,,,,,Smaller,Greater,,-0.269839498,-0.539716372,1,0,0,LeftButton,"[""LeftButton""]",,,,,,,,,,,,,24.05442606,3.9529,space,24.53381605,4.903,0,17,17,17,1,2,only_sub_right.png,3,RandomDot30.png,No answer,20,,,0.4527
,,,,,,,,,,,,,,,,,,,,,,,,,,,,,,,R_1lsKKVQpKnRQfFs,1,2024-05-14_13h06.57.565,interaction task,2021.2.3,MacIntel,60.24096386,120644,,,,,,,,,,,,,,,,,Smaller,Greater,,-0.296545493,-0.533092731,1,0,0,LeftButton,"[""LeftButton""]",,,,,,,,,,,,,20.21715883,1.6868,space,20.12536075,2.5529,0,18,18,18,1,2,only_sub_right.png,3,RandomDot25.png,No answer,21,,,0.2723
,,,,,,,,,,,,,,,,,,,,,,,,,,,,,,,R_1lsKKVQpKnRQfFs,1,2024-05-14_13h06.57.565,interaction task,2021.2.3,MacIntel,60.24096386,120644,,,,,,,,,,,,,,,,,Greater,Smaller,,0.265646259,-0.465523098,1,0,0,RightButton,"[""RightButton""]",,,,,,,20,2.2574,space,0.4845,20,3.0688,,,,,,0,19,19,19,1,3,only_sub_wrong.png,2,RandomDot23.png,No answer,20,,,
,,,,,,,,,,,,,,,,,,,,,,,,,,,,,,,R_1lsKKVQpKnRQfFs,1,2024-05-14_13h06.57.565,interaction task,2021.2.3,MacIntel,60.24096386,120644,,,,,,,,,,,,,,,,,Smaller,Greater,,-0.280032951,-0.527963655,1,0,0,LeftButton,"[""LeftButton""]",,,,,,,,,,,,,19.93639628,1.3354,space,20.40988112,2.4833,0,20,20,20,1,1,both_wrong.png,3,RandomDot12.png,No answer,19,,,0.7026
,,,,,,,,,,,,,,,,,,,,,,,,,,,,,,,R_1lsKKVQpKnRQfFs,1,2024-05-14_13h06.57.565,interaction task,2021.2.3,MacIntel,60.24096386,120644,,,,,,,,,,,,,,,,,Greater,Smaller,,0.244552509,-0.529517663,1,0,0,RightButton,"[""RightButton""]",39,2.1758,space,,,,,,,,,,,,,,,0,21,21,21,1,1,both_wrong.png,0,RandomDot12.png,No answer,21,0.5342,,
,,,,,,,,,,,,,,,,,,,,,,,,,,,,,,,R_1lsKKVQpKnRQfFs,1,2024-05-14_13h06.57.565,interaction task,2021.2.3,MacIntel,60.24096386,120644,,,,,,,,,,,,,,,,,Smaller,Greater,,-0.304416454,-0.528761889,1,0,0,LeftButton,"[""LeftButton""]",,,,,,,,,,,,,17.4954262,5.2832,space,19.79520975,6.1233,0,22,22,22,1,2,only_sub_right.png,3,RandomDot7.png,No answer,20,,,0.415
,,,,,,,,,,,,,,,,,,,,,,,,,,,,,,,R_1lsKKVQpKnRQfFs,1,2024-05-14_13h06.57.565,interaction task,2021.2.3,MacIntel,60.24096386,120644,,,,,,,,,,,,,,,,,Greater,Smaller,,-0.294775723,-0.457642663,1,0,0,LeftButton,"[""LeftButton""]",,,,2.934683248,2.6385,space,,,,,,,,,,,,0,23,23,23,1,3,only_sub_wrong.png,1,RandomDot36.png,No answer,19,,1.4819,
,,,,,,,,,,,,,,,,,,,,,,,,,,,,,,,R_1lsKKVQpKnRQfFs,1,2024-05-14_13h06.57.565,interaction task,2021.2.3,MacIntel,60.24096386,120644,,,,,,,,,,,,,,,,,Greater,Smaller,,0.25063244,-0.532829484,1,0,0,RightButton,"[""RightButton""]",,,,2.989477041,1.7104,space,,,,,,,,,,,,0,24,24,24,1,1,both_wrong.png,1,RandomDot13.png,No answer,19,,0.606,
,,,,,,,,,,,,,,,,,,,,,,,,,,,,,,,R_1lsKKVQpKnRQfFs,1,2024-05-14_13h06.57.565,interaction task,2021.2.3,MacIntel,60.24096386,120644,,,,,,,,,,,,,,,,,Smaller,Greater,,-0.279049745,-0.531182065,1,0,0,LeftButton,"[""LeftButton""]",,,,,,,50,1.8519,space,2.0051,30,4.4537,,,,,,0,25,25,25,1,1,both_wrong.png,2,RandomDot19.png,No answer,19,,,
,,,,,,,,,,,,,,,,,,,,,,,,,,,,,,,R_1lsKKVQpKnRQfFs,1,2024-05-14_13h06.57.565,interaction task,2021.2.3,MacIntel,60.24096386,120644,,,,,,,,,,,,,,,,,Greater,Smaller,,0.331063988,-0.494013247,1,0,0,RightButton,"[""RightButton""]",,,,,,,,,,,,,,,,,,0,26,26,26,1,0,both_right.png,0,RandomDot20.png,No answer,19,,,
,,,,,,,,,,,,,,,,,,,,,,,,,,,,,,,R_1lsKKVQpKnRQfFs,1,2024-05-14_13h06.57.565,interaction task,2021.2.3,MacIntel,60.24096386,120644,,,,,,,,,,,,,,,,,Greater,Smaller,,0.346125638,-0.466661005,1,0,0,RightButton,"[""RightButton""]",,,,,,,28,1.6148,space,0.4007,30,2.332,,,,,,0,27,27,27,1,1,both_wrong.png,2,RandomDot9.png,No answer,21,,,
,,,,,,,,,,,,,,,,,,,,,,,,,,,,,,,R_1lsKKVQpKnRQfFs,1,2024-05-14_13h06.57.565,interaction task,2021.2.3,MacIntel,60.24096386,120644,,,,,,,,,,,,,,,,,Greater,Smaller,,0.243425808,-0.469132133,1,0,0,RightButton,"[""RightButton""]",,,,,,,38,1.8116,space,0.4852,37,2.6068,,,,,,0,28,28,28,1,2,only_sub_right.png,2,RandomDot36.png,No answer,21,,,
,,,,,,,,,,,,,,,,,,,,,,,,,,,,,,,R_1lsKKVQpKnRQfFs,1,2024-05-14_13h06.57.565,interaction task,2021.2.3,MacIntel,60.24096386,120644,,,,,,,,,,,,,,,,,Smaller,Greater,,-0.286123512,-0.54094769,1,0,0,LeftButton,"[""LeftButton""]",,,,4.987324617,2.2398,space,,,,,,,,,,,,0,29,29,29,1,1,both_wrong.png,1,RandomDot17.png,No answer,20,,0.7682,
,,,,,,,,,,,,,,,,,,,,,,,,,,,,,,,R_1lsKKVQpKnRQfFs,1,2024-05-14_13h06.57.565,interaction task,2021.2.3,MacIntel,60.24096386,120644,,,,,,,,,,,,,,,,,Smaller,Greater,,-0.278709609,-0.536701766,1,0,0,LeftButton,"[""LeftButton""]",,,,,,,,,,,,,,,,,,0,30,30,30,1,0,both_right.png,2,RandomDot2.png,No answer,20,,,
,,,,,,,,,,,,,,,,,,,,,,,,,,,,,,,R_1lsKKVQpKnRQfFs,1,2024-05-14_13h06.57.565,interaction task,2021.2.3,MacIntel,60.24096386,120644,,,,,,,,,,,,,,,,,Greater,Smaller,,0.245753614,-0.514784307,1,0,0,RightButton,"[""RightButton""]",41,1.6548,space,,,,,,,,,,,,,,,0,31,31,31,1,3,only_sub_wrong.png,0,RandomDot24.png,No answer,20,0.3857,,
,,,,,,,,,,,,,,,,,,,,,,,,,,,,,,,R_1lsKKVQpKnRQfFs,1,2024-05-14_13h06.57.565,interaction task,2021.2.3,MacIntel,60.24096386,120644,,,,,,,,,,,,,,,,,Greater,Smaller,,-0.252242772,-0.526188859,1,0,0,LeftButton,"[""LeftButton""]",38,2.9103,space,,,,,,,,,,,,,,,0,32,32,32,1,2,only_sub_right.png,0,RandomDot33.png,No answer,21,1.5849,,
,,,,,,,,,,,,,,,,,,,,,,,,,,,,,,,R_1lsKKVQpKnRQfFs,1,2024-05-14_13h06.57.565,interaction task,2021.2.3,MacIntel,60.24096386,120644,,,,,,,,,,,,,,,,,Smaller,Greater,,-0.236054422,-0.496722147,1,0,0,LeftButton,"[""LeftButton""]",,,,4.017936862,2.2564,space,,,,,,,,,,,,0,33,33,33,1,2,only_sub_right.png,1,RandomDot25.png,No answer,19,,0.4499,
,,,,,,,,,,,,,,,,,,,,,,,,,,,,,,,R_1lsKKVQpKnRQfFs,1,2024-05-14_13h06.57.565,interaction task,2021.2.3,MacIntel,60.24096386,120644,,,,,,,,,,,,,,,,,Greater,Smaller,,0.262701956,-0.492544158,1,0,0,RightButton,"[""RightButton""]",,,,,,,,,,,,,20.10871899,1.8346,space,21.80725194,2.7674,0,34,34,34,1,1,both_wrong.png,3,RandomDot40.png,No answer,21,,,0.2692
,,,,,,,,,,,,,,,,,,,,,,,,,,,,,,,R_1lsKKVQpKnRQfFs,1,2024-05-14_13h06.57.565,interaction task,2021.2.3,MacIntel,60.24096386,120644,,,,,,,,,,,,,,,,,Greater,Smaller,,0.265816327,-0.467994226,1,0,0,RightButton,"[""RightButton""]",,,,2.067203444,5.1398,space,,,,,,,,,,,,0,35,35,35,1,1,both_wrong.png,1,RandomDot23.png,No answer,21,,0.4842,
,,,,,,,,,,,,,,,,,,,,,,,,,,,,,,,R_1lsKKVQpKnRQfFs,1,2024-05-14_13h06.57.565,interaction task,2021.2.3,MacIntel,60.24096386,120644,,,,,,,,,,,,,,,,,Greater,Smaller,,-0.272640306,-0.527539063,1,0,0,LeftButton,"[""LeftButton""]",50,1.3246,space,,,,,,,,,,,,,,,0,36,36,36,1,3,only_sub_wrong.png,0,RandomDot5.png,No answer,20,0.3623,,
,,,,,,,,,,,,,,,,,,,,,,,,,,,,,,,R_1lsKKVQpKnRQfFs,1,2024-05-14_13h06.57.565,interaction task,2021.2.3,MacIntel,60.24096386,120644,,,,,,,,,,,,,,,,,Greater,Smaller,,-0.266390306,-0.531632133,1,0,0,LeftButton,"[""LeftButton""]",,,,,,,,,,,,,20.26386312,1.4098,space,20.64447622,2.1501,0,37,37,37,1,3,only_sub_wrong.png,3,RandomDot20.png,No answer,19,,,0.1675
,,,,,,,,,,,,,,,,,,,,,,,,,,,,,,,R_1lsKKVQpKnRQfFs,1,2024-05-14_13h06.57.565,interaction task,2021.2.3,MacIntel,60.24096386,120644,,,,,,,,,,,,,,,,,Greater,Smaller,,0.281829294,-0.525059443,1,0,0,RightButton,"[""RightButton""]",,,,,,,27,1.2901,space,1.2712,25,1.9809,,,,,,0,38,38,38,1,2,only_sub_right.png,2,RandomDot20.png,No answer,20,,,
,,,,,,,,,,,,,,,,,,,,,,,,,,,,,,,R_1lsKKVQpKnRQfFs,1,2024-05-14_13h06.57.565,interaction task,2021.2.3,MacIntel,60.24096386,120644,,,,,,,,,,,,,,,,,Greater,Smaller,,-0.262329932,-0.515658967,1,0,0,LeftButton,"[""LeftButton""]",,,,1.968643707,5.4841,space,,,,,,,,,,,,0,39,39,39,1,3,only_sub_wrong.png,1,RandomDot1.png,No answer,19,,4.1983,
,,,,,,,,,,,,,,,,,,,,,,,,,,,,,,,R_1lsKKVQpKnRQfFs,1,2024-05-14_13h06.57.565,interaction task,2021.2.3,MacIntel,60.24096386,120644,,,,,,,,,,,,,,,,,Smaller,Greater,,-0.270918367,-0.50845788,1,0,0,LeftButton,"[""LeftButton""]",,,,2.990167942,4.1577,space,,,,,,,,,,,,0,40,40,40,1,2,only_sub_right.png,1,RandomDot34.png,No answer,19,,1.5523,
,,,,,,,,,,,,,,,,,,,,,,,,,,,,,,,R_1lsKKVQpKnRQfFs,1,2024-05-14_13h06.57.565,interaction task,2021.2.3,MacIntel,60.24096386,120644,,,,,,,,,,,,,,,,,Greater,Smaller,,-0.278640519,-0.494335937,1,0,0,LeftButton,"[""LeftButton""]",38,4.0943,space,,,,,,,,,,,,,,,0,41,41,41,1,1,both_wrong.png,0,RandomDot32.png,No answer,19,0.8017,,
