chooserow,ParID,pre_instru_resp_2.keys,pre_instru_resp_2.rt,pre_instru_resp_3.keys,pre_instru_resp_3.rt,pre_instru_resp_9.keys,pre_instru_resp_9.rt,pre_instru_resp_8.keys,pre_instru_resp_8.rt,pre_instru_resp_4.keys,pre_instru_resp_4.rt,pre_instru_resp_5.keys,pre_instru_resp_5.rt,pre_instru_resp_6.keys,pre_instru_resp_6.rt,key_resp_3.keys,key_resp_3.rt,key_resp_4.keys,key_resp_4.rt,key_resp_5.keys,key_resp_5.rt,key_resp_6.keys,key_resp_6.rt,key_resp_7.keys,key_resp_7.rt,trials_2.thisRepN,trials_2.thisTrialN,trials_2.thisN,trials_2.thisIndex,trials_2.ran,participant,session,date,expName,psychopyVersion,OS,frameRate,SONAid,pre_instru_resp.keys,pre_instru_resp.rt,clicked,judge_2.x,judge_2.y,judge_2.leftButton,judge_2.midButton,judge_2.rightButton,judge_2.clicked_name,trials.thisRepN,trials.thisTrialN,trials.thisN,trials.thisIndex,trials.ran,prac_answer,prac_dot_sti,dotlefttext,dotrighttext,prac_acc,judge.x,judge.y,judge.leftButton,judge.midButton,judge.rightButton,judge.clicked_name,clicked_guilt,slider_guilt.response,slider_guilt.rt,key_guilt.keys,share_slider.response,share_slider.rt,key_share.keys,slider_apology.response,slider_apology.rt,key_apology.keys,slider_hide.response,slider_hide.rt,slider_forgiveness.response,slider_forgiveness.rt,key_forgiveness.keys,slider_mad.response,slider_mad.rt,trialseq.thisRepN,trialseq.thisTrialN,trialseq.thisN,trialseq.thisIndex,trialseq.ran,type_trial,stipic,DV,picture,answer,number,key_apology.rt,key_forgiveness.rt,key_guilt.rt,key_share.rt,incompleteTrials,trials_redo.thisRepN,trials_redo.thisTrialN,trials_redo.thisN,trials_redo.thisIndex,trials_redo.ran
"[201,81,173,189,195,170,185,52,165,180,164,117,169,13,76,63,4,107,112,67,154,86,36,48,106,72,149,94,136,160,71,131,95,150,123,125,109,59,103,30,132,140]",R_1lghUhjTVIzEwwh,space,1.555,space,4.123,space,16.383,space,34.692,space,13.426,space,6.857,space,7.684,2,7.894,1,8.674,1,10.576,1,6.945,1,10.148,0,0,0,0,1,R_1lghUhjTVIzEwwh,1,2024-05-22_15h13.31.229,interaction task,2021.2.3,MacIntel,31.25,120742,,,,,,,,,,,,,,,,,,,,,,,,,,,,,,,,,,,,,,,,,,,,,,,,,,,,,,,,,,,,,,,
,,,,space,709.325,space,64.561,space,27.325,space,66.005,space,9.126,space,1.652,3,4.43,1,4.836,3,22.766,2,7.663,2,2.155,1,0,1,0,1,R_1lghUhjTVIzEwwh,1,2024-05-22_15h13.31.229,interaction task,2021.2.3,MacIntel,31.25,120742,,,,,,,,,,,,,,,,,,,,,,,,,,,,,,,,,,,,,,,,,,,,,,,,,,,,,,,,,,,,,,,
,,,,,,,,,,,,,,,,,,,,,,,,,,,,,,,R_1lghUhjTVIzEwwh,1,2024-05-22_15h13.31.229,interaction task,2021.2.3,MacIntel,31.25,120742,space,47.121,"[""LeftButton_2""]",-0.254166667,-0.317073171,1,0,0,LeftButton_2,0,0,0,2,1,LeftButton_2,9dot2.png,Smaller,Greater,,,,,,,,,,,,,,,,,,,,,,,,,,,,,,,,,,,,,,,,,,,,,
,,,,,,,,,,,,,,,,,,,,,,,,,,,,,,,R_1lghUhjTVIzEwwh,1,2024-05-22_15h13.31.229,interaction task,2021.2.3,MacIntel,31.25,120742,,,"[""LeftButton_2""]",-0.269444444,-0.312195122,1,0,0,LeftButton_2,0,1,1,0,1,RightButton_2,9dot2.png,Greater,Smaller,,,,,,,,,,,,,,,,,,,,,,,,,,,,,,,,,,,,,,,,,,,,,
,,,,,,,,,,,,,,,,,,,,,,,,,,,,,,,R_1lghUhjTVIzEwwh,1,2024-05-22_15h13.31.229,interaction task,2021.2.3,MacIntel,31.25,120742,,,"[""LeftButton_2""]",-0.302777778,-0.258536585,1,0,0,LeftButton_2,0,2,2,1,1,LeftButton_2,9dot1.png,Smaller,Greater,,,,,,,,,,,,,,,,,,,,,,,,,,,,,,,,,,,,,,,,,,,,,
,,,,,,,,,,,,,,,,,,,,,,,,,,,,,,,R_1lghUhjTVIzEwwh,1,2024-05-22_15h13.31.229,interaction task,2021.2.3,MacIntel,31.25,120742,,,,,,,,,,,,,,,,,Smaller,Greater,0.4,-0.295833333,-0.47804878,1,0,0,LeftButton,"[""LeftButton""]",,,,,,,,,,,,,,,,,0,0,0,0,1,5,both_right.png,10,RandomDot42.png,LeftButton,19,,,,,,,,,,
,,,,,,,,,,,,,,,,,,,,,,,,,,,,,,,R_1lghUhjTVIzEwwh,1,2024-05-22_15h13.31.229,interaction task,2021.2.3,MacIntel,31.25,120742,,,,,,,,,,,,,,,,,Smaller,Greater,,0.309722222,-0.519512195,1,0,0,RightButton,"[""RightButton""]",,,,,,,80,10.581,space,20,13.98,,,,,,0,1,1,1,1,1,both_wrong.png,2,RandomDot21.png,No answer,20,1.139,,,,,,,,,
,,,,,,,,,,,,,,,,,,,,,,,,,,,,,,,R_1lghUhjTVIzEwwh,1,2024-05-22_15h13.31.229,interaction task,2021.2.3,MacIntel,31.25,120742,,,,,,,,,,,,,,,,,Greater,Smaller,,0.343055556,-0.485365854,1,0,0,RightButton,"[""RightButton""]",,,,,,,79,4.131,space,20,9.083,,,,,,0,2,2,2,1,3,only_sub_wrong.png,2,RandomDot20.png,No answer,19,1.104,,,,,,,,,
,,,,,,,,,,,,,,,,,,,,,,,,,,,,,,,R_1lghUhjTVIzEwwh,1,2024-05-22_15h13.31.229,interaction task,2021.2.3,MacIntel,31.25,120742,,,,,,,,,,,,,,,,,Smaller,Greater,,-0.308333333,-0.512195122,1,0,0,LeftButton,"[""LeftButton""]",,,,,,,,,,,,50.28058361,5.512,space,88.2996633,10.093,0,3,3,3,1,3,only_sub_wrong.png,3,RandomDot38.png,No answer,20,,0.821,,,,,,,,
,,,,,,,,,,,,,,,,,,,,,,,,,,,,,,,R_1lghUhjTVIzEwwh,1,2024-05-22_15h13.31.229,interaction task,2021.2.3,MacIntel,31.25,120742,,,,,,,,,,,,,,,,,Smaller,Greater,,0.263888889,-0.519512195,1,0,0,RightButton,"[""RightButton""]",,,,,,,,,,,,,,,,,0,4,4,4,1,4,both_right.png,10,RandomDot41.png,RightButton,5,,,,,,,,,,
,,,,,,,,,,,,,,,,,,,,,,,,,,,,,,,R_1lghUhjTVIzEwwh,1,2024-05-22_15h13.31.229,interaction task,2021.2.3,MacIntel,31.25,120742,,,,,,,,,,,,,,,,,Greater,Smaller,,0.343055556,-0.53902439,1,0,0,RightButton,"[""RightButton""]",,,,,,,59,6.116,space,29,10.116,,,,,,0,5,5,5,1,3,only_sub_wrong.png,2,RandomDot39.png,No answer,20,0.745,,,,,,,,,
,,,,,,,,,,,,,,,,,,,,,,,,,,,,,,,R_1lghUhjTVIzEwwh,1,2024-05-22_15h13.31.229,interaction task,2021.2.3,MacIntel,31.25,120742,,,,,,,,,,,,,,,,,Greater,Smaller,,-0.266666667,-0.485365854,1,0,0,LeftButton,"[""LeftButton""]",,,,,,,,,,,,34.14702581,9.449,space,79.74186308,11.347,0,6,6,6,1,3,only_sub_wrong.png,3,RandomDot34.png,No answer,20,,1.09,,,,,,,,
,,,,,,,,,,,,,,,,,,,,,,,,,,,,,,,R_1lghUhjTVIzEwwh,1,2024-05-22_15h13.31.229,interaction task,2021.2.3,MacIntel,31.25,120742,,,,,,,,,,,,,,,,,Greater,Smaller,,0.248611111,-0.480487805,1,0,0,RightButton,"[""RightButton""]",60,3.136,space,,,,,,,,,,,,,,0,7,7,7,1,1,both_wrong.png,0,RandomDot10.png,No answer,20,,,0.734,,,,,,,
,,,,,,,,,,,,,,,,,,,,,,,,,,,,,,,R_1lghUhjTVIzEwwh,1,2024-05-22_15h13.31.229,interaction task,2021.2.3,MacIntel,31.25,120742,,,,,,,,,,,,,,,,,Smaller,Greater,,0.309722222,-0.504878049,1,0,0,RightButton,"[""RightButton""]",,,,0.208333333,11.251,space,,,,,,,,,,,0,8,8,8,1,3,only_sub_wrong.png,1,RandomDot6.png,No answer,21,,,,2.137,,,,,,
,,,,,,,,,,,,,,,,,,,,,,,,,,,,,,,R_1lghUhjTVIzEwwh,1,2024-05-22_15h13.31.229,interaction task,2021.2.3,MacIntel,31.25,120742,,,,,,,,,,,,,,,,,Greater,Smaller,,0.316666667,-0.519512195,1,0,0,RightButton,"[""RightButton""]",,,,,,,,,,,,29.51739618,3.361,space,83.38945006,4.728,0,9,9,9,1,3,only_sub_wrong.png,3,RandomDot20.png,No answer,19,,0.467,,,,,,,,
,,,,,,,,,,,,,,,,,,,,,,,,,,,,,,,R_1lghUhjTVIzEwwh,1,2024-05-22_15h13.31.229,interaction task,2021.2.3,MacIntel,31.25,120742,,,,,,,,,,,,,,,,,Smaller,Greater,,0.354166667,-0.534146341,1,0,0,RightButton,"[""RightButton""]",,,,0.291666667,9.166,space,,,,,,,,,,,0,10,10,10,1,3,only_sub_wrong.png,1,RandomDot40.png,No answer,19,,,,0.759,,,,,,
,,,,,,,,,,,,,,,,,,,,,,,,,,,,,,,R_1lghUhjTVIzEwwh,1,2024-05-22_15h13.31.229,interaction task,2021.2.3,MacIntel,31.25,120742,,,,,,,,,,,,,,,,,Smaller,Greater,,0.284722222,-0.514634146,1,0,0,RightButton,"[""RightButton""]",,,,0.541666667,5.329,space,,,,,,,,,,,0,11,11,11,1,2,only_sub_right.png,1,RandomDot27.png,No answer,21,,,,0.637,,,,,,
,,,,,,,,,,,,,,,,,,,,,,,,,,,,,,,R_1lghUhjTVIzEwwh,1,2024-05-22_15h13.31.229,interaction task,2021.2.3,MacIntel,31.25,120742,,,,,,,,,,,,,,,,,Greater,Smaller,,0.295833333,-0.52195122,1,0,0,RightButton,"[""RightButton""]",,,,,,,52,2.715,space,31,4.649,,,,,,0,12,12,12,1,3,only_sub_wrong.png,2,RandomDot1.png,No answer,20,0.568,,,,,,,,,
,,,,,,,,,,,,,,,,,,,,,,,,,,,,,,,R_1lghUhjTVIzEwwh,1,2024-05-22_15h13.31.229,interaction task,2021.2.3,MacIntel,31.25,120742,,,,,,,,,,,,,,,,,Greater,Smaller,,-0.277777778,-0.485365854,1,0,0,LeftButton,"[""LeftButton""]",,,,,,,,,,,,,,,,,0,13,13,13,1,0,both_right.png,1,RandomDot28.png,No answer,21,,,,,,,,,,
,,,,,,,,,,,,,,,,,,,,,,,,,,,,,,,R_1lghUhjTVIzEwwh,1,2024-05-22_15h13.31.229,interaction task,2021.2.3,MacIntel,31.25,120742,,,,,,,,,,,,,,,,,Greater,Smaller,,-0.247222222,-0.487804878,1,0,0,LeftButton,"[""LeftButton""]",,,,,,,34,2.05,space,32,3.816,,,,,,0,14,14,14,1,1,both_wrong.png,2,RandomDot9.png,No answer,21,0.344,,,,,,,,,
,,,,,,,,,,,,,,,,,,,,,,,,,,,,,,,R_1lghUhjTVIzEwwh,1,2024-05-22_15h13.31.229,interaction task,2021.2.3,MacIntel,31.25,120742,,,,,,,,,,,,,,,,,Greater,Smaller,,0.301388889,-0.485365854,1,0,0,RightButton,"[""RightButton""]",,,,1.013888889,3.353,space,,,,,,,,,,,0,15,15,15,1,1,both_wrong.png,1,RandomDot27.png,No answer,19,,,,0.306,,,,,,
,,,,,,,,,,,,,,,,,,,,,,,,,,,,,,,R_1lghUhjTVIzEwwh,1,2024-05-22_15h13.31.229,interaction task,2021.2.3,MacIntel,31.25,120742,,,,,,,,,,,,,,,,,Greater,Smaller,,-0.306944444,-0.529268293,1,0,0,LeftButton,"[""LeftButton""]",,,,,,,,,,,,,,,,,0,16,16,16,1,0,both_right.png,0,RandomDot20.png,No answer,19,,,,,,,,,,
,,,,,,,,,,,,,,,,,,,,,,,,,,,,,,,R_1lghUhjTVIzEwwh,1,2024-05-22_15h13.31.229,interaction task,2021.2.3,MacIntel,31.25,120742,,,,,,,,,,,,,,,,,Smaller,Greater,,-0.265277778,-0.504878049,1,0,0,LeftButton,"[""LeftButton""]",51,2.522,space,,,,,,,,,,,,,,0,17,17,17,1,2,only_sub_right.png,0,RandomDot37.png,No answer,21,,,0.335,,,,,,,
,,,,,,,,,,,,,,,,,,,,,,,,,,,,,,,R_1lghUhjTVIzEwwh,1,2024-05-22_15h13.31.229,interaction task,2021.2.3,MacIntel,31.25,120742,,,,,,,,,,,,,,,,,Greater,Smaller,,0.254166667,-0.485365854,1,0,0,RightButton,"[""RightButton""]",,,,0.25,2.698,space,,,,,,,,,,,0,18,18,18,1,2,only_sub_right.png,1,RandomDot32.png,No answer,19,,,,0.518,,,,,,
,,,,,,,,,,,,,,,,,,,,,,,,,,,,,,,R_1lghUhjTVIzEwwh,1,2024-05-22_15h13.31.229,interaction task,2021.2.3,MacIntel,31.25,120742,,,,,,,,,,,,,,,,,Smaller,Greater,,0.291666667,-0.526829268,1,0,0,RightButton,"[""RightButton""]",,,,0.965277778,2.018,space,,,,,,,,,,,0,19,19,19,1,1,both_wrong.png,1,RandomDot17.png,No answer,20,,,,0.321,,,,,,
,,,,,,,,,,,,,,,,,,,,,,,,,,,,,,,R_1lghUhjTVIzEwwh,1,2024-05-22_15h13.31.229,interaction task,2021.2.3,MacIntel,31.25,120742,,,,,,,,,,,,,,,,,Smaller,Greater,,-0.263888889,-0.497560976,1,0,0,LeftButton,"[""LeftButton""]",45,1.871,space,,,,,,,,,,,,,,0,20,20,20,1,3,only_sub_wrong.png,0,RandomDot25.png,No answer,21,,,0.294,,,,,,,
,,,,,,,,,,,,,,,,,,,,,,,,,,,,,,,R_1lghUhjTVIzEwwh,1,2024-05-22_15h13.31.229,interaction task,2021.2.3,MacIntel,31.25,120742,,,,,,,,,,,,,,,,,Greater,Smaller,,0.316666667,-0.52195122,1,0,0,RightButton,"[""RightButton""]",,,,,,,,,,,,51.26262626,2.161,space,35.26936027,3.095,0,21,21,21,1,1,both_wrong.png,3,RandomDot13.png,No answer,21,,0.299,,,,,,,,
,,,,,,,,,,,,,,,,,,,,,,,,,,,,,,,R_1lghUhjTVIzEwwh,1,2024-05-22_15h13.31.229,interaction task,2021.2.3,MacIntel,31.25,120742,,,,,,,,,,,,,,,,,Greater,Smaller,,-0.355555556,-0.180487805,0,0,0,,[],,,,,,,,,,,,,,,,,0,22,22,22,1,0,both_right.png,3,RandomDot3.png,No answer,20,,,,,36,,,,,
,,,,,,,,,,,,,,,,,,,,,,,,,,,,,,,R_1lghUhjTVIzEwwh,1,2024-05-22_15h13.31.229,interaction task,2021.2.3,MacIntel,31.25,120742,,,,,,,,,,,,,,,,,Greater,Smaller,,-0.3,-0.514634146,1,0,0,LeftButton,"[""LeftButton""]",49,1.589,space,,,,,,,,,,,,,,0,23,23,23,1,1,both_wrong.png,0,RandomDot24.png,No answer,21,,,1.071,,,,,,,
,,,,,,,,,,,,,,,,,,,,,,,,,,,,,,,R_1lghUhjTVIzEwwh,1,2024-05-22_15h13.31.229,interaction task,2021.2.3,MacIntel,31.25,120742,,,,,,,,,,,,,,,,,Smaller,Greater,,0.238888889,-0.507317073,1,0,0,RightButton,"[""RightButton""]",41,1.425,space,,,,,,,,,,,,,,0,24,24,24,1,2,only_sub_right.png,0,RandomDot39.png,No answer,19,,,0.404,,,,,,,
,,,,,,,,,,,,,,,,,,,,,,,,,,,,,,,R_1lghUhjTVIzEwwh,1,2024-05-22_15h13.31.229,interaction task,2021.2.3,MacIntel,31.25,120742,,,,,,,,,,,,,,,,,Greater,Smaller,,0.256944444,-0.482926829,1,0,0,RightButton,"[""RightButton""]",,,,,,,60,1.797,space,37,2.763,,,,,,0,25,25,25,1,1,both_wrong.png,2,RandomDot1.png,No answer,21,0.288,,,,,,,,,
,,,,,,,,,,,,,,,,,,,,,,,,,,,,,,,R_1lghUhjTVIzEwwh,1,2024-05-22_15h13.31.229,interaction task,2021.2.3,MacIntel,31.25,120742,,,,,,,,,,,,,,,,,Greater,Smaller,,-0.330555556,-0.541463415,1,0,0,LeftButton,"[""LeftButton""]",19,1.457,space,,,,,,,,,,,,,,0,26,26,26,1,3,only_sub_wrong.png,0,RandomDot24.png,No answer,20,,,0.271,,,,,,,
,,,,,,,,,,,,,,,,,,,,,,,,,,,,,,,R_1lghUhjTVIzEwwh,1,2024-05-22_15h13.31.229,interaction task,2021.2.3,MacIntel,31.25,120742,,,,,,,,,,,,,,,,,Smaller,Greater,,-0.319444444,-0.517073171,1,0,0,LeftButton,"[""LeftButton""]",,,,,,,,,,,,41.72278339,1.647,space,38.21548822,2.395,0,27,27,27,1,1,both_wrong.png,3,RandomDot25.png,No answer,21,,0.352,,,,,,,,
,,,,,,,,,,,,,,,,,,,,,,,,,,,,,,,R_1lghUhjTVIzEwwh,1,2024-05-22_15h13.31.229,interaction task,2021.2.3,MacIntel,31.25,120742,,,,,,,,,,,,,,,,,Greater,Smaller,,-0.275,-0.512195122,1,0,0,LeftButton,"[""LeftButton""]",,,,,,,,,,,,59.96071829,2.281,space,41.02132435,3.08,0,28,28,28,1,2,only_sub_right.png,3,RandomDot10.png,No answer,19,,0.289,,,,,,,,
,,,,,,,,,,,,,,,,,,,,,,,,,,,,,,,R_1lghUhjTVIzEwwh,1,2024-05-22_15h13.31.229,interaction task,2021.2.3,MacIntel,31.25,120742,,,,,,,,,,,,,,,,,Greater,Smaller,,0.268055556,-0.480487805,1,0,0,RightButton,"[""RightButton""]",,,,0.534722222,1.899,space,,,,,,,,,,,0,29,29,29,1,3,only_sub_wrong.png,1,RandomDot22.png,No answer,19,,,,0.252,,,,,,
,,,,,,,,,,,,,,,,,,,,,,,,,,,,,,,R_1lghUhjTVIzEwwh,1,2024-05-22_15h13.31.229,interaction task,2021.2.3,MacIntel,31.25,120742,,,,,,,,,,,,,,,,,Smaller,Greater,,0.241666667,-0.529268293,1,0,0,RightButton,"[""RightButton""]",,,,0.527777778,1.399,space,,,,,,,,,,,0,30,30,30,1,1,both_wrong.png,1,RandomDot14.png,No answer,20,,,,0.296,,,,,,
,,,,,,,,,,,,,,,,,,,,,,,,,,,,,,,R_1lghUhjTVIzEwwh,1,2024-05-22_15h13.31.229,interaction task,2021.2.3,MacIntel,31.25,120742,,,,,,,,,,,,,,,,,Smaller,Greater,,0.288888889,-0.507317073,1,0,0,RightButton,"[""RightButton""]",,,,,,,57,1.784,space,35,2.816,,,,,,0,31,31,31,1,2,only_sub_right.png,2,RandomDot5.png,No answer,21,0.69,,,,,,,,,
,,,,,,,,,,,,,,,,,,,,,,,,,,,,,,,R_1lghUhjTVIzEwwh,1,2024-05-22_15h13.31.229,interaction task,2021.2.3,MacIntel,31.25,120742,,,,,,,,,,,,,,,,,Smaller,Greater,,0.305555556,-0.497560976,1,0,0,RightButton,"[""RightButton""]",,,,,,,,,,,,93.91133558,2.646,space,90.12345679,3.913,0,32,32,32,1,1,both_wrong.png,3,RandomDot12.png,No answer,19,,1.254,,,,,,,,
,,,,,,,,,,,,,,,,,,,,,,,,,,,,,,,R_1lghUhjTVIzEwwh,1,2024-05-22_15h13.31.229,interaction task,2021.2.3,MacIntel,31.25,120742,,,,,,,,,,,,,,,,,Smaller,Greater,,-0.331944444,-0.502439024,1,0,0,LeftButton,"[""LeftButton""]",11,1.755,space,,,,,,,,,,,,,,0,33,33,33,1,3,only_sub_wrong.png,0,RandomDot16.png,No answer,21,,,0.255,,,,,,,
,,,,,,,,,,,,,,,,,,,,,,,,,,,,,,,R_1lghUhjTVIzEwwh,1,2024-05-22_15h13.31.229,interaction task,2021.2.3,MacIntel,31.25,120742,,,,,,,,,,,,,,,,,Greater,Smaller,,0.2,-0.504878049,1,0,0,RightButton,"[""RightButton""]",,,,,,,39,3.398,space,28,4.331,,,,,,0,34,34,34,1,2,only_sub_right.png,2,RandomDot16.png,No answer,20,0.422,,,,,,,,,
,,,,,,,,,,,,,,,,,,,,,,,,,,,,,,,R_1lghUhjTVIzEwwh,1,2024-05-22_15h13.31.229,interaction task,2021.2.3,MacIntel,31.25,120742,,,,,,,,,,,,,,,,,Greater,Smaller,,-0.311111111,-0.536585366,1,0,0,LeftButton,"[""LeftButton""]",,,,,,,15,1.697,space,22,2.497,,,,,,0,35,35,35,1,2,only_sub_right.png,2,RandomDot36.png,No answer,21,0.265,,,,,,,,,
,,,,,,,,,,,,,,,,,,,,,,,,,,,,,,,R_1lghUhjTVIzEwwh,1,2024-05-22_15h13.31.229,interaction task,2021.2.3,MacIntel,31.25,120742,,,,,,,,,,,,,,,,,Greater,Smaller,,-0.275,-0.512195122,1,0,0,LeftButton,"[""LeftButton""]",,,,4.986111111,3.067,space,,,,,,,,,,,0,36,36,36,1,2,only_sub_right.png,1,RandomDot3.png,No answer,19,,,,1.99,,,,,,
,,,,,,,,,,,,,,,,,,,,,,,,,,,,,,,R_1lghUhjTVIzEwwh,1,2024-05-22_15h13.31.229,interaction task,2021.2.3,MacIntel,31.25,120742,,,,,,,,,,,,,,,,,Smaller,Greater,,-0.270833333,-0.504878049,1,0,0,LeftButton,"[""LeftButton""]",21,1.988,space,,,,,,,,,,,,,,0,37,37,37,1,1,both_wrong.png,0,RandomDot14.png,No answer,21,,,0.322,,,,,,,
,,,,,,,,,,,,,,,,,,,,,,,,,,,,,,,R_1lghUhjTVIzEwwh,1,2024-05-22_15h13.31.229,interaction task,2021.2.3,MacIntel,31.25,120742,,,,,,,,,,,,,,,,,Smaller,Greater,,0.270833333,-0.519512195,1,0,0,RightButton,"[""RightButton""]",13,2.722,space,,,,,,,,,,,,,,0,38,38,38,1,2,only_sub_right.png,0,RandomDot21.png,No answer,21,,,0.495,,,,,,,
,,,,,,,,,,,,,,,,,,,,,,,,,,,,,,,R_1lghUhjTVIzEwwh,1,2024-05-22_15h13.31.229,interaction task,2021.2.3,MacIntel,31.25,120742,,,,,,,,,,,,,,,,,Smaller,Greater,,-0.270833333,-0.475609756,1,0,0,LeftButton,"[""LeftButton""]",,,,,,,,,,,,,,,,,0,39,39,39,1,0,both_right.png,2,RandomDot24.png,No answer,21,,,,,,,,,,
,,,,,,,,,,,,,,,,,,,,,,,,,,,,,,,R_1lghUhjTVIzEwwh,1,2024-05-22_15h13.31.229,interaction task,2021.2.3,MacIntel,31.25,120742,,,,,,,,,,,,,,,,,Greater,Smaller,,-0.266666667,-0.480487805,1,0,0,LeftButton,"[""LeftButton""]",,,,,,,,,,,,21.09988777,1.396,space,19.6969697,2.429,0,40,40,40,1,2,only_sub_right.png,3,RandomDot20.png,No answer,21,,0.243,,,,,,,,
,,,,,,,,,,,,,,,,,,,,,,,,,,,,,,,R_1lghUhjTVIzEwwh,1,2024-05-22_15h13.31.229,interaction task,2021.2.3,MacIntel,31.25,120742,,,,,,,,,,,,,,,,,Smaller,Greater,,0.2625,-0.526829268,1,0,0,RightButton,"[""RightButton""]",,,,,,,,,,,,57.15488215,1.982,space,30.63973064,2.882,0,41,41,41,1,2,only_sub_right.png,3,RandomDot8.png,No answer,19,,0.472,,,,,,,,
,,,,,,,,,,,,,,,,,,,,,,,,,,,,,,,R_1lghUhjTVIzEwwh,1,2024-05-22_15h13.31.229,interaction task,2021.2.3,MacIntel,31.25,120742,,,,,,,,,,,,,,,,,Greater,Smaller,,0.333333333,-0.504878049,1,0,0,RightButton,"[""RightButton""]",,,,,,,,,,,,,,,,,,,,,,0,both_right.png,3,RandomDot3.png,No answer,20,,,,,,0,0,0,0,1
