choose_trial,key_resp.keys,key_resp.rt,key_resp_4.keys,key_resp_4.rt,session_trait,slider_face_judge.response,slider_face_judge.rt,key_resp_3.keys,key_resp_3.rt,face_loop.thisRepN,face_loop.thisTrialN,face_loop.thisN,face_loop.thisIndex,face_loop.ran,face_serial,image_name,isCheck,answer,check_question,participant,session,date,expName,psychopyVersion,OS,frameRate,SONAid,session.thisRepN,session.thisTrialN,session.thisN,session.thisIndex,session.ran,session_serial,slider_judge_img
"[0,1,2,3,4,5,6,7,8,9,10,11,12,13,14,15,16,17,18,19,20,21,22,23,24,25,26,27,28,29,30,31,32,33,34,35,36,37,38,39,40,41,42,43,44,45,46,47,48,49,60,57,60]",space,5.9215,space,7.8679,competent,2.971959918,5.9331,space,0.6456,0,0,0,24,1,25,image/25.jpg,0,0,,R_1lsKKVQpKnRQfFs,2,2024-05-14_13h21.57.983,face trait task,2021.2.3,MacIntel,59.88023952,120644,,,,,,,
,,,,,,2.031886889,2.848,space,0.2479,0,1,1,39,1,40,image/40.jpg,0,0,,R_1lsKKVQpKnRQfFs,2,2024-05-14_13h21.57.983,face trait task,2021.2.3,MacIntel,59.88023952,120644,,,,,,,
,,,,,,1.935665761,2.587,space,0.4624,0,2,2,13,1,14,image/14.jpg,0,0,,R_1lsKKVQpKnRQfFs,2,2024-05-14_13h21.57.983,face trait task,2021.2.3,MacIntel,59.88023952,120644,,,,,,,
,,,,,,3.020337976,1.5471,space,0.2375,0,3,3,23,1,24,image/24.jpg,0,0,,R_1lsKKVQpKnRQfFs,2,2024-05-14_13h21.57.983,face trait task,2021.2.3,MacIntel,59.88023952,120644,,,,,,,
,,,,,,4.045830503,2.0076,space,0.4221,0,4,4,26,1,27,image/27.jpg,0,0,,R_1lsKKVQpKnRQfFs,2,2024-05-14_13h21.57.983,face trait task,2021.2.3,MacIntel,59.88023952,120644,,,,,,,
,,,,,,4.002318274,1.7791,space,0.2026,0,5,5,9,1,10,image/10.jpg,0,0,,R_1lsKKVQpKnRQfFs,2,2024-05-14_13h21.57.983,face trait task,2021.2.3,MacIntel,59.88023952,120644,,,,,,,
,,,,,,3.007014266,2.3899,space,0.2011,0,6,6,32,1,33,image/33.jpg,0,0,,R_1lsKKVQpKnRQfFs,2,2024-05-14_13h21.57.983,face trait task,2021.2.3,MacIntel,59.88023952,120644,,,,,,,
,,,,,,4.573123302,3.5986,space,1.8019,0,7,7,44,1,45,image/45.jpg,0,0,,R_1lsKKVQpKnRQfFs,2,2024-05-14_13h21.57.983,face trait task,2021.2.3,MacIntel,59.88023952,120644,,,,,,,
,,,,,,3.454543139,1.7232,space,0.2542,0,8,8,31,1,32,image/32.jpg,0,0,,R_1lsKKVQpKnRQfFs,2,2024-05-14_13h21.57.983,face trait task,2021.2.3,MacIntel,59.88023952,120644,,,,,,,
,,,,,,2.539767323,2.9838,space,0.1635,0,9,9,46,1,47,image/47.jpg,0,0,,R_1lsKKVQpKnRQfFs,2,2024-05-14_13h21.57.983,face trait task,2021.2.3,MacIntel,59.88023952,120644,,,,,,,
,,,,,,6.00459409,3.318,space,1.214,0,10,10,7,1,8,image/8.jpg,0,0,,R_1lsKKVQpKnRQfFs,2,2024-05-14_13h21.57.983,face trait task,2021.2.3,MacIntel,59.88023952,120644,,,,,,,
,,,,,,5.518036685,2.3305,space,1.0263,0,11,11,5,1,6,image/6.jpg,0,0,,R_1lsKKVQpKnRQfFs,2,2024-05-14_13h21.57.983,face trait task,2021.2.3,MacIntel,59.88023952,120644,,,,,,,
,,,,,,3.967493207,3.4681,space,0.2795,0,12,12,36,1,37,image/37.jpg,0,0,,R_1lsKKVQpKnRQfFs,2,2024-05-14_13h21.57.983,face trait task,2021.2.3,MacIntel,59.88023952,120644,,,,,,,
,,,,,,4.561786685,1.9706,space,0.399,0,13,13,6,1,7,image/7.jpg,0,0,,R_1lsKKVQpKnRQfFs,2,2024-05-14_13h21.57.983,face trait task,2021.2.3,MacIntel,59.88023952,120644,,,,,,,
,,,,,,2.479976223,1.9639,space,0.2696,0,14,14,14,1,15,image/15.jpg,0,0,,R_1lsKKVQpKnRQfFs,2,2024-05-14_13h21.57.983,face trait task,2021.2.3,MacIntel,59.88023952,120644,,,,,,,
,,,,,,3.493265965,2.4166,space,0.3574,0,15,15,34,1,35,image/35.jpg,0,0,,R_1lsKKVQpKnRQfFs,2,2024-05-14_13h21.57.983,face trait task,2021.2.3,MacIntel,59.88023952,120644,,,,,,,
,,,,,,3.975518003,2.0929,space,0.1832,0,16,16,11,1,12,image/12.jpg,0,0,,R_1lsKKVQpKnRQfFs,2,2024-05-14_13h21.57.983,face trait task,2021.2.3,MacIntel,59.88023952,120644,,,,,,,
,,,,,,3.557871943,1.7204,space,0.6341,0,17,17,18,1,19,image/19.jpg,0,0,,R_1lsKKVQpKnRQfFs,2,2024-05-14_13h21.57.983,face trait task,2021.2.3,MacIntel,59.88023952,120644,,,,,,,
,,,,,,4.496289063,2.1629,space,0.3181,0,18,18,10,1,11,image/11.jpg,0,0,,R_1lsKKVQpKnRQfFs,2,2024-05-14_13h21.57.983,face trait task,2021.2.3,MacIntel,59.88023952,120644,,,,,,,
,,,,,,3.458721128,1.9103,space,0.59,0,19,19,12,1,13,image/13.jpg,0,0,,R_1lsKKVQpKnRQfFs,2,2024-05-14_13h21.57.983,face trait task,2021.2.3,MacIntel,59.88023952,120644,,,,,,,
,,,,,,3.510742188,1.6997,space,0.4682,0,20,20,29,1,30,image/30.jpg,0,0,,R_1lsKKVQpKnRQfFs,2,2024-05-14_13h21.57.983,face trait task,2021.2.3,MacIntel,59.88023952,120644,,,,,,,
,,,,,,2.51920856,1.6836,space,0.6309,0,21,21,16,1,17,image/17.jpg,0,0,,R_1lsKKVQpKnRQfFs,2,2024-05-14_13h21.57.983,face trait task,2021.2.3,MacIntel,59.88023952,120644,,,,,,,
,,,,,,2.000016984,2.1645,space,0.463,0,22,22,15,1,16,image/16.jpg,0,0,,R_1lsKKVQpKnRQfFs,2,2024-05-14_13h21.57.983,face trait task,2021.2.3,MacIntel,59.88023952,120644,,,,,,,
,,,,,,2.993308424,2.0477,space,0.4412,0,23,23,20,1,21,image/21.jpg,0,0,,R_1lsKKVQpKnRQfFs,2,2024-05-14_13h21.57.983,face trait task,2021.2.3,MacIntel,59.88023952,120644,,,,,,,
,,,,,,3.509086277,2.1533,space,0.3747,0,24,24,48,1,49,image/49.jpg,0,0,,R_1lsKKVQpKnRQfFs,2,2024-05-14_13h21.57.983,face trait task,2021.2.3,MacIntel,59.88023952,120644,,,,,,,
,,,,,,3.991236413,1.6997,space,0.3021,0,25,25,35,1,36,image/36.jpg,0,0,,R_1lsKKVQpKnRQfFs,2,2024-05-14_13h21.57.983,face trait task,2021.2.3,MacIntel,59.88023952,120644,,,,,,,
,,,,,,6.978396739,3.5949,space,0.6855,0,26,26,51,1,58,image/fill_img.png,1,7,Please move the slider all the way to the RIGHT to show that you are paying attention.,R_1lsKKVQpKnRQfFs,2,2024-05-14_13h21.57.983,face trait task,2021.2.3,MacIntel,59.88023952,120644,,,,,,,
,,,,,,4.036455503,5.9478,space,0.2846,0,27,27,8,1,9,image/9.jpg,0,0,,R_1lsKKVQpKnRQfFs,2,2024-05-14_13h21.57.983,face trait task,2021.2.3,MacIntel,59.88023952,120644,,,,,,,
,,,,,,6.994191576,2.6673,space,0.5092,0,28,28,52,1,61,image/fill_img.png,1,7,Please move the slider all the way to the RIGHT to show that you are paying attention.,R_1lsKKVQpKnRQfFs,2,2024-05-14_13h21.57.983,face trait task,2021.2.3,MacIntel,59.88023952,120644,,,,,,,
,,,,,,4.035360054,6.0453,space,1.0659,0,29,29,3,1,4,image/4.jpg,0,0,,R_1lsKKVQpKnRQfFs,2,2024-05-14_13h21.57.983,face trait task,2021.2.3,MacIntel,59.88023952,120644,,,,,,,
,,,,,,3.508780571,1.8699,space,0.7006,0,30,30,21,1,22,image/22.jpg,0,0,,R_1lsKKVQpKnRQfFs,2,2024-05-14_13h21.57.983,face trait task,2021.2.3,MacIntel,59.88023952,120644,,,,,,,
,,,,,,2.467391304,2.9081,space,0.3814,0,31,31,40,1,41,image/41.jpg,0,0,,R_1lsKKVQpKnRQfFs,2,2024-05-14_13h21.57.983,face trait task,2021.2.3,MacIntel,59.88023952,120644,,,,,,,
,,,,,,2.98561481,1.9214,space,0.3008,0,32,32,2,1,3,image/3.jpg,0,0,,R_1lsKKVQpKnRQfFs,2,2024-05-14_13h21.57.983,face trait task,2021.2.3,MacIntel,59.88023952,120644,,,,,,,
,,,,,,3.014911685,2.7511,space,0.1674,0,33,33,19,1,20,image/20.jpg,0,0,,R_1lsKKVQpKnRQfFs,2,2024-05-14_13h21.57.983,face trait task,2021.2.3,MacIntel,59.88023952,120644,,,,,,,
,,,,,,3.538230299,1.5358,space,0.3574,0,34,34,4,1,5,image/5.jpg,0,0,,R_1lsKKVQpKnRQfFs,2,2024-05-14_13h21.57.983,face trait task,2021.2.3,MacIntel,59.88023952,120644,,,,,,,
,,,,,,3.001282269,2.6842,space,1.5785,0,35,35,17,1,18,image/18.jpg,0,0,,R_1lsKKVQpKnRQfFs,2,2024-05-14_13h21.57.983,face trait task,2021.2.3,MacIntel,59.88023952,120644,,,,,,,
,,,,,,4.988705842,1.8827,space,0.6305,0,36,36,41,1,42,image/42.jpg,0,0,,R_1lsKKVQpKnRQfFs,2,2024-05-14_13h21.57.983,face trait task,2021.2.3,MacIntel,59.88023952,120644,,,,,,,
,,,,,,4.007617187,2.3744,space,1.1679,0,37,37,28,1,29,image/29.jpg,0,0,,R_1lsKKVQpKnRQfFs,2,2024-05-14_13h21.57.983,face trait task,2021.2.3,MacIntel,59.88023952,120644,,,,,,,
,,,,,,4.507498302,1.8159,space,0.4971,0,38,38,1,1,2,image/2.jpg,0,0,,R_1lsKKVQpKnRQfFs,2,2024-05-14_13h21.57.983,face trait task,2021.2.3,MacIntel,59.88023952,120644,,,,,,,
,,,,,,3.530129076,1.6578,space,0.5866,0,39,39,33,1,34,image/34.jpg,0,0,,R_1lsKKVQpKnRQfFs,2,2024-05-14_13h21.57.983,face trait task,2021.2.3,MacIntel,59.88023952,120644,,,,,,,
,,,,,,6.968970788,2.0981,space,0.4731,0,40,40,50,1,61,image/fill_img.png,1,7,Please move the slider all the way to the RIGHT to show that you are paying attention.,R_1lsKKVQpKnRQfFs,2,2024-05-14_13h21.57.983,face trait task,2021.2.3,MacIntel,59.88023952,120644,,,,,,,
,,,,,,3.98170856,2.1825,space,0.7716,0,41,41,25,1,26,image/26.jpg,0,0,,R_1lsKKVQpKnRQfFs,2,2024-05-14_13h21.57.983,face trait task,2021.2.3,MacIntel,59.88023952,120644,,,,,,,
,,,,,,4.183194633,2.6853,space,1.2024,0,42,42,45,1,46,image/46.jpg,0,0,,R_1lsKKVQpKnRQfFs,2,2024-05-14_13h21.57.983,face trait task,2021.2.3,MacIntel,59.88023952,120644,,,,,,,
,,,,,,4.345499321,1.7809,space,0.2059,0,43,43,38,1,39,image/39.jpg,0,0,,R_1lsKKVQpKnRQfFs,2,2024-05-14_13h21.57.983,face trait task,2021.2.3,MacIntel,59.88023952,120644,,,,,,,
,,,,,,3.502284307,2.3661,space,0.3031,0,44,44,47,1,48,image/48.jpg,0,0,,R_1lsKKVQpKnRQfFs,2,2024-05-14_13h21.57.983,face trait task,2021.2.3,MacIntel,59.88023952,120644,,,,,,,
,,,,,,5.012627378,1.8014,space,0.4172,0,45,45,30,1,31,image/31.jpg,0,0,,R_1lsKKVQpKnRQfFs,2,2024-05-14_13h21.57.983,face trait task,2021.2.3,MacIntel,59.88023952,120644,,,,,,,
,,,,,,4.493716033,1.8853,space,0.2367,0,46,46,43,1,44,image/44.jpg,0,0,,R_1lsKKVQpKnRQfFs,2,2024-05-14_13h21.57.983,face trait task,2021.2.3,MacIntel,59.88023952,120644,,,,,,,
,,,,,,3.470847486,2.0523,space,0.2516,0,47,47,37,1,38,image/38.jpg,0,0,,R_1lsKKVQpKnRQfFs,2,2024-05-14_13h21.57.983,face trait task,2021.2.3,MacIntel,59.88023952,120644,,,,,,,
,,,,,,4.533254076,4.5769,space,0.576,0,48,48,22,1,23,image/23.jpg,0,0,,R_1lsKKVQpKnRQfFs,2,2024-05-14_13h21.57.983,face trait task,2021.2.3,MacIntel,59.88023952,120644,,,,,,,
,,,,,,3.511659307,2.7823,space,0.218,0,49,49,0,1,1,image/1.jpg,0,0,,R_1lsKKVQpKnRQfFs,2,2024-05-14_13h21.57.983,face trait task,2021.2.3,MacIntel,59.88023952,120644,,,,,,,
,,,,,,4.009884511,5.3964,space,3.0687,0,50,50,27,1,28,image/28.jpg,0,0,,R_1lsKKVQpKnRQfFs,2,2024-05-14_13h21.57.983,face trait task,2021.2.3,MacIntel,59.88023952,120644,,,,,,,
,,,,,,3.545516304,1.6606,space,0.3857,0,51,51,42,1,43,image/43.jpg,0,0,,R_1lsKKVQpKnRQfFs,2,2024-05-14_13h21.57.983,face trait task,2021.2.3,MacIntel,59.88023952,120644,,,,,,,
,,,,,,4.021170177,4.7031,space,0.4347,0,52,52,49,1,50,image/50.jpg,0,0,,R_1lsKKVQpKnRQfFs,2,2024-05-14_13h21.57.983,face trait task,2021.2.3,MacIntel,59.88023952,120644,,,,,,,
,,,,,,,,,,,,,,,,,,,,R_1lsKKVQpKnRQfFs,2,2024-05-14_13h21.57.983,face trait task,2021.2.3,MacIntel,59.88023952,120644,0,0,0,1,1,1,competent.png
,,,,,friendly,3.985886549,2.888,space,0.1839,0,0,0,1,1,2,image/2.jpg,0,0,,R_1lsKKVQpKnRQfFs,2,2024-05-14_13h21.57.983,face trait task,2021.2.3,MacIntel,59.88023952,120644,,,,,,,
,,,,,,2.994098166,1.8407,space,0.2359,0,1,1,25,1,26,image/26.jpg,0,0,,R_1lsKKVQpKnRQfFs,2,2024-05-14_13h21.57.983,face trait task,2021.2.3,MacIntel,59.88023952,120644,,,,,,,
,,,,,,4.98248981,2.3813,space,0.5484,0,2,2,6,1,7,image/7.jpg,0,0,,R_1lsKKVQpKnRQfFs,2,2024-05-14_13h21.57.983,face trait task,2021.2.3,MacIntel,59.88023952,120644,,,,,,,
,,,,,,2.988034986,1.6898,space,0.4568,0,3,3,15,1,16,image/16.jpg,0,0,,R_1lsKKVQpKnRQfFs,2,2024-05-14_13h21.57.983,face trait task,2021.2.3,MacIntel,59.88023952,120644,,,,,,,
,,,,,,3.580545177,1.9544,space,0.3847,0,4,4,33,1,34,image/34.jpg,0,0,,R_1lsKKVQpKnRQfFs,2,2024-05-14_13h21.57.983,face trait task,2021.2.3,MacIntel,59.88023952,120644,,,,,,,
,,,,,,4.475424592,2.6886,space,0.2722,0,5,5,9,1,10,image/10.jpg,0,0,,R_1lsKKVQpKnRQfFs,2,2024-05-14_13h21.57.983,face trait task,2021.2.3,MacIntel,59.88023952,120644,,,,,,,
,,,,,,2.020703125,1.9306,space,0.3318,0,6,6,39,1,40,image/40.jpg,0,0,,R_1lsKKVQpKnRQfFs,2,2024-05-14_13h21.57.983,face trait task,2021.2.3,MacIntel,59.88023952,120644,,,,,,,
,,,,,,6.980230978,2.0725,space,0.5009,0,7,7,52,1,61,image/fill_img.png,1,7,Please move the slider all the way to the RIGHT to show that you are paying attention.,R_1lsKKVQpKnRQfFs,2,2024-05-14_13h21.57.983,face trait task,2021.2.3,MacIntel,59.88023952,120644,,,,,,,
,,,,,,1.52077106,2.8351,space,0.468,0,8,8,14,1,15,image/15.jpg,0,0,,R_1lsKKVQpKnRQfFs,2,2024-05-14_13h21.57.983,face trait task,2021.2.3,MacIntel,59.88023952,120644,,,,,,,
,,,,,,5.537168818,3.1115,space,0.385,0,9,9,48,1,49,image/49.jpg,0,0,,R_1lsKKVQpKnRQfFs,2,2024-05-14_13h21.57.983,face trait task,2021.2.3,MacIntel,59.88023952,120644,,,,,,,
,,,,,,3.964512568,2.1567,space,0.4359,0,10,10,32,1,33,image/33.jpg,0,0,,R_1lsKKVQpKnRQfFs,2,2024-05-14_13h21.57.983,face trait task,2021.2.3,MacIntel,59.88023952,120644,,,,,,,
,,,,,,3.745295516,2.1846,space,0.3865,0,11,11,27,1,28,image/28.jpg,0,0,,R_1lsKKVQpKnRQfFs,2,2024-05-14_13h21.57.983,face trait task,2021.2.3,MacIntel,59.88023952,120644,,,,,,,
,,,,,,4.987610394,2.4812,space,0.3349,0,12,12,44,1,45,image/45.jpg,0,0,,R_1lsKKVQpKnRQfFs,2,2024-05-14_13h21.57.983,face trait task,2021.2.3,MacIntel,59.88023952,120644,,,,,,,
,,,,,,4.011591372,1.5645,space,0.2682,0,13,13,28,1,29,image/29.jpg,0,0,,R_1lsKKVQpKnRQfFs,2,2024-05-14_13h21.57.983,face trait task,2021.2.3,MacIntel,59.88023952,120644,,,,,,,
,,,,,,4.529865829,1.8631,space,0.2008,0,14,14,4,1,5,image/5.jpg,0,0,,R_1lsKKVQpKnRQfFs,2,2024-05-14_13h21.57.983,face trait task,2021.2.3,MacIntel,59.88023952,120644,,,,,,,
,,,,,,4.529865829,2.6733,space,0.3511,0,15,15,2,1,3,image/3.jpg,0,0,,R_1lsKKVQpKnRQfFs,2,2024-05-14_13h21.57.983,face trait task,2021.2.3,MacIntel,59.88023952,120644,,,,,,,
,,,,,,3.546331522,2.091,space,0.2022,0,16,16,42,1,43,image/43.jpg,0,0,,R_1lsKKVQpKnRQfFs,2,2024-05-14_13h21.57.983,face trait task,2021.2.3,MacIntel,59.88023952,120644,,,,,,,
,,,,,,3.99719769,1.7334,space,0.1903,0,17,17,31,1,32,image/32.jpg,0,0,,R_1lsKKVQpKnRQfFs,2,2024-05-14_13h21.57.983,face trait task,2021.2.3,MacIntel,59.88023952,120644,,,,,,,
,,,,,,6.979925272,2.2468,space,0.4192,0,18,18,51,1,58,image/fill_img.png,1,7,Please move the slider all the way to the RIGHT to show that you are paying attention.,R_1lsKKVQpKnRQfFs,2,2024-05-14_13h21.57.983,face trait task,2021.2.3,MacIntel,59.88023952,120644,,,,,,,
,,,,,,2.007608696,1.7027,space,0.5358,0,19,19,13,1,14,image/14.jpg,0,0,,R_1lsKKVQpKnRQfFs,2,2024-05-14_13h21.57.983,face trait task,2021.2.3,MacIntel,59.88023952,120644,,,,,,,
,,,,,,4.997902514,1.982,space,0.2385,0,20,20,43,1,44,image/44.jpg,0,0,,R_1lsKKVQpKnRQfFs,2,2024-05-14_13h21.57.983,face trait task,2021.2.3,MacIntel,59.88023952,120644,,,,,,,
,,,,,,4.479093071,1.9087,space,0.2305,0,21,21,24,1,25,image/25.jpg,0,0,,R_1lsKKVQpKnRQfFs,2,2024-05-14_13h21.57.983,face trait task,2021.2.3,MacIntel,59.88023952,120644,,,,,,,
,,,,,,3.544115149,1.4823,space,0.3575,0,22,22,49,1,50,image/50.jpg,0,0,,R_1lsKKVQpKnRQfFs,2,2024-05-14_13h21.57.983,face trait task,2021.2.3,MacIntel,59.88023952,120644,,,,,,,
,,,,,,6.948412024,1.6646,space,2.9508,0,23,23,50,1,61,image/fill_img.png,1,7,Please move the slider all the way to the RIGHT to show that you are paying attention.,R_1lsKKVQpKnRQfFs,2,2024-05-14_13h21.57.983,face trait task,2021.2.3,MacIntel,59.88023952,120644,,,,,,,
,,,,,,3.494361413,1.8217,space,0.2509,0,24,24,40,1,41,image/41.jpg,0,0,,R_1lsKKVQpKnRQfFs,2,2024-05-14_13h21.57.983,face trait task,2021.2.3,MacIntel,59.88023952,120644,,,,,,,
,,,,,,3.525543478,1.7751,space,2.8505,0,25,25,47,1,48,image/48.jpg,0,0,,R_1lsKKVQpKnRQfFs,2,2024-05-14_13h21.57.983,face trait task,2021.2.3,MacIntel,59.88023952,120644,,,,,,,
,,,,,,3.525543478,5.7191,space,0.3862,0,26,26,12,1,13,image/13.jpg,0,0,,R_1lsKKVQpKnRQfFs,2,2024-05-14_13h21.57.983,face trait task,2021.2.3,MacIntel,59.88023952,120644,,,,,,,
,,,,,,3.981734035,2.1463,space,0.2359,0,27,27,5,1,6,image/6.jpg,0,0,,R_1lsKKVQpKnRQfFs,2,2024-05-14_13h21.57.983,face trait task,2021.2.3,MacIntel,59.88023952,120644,,,,,,,
,,,,,,2.017977242,2.0323,space,0.3865,0,28,28,16,1,17,image/17.jpg,0,0,,R_1lsKKVQpKnRQfFs,2,2024-05-14_13h21.57.983,face trait task,2021.2.3,MacIntel,59.88023952,120644,,,,,,,
,,,,,,3.028337296,2.0194,space,0.3717,0,29,29,36,1,37,image/37.jpg,0,0,,R_1lsKKVQpKnRQfFs,2,2024-05-14_13h21.57.983,face trait task,2021.2.3,MacIntel,59.88023952,120644,,,,,,,
,,,,,,2.986430027,1.3311,space,0.218,0,30,30,37,1,38,image/38.jpg,0,0,,R_1lsKKVQpKnRQfFs,2,2024-05-14_13h21.57.983,face trait task,2021.2.3,MacIntel,59.88023952,120644,,,,,,,
,,,,,,3.498106318,1.6809,space,0.1909,0,31,31,26,1,27,image/27.jpg,0,0,,R_1lsKKVQpKnRQfFs,2,2024-05-14_13h21.57.983,face trait task,2021.2.3,MacIntel,59.88023952,120644,,,,,,,
,,,,,,4.027742867,2.7306,space,0.2512,0,32,32,35,1,36,image/36.jpg,0,0,,R_1lsKKVQpKnRQfFs,2,2024-05-14_13h21.57.983,face trait task,2021.2.3,MacIntel,59.88023952,120644,,,,,,,
,,,,,,3.475764266,1.5141,space,0.5407,0,33,33,18,1,19,image/19.jpg,0,0,,R_1lsKKVQpKnRQfFs,2,2024-05-14_13h21.57.983,face trait task,2021.2.3,MacIntel,59.88023952,120644,,,,,,,
,,,,,,3.00459409,1.4656,space,0.3981,0,34,34,21,1,22,image/22.jpg,0,0,,R_1lsKKVQpKnRQfFs,2,2024-05-14_13h21.57.983,face trait task,2021.2.3,MacIntel,59.88023952,120644,,,,,,,
,,,,,,3.499787704,1.9713,space,0.3375,0,35,35,30,1,31,image/31.jpg,0,0,,R_1lsKKVQpKnRQfFs,2,2024-05-14_13h21.57.983,face trait task,2021.2.3,MacIntel,59.88023952,120644,,,,,,,
,,,,,,3.514690897,2.7512,space,0.2683,0,36,36,0,1,1,image/1.jpg,0,0,,R_1lsKKVQpKnRQfFs,2,2024-05-14_13h21.57.983,face trait task,2021.2.3,MacIntel,59.88023952,120644,,,,,,,
,,,,,,4.983636209,2.2109,space,0.1967,0,37,37,7,1,8,image/8.jpg,0,0,,R_1lsKKVQpKnRQfFs,2,2024-05-14_13h21.57.983,face trait task,2021.2.3,MacIntel,59.88023952,120644,,,,,,,
,,,,,,3.02077106,2.1023,space,0.2628,0,38,38,19,1,20,image/20.jpg,0,0,,R_1lsKKVQpKnRQfFs,2,2024-05-14_13h21.57.983,face trait task,2021.2.3,MacIntel,59.88023952,120644,,,,,,,
,,,,,,3.000365149,2.8476,space,1.39,0,39,39,29,1,30,image/30.jpg,0,0,,R_1lsKKVQpKnRQfFs,2,2024-05-14_13h21.57.983,face trait task,2021.2.3,MacIntel,59.88023952,120644,,,,,,,
,,,,,,4.511778193,1.8527,space,0.2417,0,40,40,34,1,35,image/35.jpg,0,0,,R_1lsKKVQpKnRQfFs,2,2024-05-14_13h21.57.983,face trait task,2021.2.3,MacIntel,59.88023952,120644,,,,,,,
,,,,,,4.530349864,1.4702,space,0.2346,0,41,41,46,1,47,image/47.jpg,0,0,,R_1lsKKVQpKnRQfFs,2,2024-05-14_13h21.57.983,face trait task,2021.2.3,MacIntel,59.88023952,120644,,,,,,,
,,,,,,5.001341712,2.0887,space,0.2295,0,42,42,22,1,23,image/23.jpg,0,0,,R_1lsKKVQpKnRQfFs,2,2024-05-14_13h21.57.983,face trait task,2021.2.3,MacIntel,59.88023952,120644,,,,,,,
,,,,,,5.001341712,1.3517,space,0.3318,0,43,43,11,1,12,image/12.jpg,0,0,,R_1lsKKVQpKnRQfFs,2,2024-05-14_13h21.57.983,face trait task,2021.2.3,MacIntel,59.88023952,120644,,,,,,,
,,,,,,3.485495924,1.5511,space,0.3016,0,44,44,45,1,46,image/46.jpg,0,0,,R_1lsKKVQpKnRQfFs,2,2024-05-14_13h21.57.983,face trait task,2021.2.3,MacIntel,59.88023952,120644,,,,,,,
,,,,,,3.015650476,1.6258,space,0.5347,0,45,45,10,1,11,image/11.jpg,0,0,,R_1lsKKVQpKnRQfFs,2,2024-05-14_13h21.57.983,face trait task,2021.2.3,MacIntel,59.88023952,120644,,,,,,,
,,,,,,3.015650476,1.4347,space,0.2458,0,46,46,38,1,39,image/39.jpg,0,0,,R_1lsKKVQpKnRQfFs,2,2024-05-14_13h21.57.983,face trait task,2021.2.3,MacIntel,59.88023952,120644,,,,,,,
,,,,,,3.471255095,2.9015,space,1.5481,0,47,47,20,1,21,image/21.jpg,0,0,,R_1lsKKVQpKnRQfFs,2,2024-05-14_13h21.57.983,face trait task,2021.2.3,MacIntel,59.88023952,120644,,,,,,,
,,,,,,2.508355978,1.785,space,0.2878,0,48,48,8,1,9,image/9.jpg,0,0,,R_1lsKKVQpKnRQfFs,2,2024-05-14_13h21.57.983,face trait task,2021.2.3,MacIntel,59.88023952,120644,,,,,,,
,,,,,,4.023106318,1.7977,space,0.4344,0,49,49,41,1,42,image/42.jpg,0,0,,R_1lsKKVQpKnRQfFs,2,2024-05-14_13h21.57.983,face trait task,2021.2.3,MacIntel,59.88023952,120644,,,,,,,
,,,,,,4.000891644,1.9079,space,0.1684,0,50,50,17,1,18,image/18.jpg,0,0,,R_1lsKKVQpKnRQfFs,2,2024-05-14_13h21.57.983,face trait task,2021.2.3,MacIntel,59.88023952,120644,,,,,,,
,,,,,,4.525050951,2.7768,space,0.8694,0,51,51,3,1,4,image/4.jpg,0,0,,R_1lsKKVQpKnRQfFs,2,2024-05-14_13h21.57.983,face trait task,2021.2.3,MacIntel,59.88023952,120644,,,,,,,
,,,,,,2.017569633,3.5037,space,1.2911,0,52,52,23,1,24,image/24.jpg,0,0,,R_1lsKKVQpKnRQfFs,2,2024-05-14_13h21.57.983,face trait task,2021.2.3,MacIntel,59.88023952,120644,,,,,,,
,,,,,,,,,,,,,,,,,,,,R_1lsKKVQpKnRQfFs,2,2024-05-14_13h21.57.983,face trait task,2021.2.3,MacIntel,59.88023952,120644,0,1,1,3,1,3,friendly.png
,,,,,critical,6.971671196,2.1325,space,0.3514,0,0,0,50,1,61,image/fill_img.png,1,7,Please move the slider all the way to the RIGHT to show that you are paying attention.,R_1lsKKVQpKnRQfFs,2,2024-05-14_13h21.57.983,face trait task,2021.2.3,MacIntel,59.88023952,120644,,,,,,,
,,,,,,4.508338995,3.3443,space,0.3693,0,1,1,10,1,11,image/11.jpg,0,0,,R_1lsKKVQpKnRQfFs,2,2024-05-14_13h21.57.983,face trait task,2021.2.3,MacIntel,59.88023952,120644,,,,,,,
,,,,,,2.037797215,2.5808,space,0.3901,0,2,2,47,1,48,image/48.jpg,0,0,,R_1lsKKVQpKnRQfFs,2,2024-05-14_13h21.57.983,face trait task,2021.2.3,MacIntel,59.88023952,120644,,,,,,,
,,,,,,4.023029891,3.2175,space,0.2848,0,3,3,22,1,23,image/23.jpg,0,0,,R_1lsKKVQpKnRQfFs,2,2024-05-14_13h21.57.983,face trait task,2021.2.3,MacIntel,59.88023952,120644,,,,,,,
,,,,,,1.991100543,2.3026,space,0.5728,0,4,4,24,1,25,image/25.jpg,0,0,,R_1lsKKVQpKnRQfFs,2,2024-05-14_13h21.57.983,face trait task,2021.2.3,MacIntel,59.88023952,120644,,,,,,,
,,,,,,4.971509851,3.6888,space,1.2692,0,5,5,49,1,50,image/50.jpg,0,0,,R_1lsKKVQpKnRQfFs,2,2024-05-14_13h21.57.983,face trait task,2021.2.3,MacIntel,59.88023952,120644,,,,,,,
,,,,,,4.496976902,6.7906,space,0.8428,0,6,6,6,1,7,image/7.jpg,0,0,,R_1lsKKVQpKnRQfFs,2,2024-05-14_13h21.57.983,face trait task,2021.2.3,MacIntel,59.88023952,120644,,,,,,,
,,,,,,5.011506454,1.7135,space,0.2044,0,7,7,41,1,42,image/42.jpg,0,0,,R_1lsKKVQpKnRQfFs,2,2024-05-14_13h21.57.983,face trait task,2021.2.3,MacIntel,59.88023952,120644,,,,,,,
,,,,,,5.96709409,2.0238,space,0.3377,0,8,8,19,1,20,image/20.jpg,0,0,,R_1lsKKVQpKnRQfFs,2,2024-05-14_13h21.57.983,face trait task,2021.2.3,MacIntel,59.88023952,120644,,,,,,,
,,,,,,4.573581861,2.5702,space,0.5683,0,9,9,25,1,26,image/26.jpg,0,0,,R_1lsKKVQpKnRQfFs,2,2024-05-14_13h21.57.983,face trait task,2021.2.3,MacIntel,59.88023952,120644,,,,,,,
,,,,,,2.977997622,2.5655,space,0.2561,0,10,10,42,1,43,image/43.jpg,0,0,,R_1lsKKVQpKnRQfFs,2,2024-05-14_13h21.57.983,face trait task,2021.2.3,MacIntel,59.88023952,120644,,,,,,,
,,,,,,3.98170856,1.9696,space,0.4499,0,11,11,0,1,1,image/1.jpg,0,0,,R_1lsKKVQpKnRQfFs,2,2024-05-14_13h21.57.983,face trait task,2021.2.3,MacIntel,59.88023952,120644,,,,,,,
,,,,,,5.029415761,2.0167,space,0.3346,0,12,12,16,1,17,image/17.jpg,0,0,,R_1lsKKVQpKnRQfFs,2,2024-05-14_13h21.57.983,face trait task,2021.2.3,MacIntel,59.88023952,120644,,,,,,,
,,,,,,5.511565897,3.1213,space,0.2183,0,13,13,33,1,34,image/34.jpg,0,0,,R_1lsKKVQpKnRQfFs,2,2024-05-14_13h21.57.983,face trait task,2021.2.3,MacIntel,59.88023952,120644,,,,,,,
,,,,,,6.964410666,1.5936,space,0.2745,0,14,14,52,1,61,image/fill_img.png,1,7,Please move the slider all the way to the RIGHT to show that you are paying attention.,R_1lsKKVQpKnRQfFs,2,2024-05-14_13h21.57.983,face trait task,2021.2.3,MacIntel,59.88023952,120644,,,,,,,
,,,,,,4.534120245,2.4014,space,0.1878,0,15,15,5,1,6,image/6.jpg,0,0,,R_1lsKKVQpKnRQfFs,2,2024-05-14_13h21.57.983,face trait task,2021.2.3,MacIntel,59.88023952,120644,,,,,,,
,,,,,,4.001630435,3.8253,space,0.2023,0,16,16,15,1,16,image/16.jpg,0,0,,R_1lsKKVQpKnRQfFs,2,2024-05-14_13h21.57.983,face trait task,2021.2.3,MacIntel,59.88023952,120644,,,,,,,
,,,,,,3.574380095,1.896,space,0.336,0,17,17,43,1,44,image/44.jpg,0,0,,R_1lsKKVQpKnRQfFs,2,2024-05-14_13h21.57.983,face trait task,2021.2.3,MacIntel,59.88023952,120644,,,,,,,
,,,,,,5.954432745,1.7481,space,0.4809,0,18,18,7,1,8,image/8.jpg,0,0,,R_1lsKKVQpKnRQfFs,2,2024-05-14_13h21.57.983,face trait task,2021.2.3,MacIntel,59.88023952,120644,,,,,,,
,,,,,,4.540591033,2.5,space,0.1743,0,19,19,32,1,33,image/33.jpg,0,0,,R_1lsKKVQpKnRQfFs,2,2024-05-14_13h21.57.983,face trait task,2021.2.3,MacIntel,59.88023952,120644,,,,,,,
,,,,,,4.969115149,1.8322,space,0.3682,0,20,20,17,1,18,image/18.jpg,0,0,,R_1lsKKVQpKnRQfFs,2,2024-05-14_13h21.57.983,face trait task,2021.2.3,MacIntel,59.88023952,120644,,,,,,,
,,,,,,2.476154891,2.7837,space,0.1686,0,21,21,48,1,49,image/49.jpg,0,0,,R_1lsKKVQpKnRQfFs,2,2024-05-14_13h21.57.983,face trait task,2021.2.3,MacIntel,59.88023952,120644,,,,,,,
,,,,,,5.98138587,1.8828,space,0.717,0,22,22,14,1,15,image/15.jpg,0,0,,R_1lsKKVQpKnRQfFs,2,2024-05-14_13h21.57.983,face trait task,2021.2.3,MacIntel,59.88023952,120644,,,,,,,
,,,,,,3.504984715,5.4909,space,0.4148,0,23,23,38,1,39,image/39.jpg,0,0,,R_1lsKKVQpKnRQfFs,2,2024-05-14_13h21.57.983,face trait task,2021.2.3,MacIntel,59.88023952,120644,,,,,,,
,,,,,,5.458856997,4.0487,space,0.3259,0,24,24,3,1,4,image/4.jpg,0,0,,R_1lsKKVQpKnRQfFs,2,2024-05-14_13h21.57.983,face trait task,2021.2.3,MacIntel,59.88023952,120644,,,,,,,
,,,,,,3.043189538,2.0976,space,0.4187,0,25,25,36,1,37,image/37.jpg,0,0,,R_1lsKKVQpKnRQfFs,2,2024-05-14_13h21.57.983,face trait task,2021.2.3,MacIntel,59.88023952,120644,,,,,,,
,,,,,,3.971620245,1.7082,space,0.3336,0,26,26,29,1,30,image/30.jpg,0,0,,R_1lsKKVQpKnRQfFs,2,2024-05-14_13h21.57.983,face trait task,2021.2.3,MacIntel,59.88023952,120644,,,,,,,
,,,,,,3.480757473,1.83,space,0.4201,0,27,27,11,1,12,image/12.jpg,0,0,,R_1lsKKVQpKnRQfFs,2,2024-05-14_13h21.57.983,face trait task,2021.2.3,MacIntel,59.88023952,120644,,,,,,,
,,,,,,3.415234375,2.4852,space,0.2315,0,28,28,44,1,45,image/45.jpg,0,0,,R_1lsKKVQpKnRQfFs,2,2024-05-14_13h21.57.983,face trait task,2021.2.3,MacIntel,59.88023952,120644,,,,,,,
,,,,,,5.020320992,1.6851,space,0.2508,0,29,29,9,1,10,image/10.jpg,0,0,,R_1lsKKVQpKnRQfFs,2,2024-05-14_13h21.57.983,face trait task,2021.2.3,MacIntel,59.88023952,120644,,,,,,,
,,,,,,4.474889606,2.3979,space,0.9475,0,30,30,12,1,13,image/13.jpg,0,0,,R_1lsKKVQpKnRQfFs,2,2024-05-14_13h21.57.983,face trait task,2021.2.3,MacIntel,59.88023952,120644,,,,,,,
,,,,,,4.268079144,1.9821,space,0.3034,0,31,31,4,1,5,image/5.jpg,0,0,,R_1lsKKVQpKnRQfFs,2,2024-05-14_13h21.57.983,face trait task,2021.2.3,MacIntel,59.88023952,120644,,,,,,,
,,,,,,6.002530571,2.101,space,0.3019,0,32,32,18,1,19,image/19.jpg,0,0,,R_1lsKKVQpKnRQfFs,2,2024-05-14_13h21.57.983,face trait task,2021.2.3,MacIntel,59.88023952,120644,,,,,,,
,,,,,,3.622274117,3.2625,space,1.9848,0,33,33,46,1,47,image/47.jpg,0,0,,R_1lsKKVQpKnRQfFs,2,2024-05-14_13h21.57.983,face trait task,2021.2.3,MacIntel,59.88023952,120644,,,,,,,
,,,,,,2.980086617,2.6144,space,0.2172,0,34,34,28,1,29,image/29.jpg,0,0,,R_1lsKKVQpKnRQfFs,2,2024-05-14_13h21.57.983,face trait task,2021.2.3,MacIntel,59.88023952,120644,,,,,,,
,,,,,,2.620091712,1.6017,space,0.2395,0,35,35,8,1,9,image/9.jpg,0,0,,R_1lsKKVQpKnRQfFs,2,2024-05-14_13h21.57.983,face trait task,2021.2.3,MacIntel,59.88023952,120644,,,,,,,
,,,,,,2.496662704,2.2981,space,0.5677,0,36,36,26,1,27,image/27.jpg,0,0,,R_1lsKKVQpKnRQfFs,2,2024-05-14_13h21.57.983,face trait task,2021.2.3,MacIntel,59.88023952,120644,,,,,,,
,,,,,,4.671178668,4.2087,space,2.855,0,37,37,21,1,22,image/22.jpg,0,0,,R_1lsKKVQpKnRQfFs,2,2024-05-14_13h21.57.983,face trait task,2021.2.3,MacIntel,59.88023952,120644,,,,,,,
,,,,,,4.440523098,1.6887,space,0.2182,0,38,38,37,1,38,image/38.jpg,0,0,,R_1lsKKVQpKnRQfFs,2,2024-05-14_13h21.57.983,face trait task,2021.2.3,MacIntel,59.88023952,120644,,,,,,,
,,,,,,3.535529891,2.6891,space,0.2013,0,39,39,34,1,35,image/35.jpg,0,0,,R_1lsKKVQpKnRQfFs,2,2024-05-14_13h21.57.983,face trait task,2021.2.3,MacIntel,59.88023952,120644,,,,,,,
,,,,,,3.503405231,3.0336,space,0.3068,0,40,40,23,1,24,image/24.jpg,0,0,,R_1lsKKVQpKnRQfFs,2,2024-05-14_13h21.57.983,face trait task,2021.2.3,MacIntel,59.88023952,120644,,,,,,,
,,,,,,6.017077106,1.9797,space,0.2484,0,41,41,45,1,46,image/46.jpg,0,0,,R_1lsKKVQpKnRQfFs,2,2024-05-14_13h21.57.983,face trait task,2021.2.3,MacIntel,59.88023952,120644,,,,,,,
,,,,,,4.983865489,2.7881,space,0.2014,0,42,42,27,1,28,image/28.jpg,0,0,,R_1lsKKVQpKnRQfFs,2,2024-05-14_13h21.57.983,face trait task,2021.2.3,MacIntel,59.88023952,120644,,,,,,,
,,,,,,4.003668478,1.8323,space,0.2183,0,43,43,2,1,3,image/3.jpg,0,0,,R_1lsKKVQpKnRQfFs,2,2024-05-14_13h21.57.983,face trait task,2021.2.3,MacIntel,59.88023952,120644,,,,,,,
,,,,,,3.553235394,1.3239,space,0.7157,0,44,44,31,1,32,image/32.jpg,0,0,,R_1lsKKVQpKnRQfFs,2,2024-05-14_13h21.57.983,face trait task,2021.2.3,MacIntel,59.88023952,120644,,,,,,,
,,,,,,5.025594429,1.7479,space,0.3008,0,45,45,20,1,21,image/21.jpg,0,0,,R_1lsKKVQpKnRQfFs,2,2024-05-14_13h21.57.983,face trait task,2021.2.3,MacIntel,59.88023952,120644,,,,,,,
,,,,,,4.349855639,1.807,space,0.2052,0,46,46,40,1,41,image/41.jpg,0,0,,R_1lsKKVQpKnRQfFs,2,2024-05-14_13h21.57.983,face trait task,2021.2.3,MacIntel,59.88023952,120644,,,,,,,
,,,,,,6.927674932,1.6279,space,0.3015,0,47,47,51,1,58,image/fill_img.png,1,7,Please move the slider all the way to the RIGHT to show that you are paying attention.,R_1lsKKVQpKnRQfFs,2,2024-05-14_13h21.57.983,face trait task,2021.2.3,MacIntel,59.88023952,120644,,,,,,,
,,,,,,1.996042799,3.3132,space,0.2017,0,48,48,35,1,36,image/36.jpg,0,0,,R_1lsKKVQpKnRQfFs,2,2024-05-14_13h21.57.983,face trait task,2021.2.3,MacIntel,59.88023952,120644,,,,,,,
,,,,,,3.472911005,2.2975,space,0.3687,0,49,49,30,1,31,image/31.jpg,0,0,,R_1lsKKVQpKnRQfFs,2,2024-05-14_13h21.57.983,face trait task,2021.2.3,MacIntel,59.88023952,120644,,,,,,,
,,,,,,3.954984715,2.0907,space,0.6694,0,50,50,1,1,2,image/2.jpg,0,0,,R_1lsKKVQpKnRQfFs,2,2024-05-14_13h21.57.983,face trait task,2021.2.3,MacIntel,59.88023952,120644,,,,,,,
,,,,,,2.526443614,2.1655,space,0.2,0,51,51,39,1,40,image/40.jpg,0,0,,R_1lsKKVQpKnRQfFs,2,2024-05-14_13h21.57.983,face trait task,2021.2.3,MacIntel,59.88023952,120644,,,,,,,
,,,,,,1.992145041,1.3544,space,0.1728,0,52,52,13,1,14,image/14.jpg,0,0,,R_1lsKKVQpKnRQfFs,2,2024-05-14_13h21.57.983,face trait task,2021.2.3,MacIntel,59.88023952,120644,,,,,,,
,,,,,,,,,,,,,,,,,,,,R_1lsKKVQpKnRQfFs,2,2024-05-14_13h21.57.983,face trait task,2021.2.3,MacIntel,59.88023952,120644,0,2,2,0,1,0,critical.png
,,,,,trustworthy,5.004959239,1.8876,space,0.2018,0,0,0,17,1,18,image/18.jpg,0,0,,R_1lsKKVQpKnRQfFs,2,2024-05-14_13h21.57.983,face trait task,2021.2.3,MacIntel,59.88023952,120644,,,,,,,
,,,,,,4.568410326,1.8014,space,0.2022,0,1,1,46,1,47,image/47.jpg,0,0,,R_1lsKKVQpKnRQfFs,2,2024-05-14_13h21.57.983,face trait task,2021.2.3,MacIntel,59.88023952,120644,,,,,,,
,,,,,,3.00859375,2.2335,space,0.1822,0,2,2,33,1,34,image/34.jpg,0,0,,R_1lsKKVQpKnRQfFs,2,2024-05-14_13h21.57.983,face trait task,2021.2.3,MacIntel,59.88023952,120644,,,,,,,
,,,,,,3.978778872,1.9812,space,0.2188,0,3,3,20,1,21,image/21.jpg,0,0,,R_1lsKKVQpKnRQfFs,2,2024-05-14_13h21.57.983,face trait task,2021.2.3,MacIntel,59.88023952,120644,,,,,,,
,,,,,,2.976647418,2.6147,space,0.2468,0,4,4,32,1,33,image/33.jpg,0,0,,R_1lsKKVQpKnRQfFs,2,2024-05-14_13h21.57.983,face trait task,2021.2.3,MacIntel,59.88023952,120644,,,,,,,
,,,,,,3.990625,4.8322,space,0.2043,0,5,5,47,1,48,image/48.jpg,0,0,,R_1lsKKVQpKnRQfFs,2,2024-05-14_13h21.57.983,face trait task,2021.2.3,MacIntel,59.88023952,120644,,,,,,,
,,,,,,3.03860394,1.9665,space,0.3872,0,6,6,15,1,16,image/16.jpg,0,0,,R_1lsKKVQpKnRQfFs,2,2024-05-14_13h21.57.983,face trait task,2021.2.3,MacIntel,59.88023952,120644,,,,,,,
,,,,,,3.51810462,3.7596,space,0.1396,0,7,7,29,1,30,image/30.jpg,0,0,,R_1lsKKVQpKnRQfFs,2,2024-05-14_13h21.57.983,face trait task,2021.2.3,MacIntel,59.88023952,120644,,,,,,,
,,,,,,4.447809103,1.9698,space,0.2349,0,8,8,49,1,50,image/50.jpg,0,0,,R_1lsKKVQpKnRQfFs,2,2024-05-14_13h21.57.983,face trait task,2021.2.3,MacIntel,59.88023952,120644,,,,,,,
,,,,,,6.966881793,2.0078,space,0.3847,0,9,9,51,1,58,image/fill_img.png,1,7,Please move the slider all the way to the RIGHT to show that you are paying attention.,R_1lsKKVQpKnRQfFs,2,2024-05-14_13h21.57.983,face trait task,2021.2.3,MacIntel,59.88023952,120644,,,,,,,
,,,,,,4.280944293,2.1657,space,0.2032,0,10,10,21,1,22,image/22.jpg,0,0,,R_1lsKKVQpKnRQfFs,2,2024-05-14_13h21.57.983,face trait task,2021.2.3,MacIntel,59.88023952,120644,,,,,,,
,,,,,,3.01539572,2.9271,space,0.21,0,11,11,34,1,35,image/35.jpg,0,0,,R_1lsKKVQpKnRQfFs,2,2024-05-14_13h21.57.983,face trait task,2021.2.3,MacIntel,59.88023952,120644,,,,,,,
,,,,,,4.493206522,6.6509,space,2.9565,0,12,12,6,1,7,image/7.jpg,0,0,,R_1lsKKVQpKnRQfFs,2,2024-05-14_13h21.57.983,face trait task,2021.2.3,MacIntel,59.88023952,120644,,,,,,,
,,,,,,4.038620924,2.3962,space,0.2512,0,13,13,42,1,43,image/43.jpg,0,0,,R_1lsKKVQpKnRQfFs,2,2024-05-14_13h21.57.983,face trait task,2021.2.3,MacIntel,59.88023952,120644,,,,,,,
,,,,,,4.483474864,2.3921,space,0.1513,0,14,14,10,1,11,image/11.jpg,0,0,,R_1lsKKVQpKnRQfFs,2,2024-05-14_13h21.57.983,face trait task,2021.2.3,MacIntel,59.88023952,120644,,,,,,,
,,,,,,3.992561141,2.189,space,0.6677,0,15,15,28,1,29,image/29.jpg,0,0,,R_1lsKKVQpKnRQfFs,2,2024-05-14_13h21.57.983,face trait task,2021.2.3,MacIntel,59.88023952,120644,,,,,,,
,,,,,,3.510487432,2.5641,space,0.5019,0,16,16,19,1,20,image/20.jpg,0,0,,R_1lsKKVQpKnRQfFs,2,2024-05-14_13h21.57.983,face trait task,2021.2.3,MacIntel,59.88023952,120644,,,,,,,
,,,,,,3.967544158,3.5679,space,0.7187,0,17,17,30,1,31,image/31.jpg,0,0,,R_1lsKKVQpKnRQfFs,2,2024-05-14_13h21.57.983,face trait task,2021.2.3,MacIntel,59.88023952,120644,,,,,,,
,,,,,,4.488493546,1.935,space,0.3514,0,18,18,43,1,44,image/44.jpg,0,0,,R_1lsKKVQpKnRQfFs,2,2024-05-14_13h21.57.983,face trait task,2021.2.3,MacIntel,59.88023952,120644,,,,,,,
,,,,,,4.488111413,3.3505,space,0.7637,0,19,19,25,1,26,image/26.jpg,0,0,,R_1lsKKVQpKnRQfFs,2,2024-05-14_13h21.57.983,face trait task,2021.2.3,MacIntel,59.88023952,120644,,,,,,,
,,,,,,6.898658288,3.1221,space,1.8389,0,20,20,50,1,61,image/fill_img.png,1,7,Please move the slider all the way to the RIGHT to show that you are paying attention.,R_1lsKKVQpKnRQfFs,2,2024-05-14_13h21.57.983,face trait task,2021.2.3,MacIntel,59.88023952,120644,,,,,,,
,,,,,,4.544819973,7.924,space,0.3697,0,21,21,1,1,2,image/2.jpg,0,0,,R_1lsKKVQpKnRQfFs,2,2024-05-14_13h21.57.983,face trait task,2021.2.3,MacIntel,59.88023952,120644,,,,,,,
,,,,,,3.520881454,1.8792,space,0.3688,0,22,22,12,1,13,image/13.jpg,0,0,,R_1lsKKVQpKnRQfFs,2,2024-05-14_13h21.57.983,face trait task,2021.2.3,MacIntel,59.88023952,120644,,,,,,,
,,,,,,3.490081522,2.0482,space,1.4731,0,23,23,7,1,8,image/8.jpg,0,0,,R_1lsKKVQpKnRQfFs,2,2024-05-14_13h21.57.983,face trait task,2021.2.3,MacIntel,59.88023952,120644,,,,,,,
,,,,,,6.95712466,2.3969,space,0.4343,0,24,24,52,1,61,image/fill_img.png,1,7,Please move the slider all the way to the RIGHT to show that you are paying attention.,R_1lsKKVQpKnRQfFs,2,2024-05-14_13h21.57.983,face trait task,2021.2.3,MacIntel,59.88023952,120644,,,,,,,
,,,,,,4.001910666,4.5659,space,0.6676,0,25,25,26,1,27,image/27.jpg,0,0,,R_1lsKKVQpKnRQfFs,2,2024-05-14_13h21.57.983,face trait task,2021.2.3,MacIntel,59.88023952,120644,,,,,,,
,,,,,,3.528498641,7.2287,space,0.5068,0,26,26,37,1,38,image/38.jpg,0,0,,R_1lsKKVQpKnRQfFs,2,2024-05-14_13h21.57.983,face trait task,2021.2.3,MacIntel,59.88023952,120644,,,,,,,
,,,,,,4.486990489,7.1009,space,1.031,0,27,27,41,1,42,image/42.jpg,0,0,,R_1lsKKVQpKnRQfFs,2,2024-05-14_13h21.57.983,face trait task,2021.2.3,MacIntel,59.88023952,120644,,,,,,,
,,,,,,2.020015285,1.7571,space,0.3012,0,28,28,40,1,41,image/41.jpg,0,0,,R_1lsKKVQpKnRQfFs,2,2024-05-14_13h21.57.983,face trait task,2021.2.3,MacIntel,59.88023952,120644,,,,,,,
,,,,,,3.843096128,3.7678,space,0.7177,0,29,29,38,1,39,image/39.jpg,0,0,,R_1lsKKVQpKnRQfFs,2,2024-05-14_13h21.57.983,face trait task,2021.2.3,MacIntel,59.88023952,120644,,,,,,,
,,,,,,5.029161005,1.6976,space,0.3909,0,30,30,24,1,25,image/25.jpg,0,0,,R_1lsKKVQpKnRQfFs,2,2024-05-14_13h21.57.983,face trait task,2021.2.3,MacIntel,59.88023952,120644,,,,,,,
,,,,,,4.033423913,2.0801,space,0.2748,0,31,31,8,1,9,image/9.jpg,0,0,,R_1lsKKVQpKnRQfFs,2,2024-05-14_13h21.57.983,face trait task,2021.2.3,MacIntel,59.88023952,120644,,,,,,,
,,,,,,3.554381793,1.7921,space,0.2197,0,32,32,2,1,3,image/3.jpg,0,0,,R_1lsKKVQpKnRQfFs,2,2024-05-14_13h21.57.983,face trait task,2021.2.3,MacIntel,59.88023952,120644,,,,,,,
,,,,,,3.582837976,2.4354,space,0.1643,0,33,33,39,1,40,image/40.jpg,0,0,,R_1lsKKVQpKnRQfFs,2,2024-05-14_13h21.57.983,face trait task,2021.2.3,MacIntel,59.88023952,120644,,,,,,,
,,,,,,2.995881454,3.3429,space,2.03,0,34,34,44,1,45,image/45.jpg,0,0,,R_1lsKKVQpKnRQfFs,2,2024-05-14_13h21.57.983,face trait task,2021.2.3,MacIntel,59.88023952,120644,,,,,,,
,,,,,,2.992263927,2.6818,space,0.162,0,35,35,14,1,15,image/15.jpg,0,0,,R_1lsKKVQpKnRQfFs,2,2024-05-14_13h21.57.983,face trait task,2021.2.3,MacIntel,59.88023952,120644,,,,,,,
,,,,,,3.971594769,3.3003,space,0.2295,0,36,36,9,1,10,image/10.jpg,0,0,,R_1lsKKVQpKnRQfFs,2,2024-05-14_13h21.57.983,face trait task,2021.2.3,MacIntel,59.88023952,120644,,,,,,,
,,,,,,3.990064538,10.0792,space,0.1935,0,37,37,48,1,49,image/49.jpg,0,0,,R_1lsKKVQpKnRQfFs,2,2024-05-14_13h21.57.983,face trait task,2021.2.3,MacIntel,59.88023952,120644,,,,,,,
,,,,,,3.013918139,7.7412,space,0.73,0,38,38,22,1,23,image/23.jpg,0,0,,R_1lsKKVQpKnRQfFs,2,2024-05-14_13h21.57.983,face trait task,2021.2.3,MacIntel,59.88023952,120644,,,,,,,
,,,,,,4.017730978,3.2527,space,0.3476,0,39,39,35,1,36,image/36.jpg,0,0,,R_1lsKKVQpKnRQfFs,2,2024-05-14_13h21.57.983,face trait task,2021.2.3,MacIntel,59.88023952,120644,,,,,,,
,,,,,,2.99264606,2.901,space,1.1685,0,40,40,13,1,14,image/14.jpg,0,0,,R_1lsKKVQpKnRQfFs,2,2024-05-14_13h21.57.983,face trait task,2021.2.3,MacIntel,59.88023952,120644,,,,,,,
,,,,,,3.429016644,7.1334,space,0.316,0,41,41,3,1,4,image/4.jpg,0,0,,R_1lsKKVQpKnRQfFs,2,2024-05-14_13h21.57.983,face trait task,2021.2.3,MacIntel,59.88023952,120644,,,,,,,
,,,,,,3.429016644,7.7091,space,0.3031,0,42,42,31,1,32,image/32.jpg,0,0,,R_1lsKKVQpKnRQfFs,2,2024-05-14_13h21.57.983,face trait task,2021.2.3,MacIntel,59.88023952,120644,,,,,,,
,,,,,,3.463892663,2.1639,space,12.1638,0,43,43,45,1,46,image/46.jpg,0,0,,R_1lsKKVQpKnRQfFs,2,2024-05-14_13h21.57.983,face trait task,2021.2.3,MacIntel,59.88023952,120644,,,,,,,
,,,,,,3.529874321,5.1054,space,0.4004,0,44,44,36,1,37,image/37.jpg,0,0,,R_1lsKKVQpKnRQfFs,2,2024-05-14_13h21.57.983,face trait task,2021.2.3,MacIntel,59.88023952,120644,,,,,,,
,,,,,,3.54016644,1.2149,space,0.1547,0,45,45,27,1,28,image/28.jpg,0,0,,R_1lsKKVQpKnRQfFs,2,2024-05-14_13h21.57.983,face trait task,2021.2.3,MacIntel,59.88023952,120644,,,,,,,
,,,,,,3.979670516,2.2338,space,0.2545,0,46,46,23,1,24,image/24.jpg,0,0,,R_1lsKKVQpKnRQfFs,2,2024-05-14_13h21.57.983,face trait task,2021.2.3,MacIntel,59.88023952,120644,,,,,,,
,,,,,,3.542713995,1.2006,space,0.1388,0,47,47,16,1,17,image/17.jpg,0,0,,R_1lsKKVQpKnRQfFs,2,2024-05-14_13h21.57.983,face trait task,2021.2.3,MacIntel,59.88023952,120644,,,,,,,
,,,,,,4.528795856,2.372,space,0.2347,0,48,48,11,1,12,image/12.jpg,0,0,,R_1lsKKVQpKnRQfFs,2,2024-05-14_13h21.57.983,face trait task,2021.2.3,MacIntel,59.88023952,120644,,,,,,,
,,,,,,4.517688519,1.9994,space,0.5214,0,49,49,5,1,6,image/6.jpg,0,0,,R_1lsKKVQpKnRQfFs,2,2024-05-14_13h21.57.983,face trait task,2021.2.3,MacIntel,59.88023952,120644,,,,,,,
,,,,,,4.419735054,5.1672,space,0.3178,0,50,50,4,1,5,image/5.jpg,0,0,,R_1lsKKVQpKnRQfFs,2,2024-05-14_13h21.57.983,face trait task,2021.2.3,MacIntel,59.88023952,120644,,,,,,,
,,,,,,3.39251019,2.9182,space,0.3399,0,51,51,18,1,19,image/19.jpg,0,0,,R_1lsKKVQpKnRQfFs,2,2024-05-14_13h21.57.983,face trait task,2021.2.3,MacIntel,59.88023952,120644,,,,,,,
,,,,,,3.983007813,2.5193,space,0.3045,0,52,52,0,1,1,image/1.jpg,0,0,,R_1lsKKVQpKnRQfFs,2,2024-05-14_13h21.57.983,face trait task,2021.2.3,MacIntel,59.88023952,120644,,,,,,,
,,,,,,,,,,,,,,,,,,,,R_1lsKKVQpKnRQfFs,2,2024-05-14_13h21.57.983,face trait task,2021.2.3,MacIntel,59.88023952,120644,0,3,3,2,1,2,trustworthy.png
