chooserow,ParID,pre_instru_resp_2.keys,pre_instru_resp_2.rt,pre_instru_resp_3.keys,pre_instru_resp_3.rt,pre_instru_resp_9.keys,pre_instru_resp_9.rt,pre_instru_resp_8.keys,pre_instru_resp_8.rt,pre_instru_resp_4.keys,pre_instru_resp_4.rt,pre_instru_resp_5.keys,pre_instru_resp_5.rt,pre_instru_resp_6.keys,pre_instru_resp_6.rt,key_resp_3.keys,key_resp_3.rt,key_resp_4.keys,key_resp_4.rt,key_resp_5.keys,key_resp_5.rt,key_resp_6.keys,key_resp_6.rt,key_resp_7.keys,key_resp_7.rt,trials_2.thisRepN,trials_2.thisTrialN,trials_2.thisN,trials_2.thisIndex,trials_2.ran,participant,session,date,expName,psychopyVersion,OS,frameRate,SONAid,pre_instru_resp.keys,pre_instru_resp.rt,clicked,judge_2.x,judge_2.y,judge_2.leftButton,judge_2.midButton,judge_2.rightButton,judge_2.clicked_name,trials.thisRepN,trials.thisTrialN,trials.thisN,trials.thisIndex,trials.ran,prac_answer,prac_dot_sti,dotlefttext,dotrighttext,prac_acc,judge.x,judge.y,judge.leftButton,judge.midButton,judge.rightButton,judge.clicked_name,clicked_guilt,slider_guilt.response,slider_guilt.rt,key_guilt.keys,key_guilt.rt,share_slider.response,share_slider.rt,key_share.keys,slider_apology.response,slider_apology.rt,key_apology.keys,slider_hide.response,slider_hide.rt,slider_forgiveness.response,slider_forgiveness.rt,key_forgiveness.keys,slider_mad.response,slider_mad.rt,trialseq.thisRepN,trialseq.thisTrialN,trialseq.thisN,trialseq.thisIndex,trialseq.ran,type_trial,stipic,DV,picture,answer,number,key_forgiveness.rt,key_apology.rt,key_share.rt,incompleteTrials,trials_redo.thisRepN,trials_redo.thisTrialN,trials_redo.thisN,trials_redo.thisIndex,trials_redo.ran
"[149,86,142,8,185,77,124,144,102,120,107,156,136,130,76,87,26,170,19,60,191,114,83,168,189,54,178,55,165,101,133,152,92,162,201,67,116,44,110,66,193,58]",R_1m9l4nPkPn7qKin,space,1.1782,space,1.4849,space,1.5995,space,3.9196,space,2.7324,space,3.258,space,3.2551,2,7.8855,3,7.3531,2,12.2157,2,8.235,3,2.7103,0,0,0,0,1,R_1m9l4nPkPn7qKin,1,2024-05-31_15h42.14.918,interaction task,2021.2.3,MacIntel,59.88023952,120318,,,,,,,,,,,,,,,,,,,,,,,,,,,,,,,,,,,,,,,,,,,,,,,,,,,,,,,,,,,,,,,
,,,,space,2.3746,space,9.324,space,13.6006,space,9364.6534,space,8.1543,space,1.6998,1,5.0448,1,5.9519,2,7.4292,1,30.208,2,4.0265,1,0,1,0,1,R_1m9l4nPkPn7qKin,1,2024-05-31_15h42.14.918,interaction task,2021.2.3,MacIntel,59.88023952,120318,,,,,,,,,,,,,,,,,,,,,,,,,,,,,,,,,,,,,,,,,,,,,,,,,,,,,,,,,,,,,,,
,,,,space,1.4181,space,4.4926,space,4.1154,space,0.5384,space,1.1131,space,0.9833,3,2.1974,1,2.5804,3,5.5818,1,3.5041,2,2.1982,2,0,2,0,1,R_1m9l4nPkPn7qKin,1,2024-05-31_15h42.14.918,interaction task,2021.2.3,MacIntel,59.88023952,120318,,,,,,,,,,,,,,,,,,,,,,,,,,,,,,,,,,,,,,,,,,,,,,,,,,,,,,,,,,,,,,,
,,,,space,7.0283,space,103.5331,space,7.1554,space,0.5859,space,12.2821,space,3.5142,3,1.711,1,1.6628,3,2.2297,3,1.4,2,1.5842,3,0,3,0,1,R_1m9l4nPkPn7qKin,1,2024-05-31_15h42.14.918,interaction task,2021.2.3,MacIntel,59.88023952,120318,,,,,,,,,,,,,,,,,,,,,,,,,,,,,,,,,,,,,,,,,,,,,,,,,,,,,,,,,,,,,,,
,,,,space,35.721,space,0.5355,space,0.3817,space,0.2294,space,5.2985,space,1.917,3,1.483,1,1.0651,3,1.581,2,5.7313,2,0.8954,4,0,4,0,1,R_1m9l4nPkPn7qKin,1,2024-05-31_15h42.14.918,interaction task,2021.2.3,MacIntel,59.88023952,120318,,,,,,,,,,,,,,,,,,,,,,,,,,,,,,,,,,,,,,,,,,,,,,,,,,,,,,,,,,,,,,,
,,,,,,,,,,,,,,,,,,,,,,,,,,,,,,,R_1m9l4nPkPn7qKin,1,2024-05-31_15h42.14.918,interaction task,2021.2.3,MacIntel,59.88023952,120318,space,3.4518,"[""LeftButton_2""]",-0.280609809,-0.349339883,1,0,0,LeftButton_2,0,0,0,0,1,LeftButton_2,9dot2.png,Smaller,Greater,,,,,,,,,,,,,,,,,,,,,,,,,,,,,,,,,,,,,,,,,,,,,
,,,,,,,,,,,,,,,,,,,,,,,,,,,,,,,R_1m9l4nPkPn7qKin,1,2024-05-31_15h42.14.918,interaction task,2021.2.3,MacIntel,59.88023952,120318,,,"[""LeftButton_2""]",-0.328781467,-0.332136824,1,0,0,LeftButton_2,0,1,1,2,1,RightButton_2,11dot2.png,Smaller,Greater,,,,,,,,,,,,,,,,,,,,,,,,,,,,,,,,,,,,,,,,,,,,,
,,,,,,,,,,,,,,,,,,,,,,,,,,,,,,,R_1m9l4nPkPn7qKin,1,2024-05-31_15h42.14.918,interaction task,2021.2.3,MacIntel,59.88023952,120318,,,"[""LeftButton_2""]",-0.267057292,-0.340104908,1,0,0,LeftButton_2,0,2,2,1,1,LeftButton_2,9dot2.png,Smaller,Greater,,,,,,,,,,,,,,,,,,,,,,,,,,,,,,,,,,,,,,,,,,,,,
,,,,,,,,,,,,,,,,,,,,,,,,,,,,,,,R_1m9l4nPkPn7qKin,1,2024-05-31_15h42.14.918,interaction task,2021.2.3,MacIntel,59.88023952,120318,,,,,,,,,,,,,,,,,Greater,Smaller,0.4,0.311376953,-0.491354018,1,0,0,RightButton,"[""RightButton""]",1,3.7051,space,1.2673,,,,,,,,,,,,,,0,0,0,0,1,3,only_sub_wrong.png,0,RandomDot24.png,No answer,20,,,,,,,,,
,,,,,,,,,,,,,,,,,,,,,,,,,,,,,,,R_1m9l4nPkPn7qKin,1,2024-05-31_15h42.14.918,interaction task,2021.2.3,MacIntel,59.88023952,120318,,,,,,,,,,,,,,,,,Greater,Smaller,,-0.233213976,-0.476907006,1,0,0,LeftButton,"[""LeftButton""]",,,,,,,,,,,,,79.13630664,10.4852,space,22.53130261,15.1157,0,1,1,1,1,1,both_wrong.png,3,RandomDot13.png,No answer,21,1.8339,,,,,,,,
,,,,,,,,,,,,,,,,,,,,,,,,,,,,,,,R_1m9l4nPkPn7qKin,1,2024-05-31_15h42.14.918,interaction task,2021.2.3,MacIntel,59.88023952,120318,,,,,,,,,,,,,,,,,Smaller,Greater,,0.36226671,-0.499466572,1,0,0,RightButton,"[""RightButton""]",,,,,,,,,,,,,27.18504489,8.8713,space,39.7959631,14.7667,0,2,2,2,1,2,only_sub_right.png,3,RandomDot18.png,No answer,20,2.2688,,,,,,,,
,,,,,,,,,,,,,,,,,,,,,,,,,,,,,,,R_1m9l4nPkPn7qKin,1,2024-05-31_15h42.14.918,interaction task,2021.2.3,MacIntel,59.88023952,120318,,,,,,,,,,,,,,,,,Smaller,Greater,,-0.295735677,-0.515224929,1,0,0,LeftButton,"[""LeftButton""]",,,,,,,,,,,,,,,,,,0,3,3,3,1,0,both_right.png,0,RandomDot15.png,No answer,21,,,,,,,,,
,,,,,,,,,,,,,,,,,,,,,,,,,,,,,,,R_1m9l4nPkPn7qKin,1,2024-05-31_15h42.14.918,interaction task,2021.2.3,MacIntel,59.88023952,120318,,,,,,,,,,,,,,,,,Greater,Smaller,,0.339648438,-0.487742265,1,0,0,RightButton,"[""RightButton""]",,,,,,,,,,,,,30.30763363,1.2179,space,30.36901129,4.3191,0,4,4,4,1,3,only_sub_wrong.png,3,RandomDot34.png,No answer,20,0.8909,,,,,,,,
,,,,,,,,,,,,,,,,,,,,,,,,,,,,,,,R_1m9l4nPkPn7qKin,1,2024-05-31_15h42.14.918,interaction task,2021.2.3,MacIntel,59.88023952,120318,,,,,,,,,,,,,,,,,Greater,Smaller,,-0.269053819,-0.51785873,1,0,0,LeftButton,"[""LeftButton""]",,,,,,,,33,1.445,space,39,2.4036,,,,,,0,5,5,5,1,1,both_wrong.png,2,RandomDot13.png,No answer,21,,0.8024,,,,,,,
,,,,,,,,,,,,,,,,,,,,,,,,,,,,,,,R_1m9l4nPkPn7qKin,1,2024-05-31_15h42.14.918,interaction task,2021.2.3,MacIntel,59.88023952,120318,,,,,,,,,,,,,,,,,Greater,Smaller,,-0.290353733,-0.490553876,1,0,0,LeftButton,"[""LeftButton""]",,,,,,,,34,2.2691,space,33,1.376,,,,,,0,6,6,6,1,2,only_sub_right.png,2,RandomDot20.png,No answer,20,,0.8331,,,,,,,
,,,,,,,,,,,,,,,,,,,,,,,,,,,,,,,R_1m9l4nPkPn7qKin,1,2024-05-31_15h42.14.918,interaction task,2021.2.3,MacIntel,59.88023952,120318,,,,,,,,,,,,,,,,,Greater,Smaller,,-0.241330295,-0.507434655,1,0,0,LeftButton,"[""LeftButton""]",37,1.9396,space,1.2417,,,,,,,,,,,,,,0,7,7,7,1,3,only_sub_wrong.png,0,RandomDot33.png,No answer,19,,,,,,,,,
,,,,,,,,,,,,,,,,,,,,,,,,,,,,,,,R_1m9l4nPkPn7qKin,1,2024-05-31_15h42.14.918,interaction task,2021.2.3,MacIntel,59.88023952,120318,,,,,,,,,,,,,,,,,Smaller,Greater,,-0.23203125,-0.536228663,1,0,0,LeftButton,"[""LeftButton""]",39,1.7106,space,1.1691,,,,,,,,,,,,,,0,8,8,8,1,2,only_sub_right.png,0,RandomDot16.png,No answer,21,,,,,,,,,
,,,,,,,,,,,,,,,,,,,,,,,,,,,,,,,R_1m9l4nPkPn7qKin,1,2024-05-31_15h42.14.918,interaction task,2021.2.3,MacIntel,59.88023952,120318,,,,,,,,,,,,,,,,,Greater,Smaller,,-0.283213976,-0.530649893,1,0,0,LeftButton,"[""LeftButton""]",,,,,,,,39,2.9034,space,40,4.3225,,,,,,0,9,9,9,1,2,only_sub_right.png,2,RandomDot21.png,No answer,21,,0.5217,,,,,,,
,,,,,,,,,,,,,,,,,,,,,,,,,,,,,,,R_1m9l4nPkPn7qKin,1,2024-05-31_15h42.14.918,interaction task,2021.2.3,MacIntel,59.88023952,120318,,,,,,,,,,,,,,,,,Smaller,Greater,,0.285997179,-0.521370466,1,0,0,RightButton,"[""RightButton""]",37,1.21,space,0.9389,,,,,,,,,,,,,,0,10,10,10,1,2,only_sub_right.png,0,RandomDot37.png,No answer,21,,,,,,,,,
,,,,,,,,,,,,,,,,,,,,,,,,,,,,,,,R_1m9l4nPkPn7qKin,1,2024-05-31_15h42.14.918,interaction task,2021.2.3,MacIntel,59.88023952,120318,,,,,,,,,,,,,,,,,Greater,Smaller,,0.257850477,-0.506823435,1,0,0,RightButton,"[""RightButton""]",,,,,4.969211155,13.9794,space,,,,,,,,,,,0,11,11,11,1,3,only_sub_wrong.png,1,RandomDot4.png,No answer,20,,,1.8785,,,,,,
,,,,,,,,,,,,,,,,,,,,,,,,,,,,,,,R_1m9l4nPkPn7qKin,1,2024-05-31_15h42.14.918,interaction task,2021.2.3,MacIntel,59.88023952,120318,,,,,,,,,,,,,,,,,Greater,Smaller,,-0.26546224,-0.516736309,1,0,0,LeftButton,"[""LeftButton""]",,,,,,,,,,,,,47.99864969,2.6835,space,46.36227729,4.2993,0,12,12,12,1,2,only_sub_right.png,3,RandomDot10.png,No answer,19,0.8019,,,,,,,,
,,,,,,,,,,,,,,,,,,,,,,,,,,,,,,,R_1m9l4nPkPn7qKin,1,2024-05-31_15h42.14.918,interaction task,2021.2.3,MacIntel,59.88023952,120318,,,,,,,,,,,,,,,,,Smaller,Greater,,-0.24225803,-0.544885757,1,0,0,LeftButton,"[""LeftButton""]",,,,,,,,34,1.4518,space,35,2.2686,,,,,,0,13,13,13,1,2,only_sub_right.png,2,RandomDot8.png,No answer,21,,0.7499,,,,,,,
,,,,,,,,,,,,,,,,,,,,,,,,,,,,,,,R_1m9l4nPkPn7qKin,1,2024-05-31_15h42.14.918,interaction task,2021.2.3,MacIntel,59.88023952,120318,,,,,,,,,,,,,,,,,Greater,Smaller,,-0.253016493,-0.513702436,1,0,0,LeftButton,"[""LeftButton""]",,,,,,,,30,1.6864,space,42,2.5362,,,,,,0,14,14,14,1,1,both_wrong.png,2,RandomDot9.png,No answer,21,,0.7838,,,,,,,
,,,,,,,,,,,,,,,,,,,,,,,,,,,,,,,R_1m9l4nPkPn7qKin,1,2024-05-31_15h42.14.918,interaction task,2021.2.3,MacIntel,59.88023952,120318,,,,,,,,,,,,,,,,,Greater,Smaller,,0.291596137,-0.457981419,1,0,0,RightButton,"[""RightButton""]",,,,,,,,,,,,,29.9305994,1.6765,space,47.91315937,3.1198,0,15,15,15,1,1,both_wrong.png,3,RandomDot17.png,No answer,21,0.9327,,,,,,,,
,,,,,,,,,,,,,,,,,,,,,,,,,,,,,,,R_1m9l4nPkPn7qKin,1,2024-05-31_15h42.14.918,interaction task,2021.2.3,MacIntel,59.88023952,120318,,,,,,,,,,,,,,,,,Greater,Smaller,,-0.28062066,-0.513524627,1,0,0,LeftButton,"[""LeftButton""]",,,,,,,,,,,,,,,,,,0,16,16,16,1,0,both_right.png,2,RandomDot36.png,No answer,19,,,,,,,,,
,,,,,,,,,,,,,,,,,,,,,,,,,,,,,,,R_1m9l4nPkPn7qKin,1,2024-05-31_15h42.14.918,interaction task,2021.2.3,MacIntel,59.88023952,120318,,,,,,,,,,,,,,,,,Greater,Smaller,,-0.320654297,-0.523748666,1,0,0,LeftButton,"[""LeftButton""]",,,,,,,,28,2.8869,space,49,3.6799,,,,,,0,17,17,17,1,3,only_sub_wrong.png,2,RandomDot39.png,No answer,20,,0.5722,,,,,,,
,,,,,,,,,,,,,,,,,,,,,,,,,,,,,,,R_1m9l4nPkPn7qKin,1,2024-05-31_15h42.14.918,interaction task,2021.2.3,MacIntel,59.88023952,120318,,,,,,,,,,,,,,,,,Smaller,Greater,,-0.239811198,-0.537206615,1,0,0,LeftButton,"[""LeftButton""]",,,,,,,,,,,,,,,,,,0,18,18,18,1,0,both_right.png,1,RandomDot36.png,No answer,19,,,,,,,,,
,,,,,,,,,,,,,,,,,,,,,,,,,,,,,,,R_1m9l4nPkPn7qKin,1,2024-05-31_15h42.14.918,interaction task,2021.2.3,MacIntel,59.88023952,120318,,,,,,,,,,,,,,,,,Greater,Smaller,,0.302354601,-0.537662251,1,0,0,RightButton,"[""RightButton""]",,,,,4.980875651,8.4902,space,,,,,,,,,,,0,19,19,19,1,1,both_wrong.png,1,RandomDot13.png,No answer,19,,,0.8679,,,,,,
,,,,,,,,,,,,,,,,,,,,,,,,,,,,,,,R_1m9l4nPkPn7qKin,1,2024-05-31_15h42.14.918,interaction task,2021.2.3,MacIntel,59.88023952,120318,,,,,,,,,,,,,,,,,Smaller,Greater,,-0.279486762,-0.525837927,1,0,0,LeftButton,"[""LeftButton""]",,,,,,,,,,,,,30.74330545,1.9723,space,40.51769869,3.0361,0,20,20,20,1,3,only_sub_wrong.png,3,RandomDot36.png,No answer,21,0.7181,,,,,,,,
,,,,,,,,,,,,,,,,,,,,,,,,,,,,,,,R_1m9l4nPkPn7qKin,1,2024-05-31_15h42.14.918,interaction task,2021.2.3,MacIntel,59.88023952,120318,,,,,,,,,,,,,,,,,Smaller,Greater,,-0.235248481,-0.530149804,1,0,0,LeftButton,"[""LeftButton""]",,,,,4.99335395,2.8081,space,,,,,,,,,,,0,21,21,21,1,2,only_sub_right.png,1,RandomDot15.png,No answer,19,,,0.785,,,,,,
,,,,,,,,,,,,,,,,,,,,,,,,,,,,,,,R_1m9l4nPkPn7qKin,1,2024-05-31_15h42.14.918,interaction task,2021.2.3,MacIntel,59.88023952,120318,,,,,,,,,,,,,,,,,Smaller,Greater,,-0.252056207,-0.52268181,1,0,0,LeftButton,"[""LeftButton""]",,,,,,,,31,1.8371,space,53,2.6903,,,,,,0,22,22,22,1,1,both_wrong.png,2,RandomDot8.png,No answer,20,,0.7843,,,,,,,
,,,,,,,,,,,,,,,,,,,,,,,,,,,,,,,R_1m9l4nPkPn7qKin,1,2024-05-31_15h42.14.918,interaction task,2021.2.3,MacIntel,59.88023952,120318,,,,,,,,,,,,,,,,,Greater,Smaller,,-0.337505425,-0.463249022,1,0,0,LeftButton,"[""LeftButton""]",,,,,,,,32,1.1124,space,55,2.12,,,,,,0,23,23,23,1,3,only_sub_wrong.png,2,RandomDot13.png,No answer,21,,0.6664,,,,,,,
,,,,,,,,,,,,,,,,,,,,,,,,,,,,,,,R_1m9l4nPkPn7qKin,1,2024-05-31_15h42.14.918,interaction task,2021.2.3,MacIntel,59.88023952,120318,,,,,,,,,,,,,,,,,Smaller,Greater,,0.261328125,-0.519747955,1,0,0,RightButton,"[""RightButton""]",,,,,,,,,,,,,24.81433256,1.3903,space,52.19534757,2.1841,0,24,24,24,1,3,only_sub_wrong.png,3,RandomDot38.png,No answer,20,0.5342,,,,,,,,
,,,,,,,,,,,,,,,,,,,,,,,,,,,,,,,R_1m9l4nPkPn7qKin,1,2024-05-31_15h42.14.918,interaction task,2021.2.3,MacIntel,59.88023952,120318,,,,,,,,,,,,,,,,,Smaller,Greater,,0.021733941,-0.378156117,0,0,0,,[],,,,,,,,,,,,,,,,,,0,25,25,25,1,1,both_wrong.png,0,RandomDot23.png,No answer,20,,,,54,,,,,
,,,,,,,,,,,,,,,,,,,,,,,,,,,,,,,R_1m9l4nPkPn7qKin,1,2024-05-31_15h42.14.918,interaction task,2021.2.3,MacIntel,59.88023952,120318,,,,,,,,,,,,,,,,,Smaller,Greater,,0.344569227,-0.545730352,1,0,0,RightButton,"[""RightButton""]",,,,,,,,27,1.5876,space,52,2.4706,,,,,,0,26,26,26,1,3,only_sub_wrong.png,2,RandomDot22.png,No answer,19,,0.4061,,,,,,,
,,,,,,,,,,,,,,,,,,,,,,,,,,,,,,,R_1m9l4nPkPn7qKin,1,2024-05-31_15h42.14.918,interaction task,2021.2.3,MacIntel,59.88023952,120318,,,,,,,,,,,,,,,,,Smaller,Greater,,-0.271457248,-0.481152205,1,0,0,LeftButton,"[""LeftButton""]",49,3.8847,space,0.367,,,,,,,,,,,,,,0,27,27,27,1,1,both_wrong.png,0,RandomDot28.png,No answer,19,,,,,,,,,
,,,,,,,,,,,,,,,,,,,,,,,,,,,,,,,R_1m9l4nPkPn7qKin,1,2024-05-31_15h42.14.918,interaction task,2021.2.3,MacIntel,59.88023952,120318,,,,,,,,,,,,,,,,,Smaller,Greater,,0.354296875,-0.50241154,1,0,0,RightButton,"[""RightButton""]",,,,,4.973063151,7.6498,space,,,,,,,,,,,0,28,28,28,1,3,only_sub_wrong.png,1,RandomDot6.png,No answer,21,,,0.285,,,,,,
,,,,,,,,,,,,,,,,,,,,,,,,,,,,,,,R_1m9l4nPkPn7qKin,1,2024-05-31_15h42.14.918,interaction task,2021.2.3,MacIntel,59.88023952,120318,,,,,,,,,,,,,,,,,Greater,Smaller,,0.17616645,0.990976174,0,0,0,,[],,,,,,,,,,,,,,,,,,0,29,29,29,1,2,only_sub_right.png,0,RandomDot18.png,No answer,21,,,,101,,,,,
,,,,,,,,,,,,,,,,,,,,,,,,,,,,,,,R_1m9l4nPkPn7qKin,1,2024-05-31_15h42.14.918,interaction task,2021.2.3,MacIntel,59.88023952,120318,,,,,,,,,,,,,,,,,Greater,Smaller,,0.17616645,0.990976174,0,0,0,,[],,,,,,,,,,,,,,,,,,0,30,30,30,1,2,only_sub_right.png,3,RandomDot36.png,No answer,20,,,,133,,,,,
,,,,,,,,,,,,,,,,,,,,,,,,,,,,,,,R_1m9l4nPkPn7qKin,1,2024-05-31_15h42.14.918,interaction task,2021.2.3,MacIntel,59.88023952,120318,,,,,,,,,,,,,,,,,Smaller,Greater,,0.17616645,0.990976174,0,0,0,,[],,,,,,,,,,,,,,,,,,0,31,31,31,1,3,only_sub_wrong.png,0,RandomDot9.png,No answer,19,,,,152,,,,,
,,,,,,,,,,,,,,,,,,,,,,,,,,,,,,,R_1m9l4nPkPn7qKin,1,2024-05-31_15h42.14.918,interaction task,2021.2.3,MacIntel,59.88023952,120318,,,,,,,,,,,,,,,,,Smaller,Greater,,0.17616645,0.990976174,0,0,0,,[],,,,,,,,,,,,,,,,,,0,32,32,32,1,1,both_wrong.png,3,RandomDot7.png,No answer,21,,,,92,,,,,
,,,,,,,,,,,,,,,,,,,,,,,,,,,,,,,R_1m9l4nPkPn7qKin,1,2024-05-31_15h42.14.918,interaction task,2021.2.3,MacIntel,59.88023952,120318,,,,,,,,,,,,,,,,,Smaller,Greater,,0.17616645,0.990976174,0,0,0,,[],,,,,,,,,,,,,,,,,,0,33,33,33,1,3,only_sub_wrong.png,1,RandomDot15.png,No answer,21,,,,162,,,,,
,,,,,,,,,,,,,,,,,,,,,,,,,,,,,,,R_1m9l4nPkPn7qKin,1,2024-05-31_15h42.14.918,interaction task,2021.2.3,MacIntel,59.88023952,120318,,,,,,,,,,,,,,,,,Smaller,Greater,,0.17616645,0.990976174,0,0,0,,[],,,,,,,,,,,,,,,,,,0,34,34,34,1,5,both_right.png,10,RandomDot42.png,LeftButton,19,,,,201,,,,,
,,,,,,,,,,,,,,,,,,,,,,,,,,,,,,,R_1m9l4nPkPn7qKin,1,2024-05-31_15h42.14.918,interaction task,2021.2.3,MacIntel,59.88023952,120318,,,,,,,,,,,,,,,,,Smaller,Greater,,0.17616645,0.990976174,0,0,0,,[],,,,,,,,,,,,,,,,,,0,35,35,35,1,1,both_wrong.png,1,RandomDot17.png,No answer,20,,,,67,,,,,
,,,,,,,,,,,,,,,,,,,,,,,,,,,,,,,R_1m9l4nPkPn7qKin,1,2024-05-31_15h42.14.918,interaction task,2021.2.3,MacIntel,59.88023952,120318,,,,,,,,,,,,,,,,,Smaller,Greater,,0.17616645,0.990976174,0,0,0,,[],,,,,,,,,,,,,,,,,,0,36,36,36,1,2,only_sub_right.png,1,RandomDot25.png,No answer,19,,,,116,,,,,
,,,,,,,,,,,,,,,,,,,,,,,,,,,,,,,R_1m9l4nPkPn7qKin,1,2024-05-31_15h42.14.918,interaction task,2021.2.3,MacIntel,59.88023952,120318,,,,,,,,,,,,,,,,,Smaller,Greater,,0.17616645,0.990976174,0,0,0,,[],,,,,,,,,,,,,,,,,,0,37,37,37,1,0,both_right.png,3,RandomDot26.png,No answer,20,,,,44,,,,,
,,,,,,,,,,,,,,,,,,,,,,,,,,,,,,,R_1m9l4nPkPn7qKin,1,2024-05-31_15h42.14.918,interaction task,2021.2.3,MacIntel,59.88023952,120318,,,,,,,,,,,,,,,,,Greater,Smaller,,0.17616645,0.990976174,0,0,0,,[],,,,,,,,,,,,,,,,,,0,38,38,38,1,2,only_sub_right.png,1,RandomDot6.png,No answer,21,,,,110,,,,,
,,,,,,,,,,,,,,,,,,,,,,,,,,,,,,,R_1m9l4nPkPn7qKin,1,2024-05-31_15h42.14.918,interaction task,2021.2.3,MacIntel,59.88023952,120318,,,,,,,,,,,,,,,,,Smaller,Greater,,0.17616645,0.990976174,0,0,0,,[],,,,,,,,,,,,,,,,,,0,39,39,39,1,1,both_wrong.png,1,RandomDot10.png,No answer,19,,,,66,,,,,
,,,,,,,,,,,,,,,,,,,,,,,,,,,,,,,R_1m9l4nPkPn7qKin,1,2024-05-31_15h42.14.918,interaction task,2021.2.3,MacIntel,59.88023952,120318,,,,,,,,,,,,,,,,,Greater,Smaller,,0.17616645,0.990976174,0,0,0,,[],,,,,,,,,,,,,,,,,,0,40,40,40,1,4,both_right.png,10,RandomDot41.png,LeftButton,5,,,,193,,,,,
,,,,,,,,,,,,,,,,,,,,,,,,,,,,,,,R_1m9l4nPkPn7qKin,1,2024-05-31_15h42.14.918,interaction task,2021.2.3,MacIntel,59.88023952,120318,,,,,,,,,,,,,,,,,Smaller,Greater,,0.17616645,0.990976174,0,0,0,,[],,,,,,,,,,,,,,,,,,0,41,41,41,1,1,both_wrong.png,0,RandomDot34.png,No answer,19,,,,58,,,,,
,,,,,,,,,,,,,,,,,,,,,,,,,,,,,,,R_1m9l4nPkPn7qKin,1,2024-05-31_15h42.14.918,interaction task,2021.2.3,MacIntel,59.88023952,120318,,,,,,,,,,,,,,,,,Smaller,Greater,,0.17616645,0.990976174,0,0,0,,[],,,,,,,,,,,,,,,,,,,,,,,5,both_right.png,10,RandomDot42.png,LeftButton,19,,,,58,0,0,0,6,1
,,,,,,,,,,,,,,,,,,,,,,,,,,,,,,,R_1m9l4nPkPn7qKin,1,2024-05-31_15h42.14.918,interaction task,2021.2.3,MacIntel,59.88023952,120318,,,,,,,,,,,,,,,,,Smaller,Greater,,0.17616645,0.990976174,0,0,0,,[],,,,,,,,,,,,,,,,,,,,,,,1,both_wrong.png,1,RandomDot10.png,No answer,19,,,,58,0,1,1,11,1
,,,,,,,,,,,,,,,,,,,,,,,,,,,,,,,R_1m9l4nPkPn7qKin,1,2024-05-31_15h42.14.918,interaction task,2021.2.3,MacIntel,59.88023952,120318,,,,,,,,,,,,,,,,,Smaller,Greater,,0.17616645,0.990976174,0,0,0,,[],,,,,,,,,,,,,,,,,,,,,,,2,only_sub_right.png,1,RandomDot25.png,No answer,19,,,,58,0,2,2,8,1
,,,,,,,,,,,,,,,,,,,,,,,,,,,,,,,R_1m9l4nPkPn7qKin,1,2024-05-31_15h42.14.918,interaction task,2021.2.3,MacIntel,59.88023952,120318,,,,,,,,,,,,,,,,,Smaller,Greater,,0.17616645,0.990976174,0,0,0,,[],,,,,,,,,,,,,,,,,,,,,,,1,both_wrong.png,3,RandomDot7.png,No answer,21,,,,58,0,3,3,4,1
,,,,,,,,,,,,,,,,,,,,,,,,,,,,,,,R_1m9l4nPkPn7qKin,1,2024-05-31_15h42.14.918,interaction task,2021.2.3,MacIntel,59.88023952,120318,,,,,,,,,,,,,,,,,Greater,Smaller,,0.17616645,0.990976174,0,0,0,,[],,,,,,,,,,,,,,,,,,,,,,,2,only_sub_right.png,1,RandomDot6.png,No answer,21,,,,58,0,4,4,10,1
,,,,,,,,,,,,,,,,,,,,,,,,,,,,,,,R_1m9l4nPkPn7qKin,1,2024-05-31_15h42.14.918,interaction task,2021.2.3,MacIntel,59.88023952,120318,,,,,,,,,,,,,,,,,Smaller,Greater,,0.17616645,0.990976174,0,0,0,,[],,,,,,,,,,,,,,,,,,,,,,,1,both_wrong.png,1,RandomDot17.png,No answer,20,,,,58,0,5,5,7,1
,,,,,,,,,,,,,,,,,,,,,,,,,,,,,,,R_1m9l4nPkPn7qKin,1,2024-05-31_15h42.14.918,interaction task,2021.2.3,MacIntel,59.88023952,120318,,,,,,,,,,,,,,,,,Greater,Smaller,,0.17616645,0.990976174,0,0,0,,[],,,,,,,,,,,,,,,,,,,,,,,4,both_right.png,10,RandomDot41.png,LeftButton,5,,,,58,0,6,6,12,1
,,,,,,,,,,,,,,,,,,,,,,,,,,,,,,,R_1m9l4nPkPn7qKin,1,2024-05-31_15h42.14.918,interaction task,2021.2.3,MacIntel,59.88023952,120318,,,,,,,,,,,,,,,,,Smaller,Greater,,0.17616645,0.990976174,0,0,0,,[],,,,,,,,,,,,,,,,,,,,,,,3,only_sub_wrong.png,0,RandomDot9.png,No answer,19,,,,58,0,7,7,3,1
,,,,,,,,,,,,,,,,,,,,,,,,,,,,,,,R_1m9l4nPkPn7qKin,1,2024-05-31_15h42.14.918,interaction task,2021.2.3,MacIntel,59.88023952,120318,,,,,,,,,,,,,,,,,Smaller,Greater,,0.17616645,0.990976174,0,0,0,,[],,,,,,,,,,,,,,,,,,,,,,,1,both_wrong.png,0,RandomDot23.png,No answer,20,,,,58,0,8,8,0,1
,,,,,,,,,,,,,,,,,,,,,,,,,,,,,,,R_1m9l4nPkPn7qKin,1,2024-05-31_15h42.14.918,interaction task,2021.2.3,MacIntel,59.88023952,120318,,,,,,,,,,,,,,,,,Smaller,Greater,,0.17616645,0.990976174,0,0,0,,[],,,,,,,,,,,,,,,,,,,,,,,1,both_wrong.png,0,RandomDot34.png,No answer,19,,,,58,0,9,9,13,1
,,,,,,,,,,,,,,,,,,,,,,,,,,,,,,,R_1m9l4nPkPn7qKin,1,2024-05-31_15h42.14.918,interaction task,2021.2.3,MacIntel,59.88023952,120318,,,,,,,,,,,,,,,,,Greater,Smaller,,0.17616645,0.990976174,0,0,0,,[],,,,,,,,,,,,,,,,,,,,,,,2,only_sub_right.png,3,RandomDot36.png,No answer,20,,,,58,0,10,10,2,1
,,,,,,,,,,,,,,,,,,,,,,,,,,,,,,,R_1m9l4nPkPn7qKin,1,2024-05-31_15h42.14.918,interaction task,2021.2.3,MacIntel,59.88023952,120318,,,,,,,,,,,,,,,,,Smaller,Greater,,0.17616645,0.990976174,0,0,0,,[],,,,,,,,,,,,,,,,,,,,,,,0,both_right.png,3,RandomDot26.png,No answer,20,,,,58,0,11,11,9,1
,,,,,,,,,,,,,,,,,,,,,,,,,,,,,,,R_1m9l4nPkPn7qKin,1,2024-05-31_15h42.14.918,interaction task,2021.2.3,MacIntel,59.88023952,120318,,,,,,,,,,,,,,,,,Greater,Smaller,,0.17616645,0.990976174,0,0,0,,[],,,,,,,,,,,,,,,,,,,,,,,2,only_sub_right.png,0,RandomDot18.png,No answer,21,,,,58,0,12,12,1,1
,,,,,,,,,,,,,,,,,,,,,,,,,,,,,,,R_1m9l4nPkPn7qKin,1,2024-05-31_15h42.14.918,interaction task,2021.2.3,MacIntel,59.88023952,120318,,,,,,,,,,,,,,,,,Smaller,Greater,,0.17616645,0.990976174,0,0,0,,[],,,,,,,,,,,,,,,,,,,,,,,3,only_sub_wrong.png,1,RandomDot15.png,No answer,21,,,,58,0,13,13,5,1
