chooserow,ParID,pre_instru_resp_2.keys,pre_instru_resp_2.rt,pre_instru_resp_3.keys,pre_instru_resp_3.rt,pre_instru_resp_9.keys,pre_instru_resp_9.rt,pre_instru_resp_8.keys,pre_instru_resp_8.rt,pre_instru_resp_4.keys,pre_instru_resp_4.rt,pre_instru_resp_5.keys,pre_instru_resp_5.rt,pre_instru_resp_6.keys,pre_instru_resp_6.rt,key_resp_3.keys,key_resp_3.rt,key_resp_4.keys,key_resp_4.rt,key_resp_5.keys,key_resp_5.rt,key_resp_6.keys,key_resp_6.rt,key_resp_7.keys,key_resp_7.rt,trials_2.thisRepN,trials_2.thisTrialN,trials_2.thisN,trials_2.thisIndex,trials_2.ran,participant,session,date,expName,psychopyVersion,OS,frameRate,SONAid,pre_instru_resp.keys,pre_instru_resp.rt,clicked,judge_2.x,judge_2.y,judge_2.leftButton,judge_2.midButton,judge_2.rightButton,judge_2.clicked_name,trials.thisRepN,trials.thisTrialN,trials.thisN,trials.thisIndex,trials.ran,prac_answer,prac_dot_sti,dotlefttext,dotrighttext,prac_acc,judge.x,judge.y,judge.leftButton,judge.midButton,judge.rightButton,judge.clicked_name,clicked_guilt,slider_guilt.response,slider_guilt.rt,key_guilt.keys,share_slider.response,share_slider.rt,key_share.keys,slider_apology.response,slider_apology.rt,key_apology.keys,slider_hide.response,slider_hide.rt,slider_forgiveness.response,slider_forgiveness.rt,key_forgiveness.keys,slider_mad.response,slider_mad.rt,trialseq.thisRepN,trialseq.thisTrialN,trialseq.thisN,trialseq.thisIndex,trialseq.ran,type_trial,stipic,DV,picture,answer,number,key_apology.rt,key_forgiveness.rt,key_guilt.rt,key_share.rt
"[33,128,184,140,59,104,189,82,119,48,176,167,102,144,36,150,142,80,193,124,51,103,84,88,79,85,152,125,112,156,0,183,69,63,199,21,133,164,64,170,173,118]",R_1m1uzN8R2BXv7GO,space,1.651,space,6.6032,space,10.7372,space,20.7788,space,40.2243,space,9.4914,space,9.4178,3,8.6526,1,8.1813,3,8.7088,2,11.5229,2,6.4582,0,0,0,0,1,R_1m1uzN8R2BXv7GO,1,2024-05-21_01h48.57.514,interaction task,2021.2.3,MacIntel,30.12048193,120461,,,,,,,,,,,,,,,,,,,,,,,,,,,,,,,,,,,,,,,,,,,,,,,,,,,,,,,,,
,,,,,,,,,,,,,,,,,,,,,,,,,,,,,,,R_1m1uzN8R2BXv7GO,1,2024-05-21_01h48.57.514,interaction task,2021.2.3,MacIntel,30.12048193,120461,space,4.5076,"[""RightButton_2""]",0.284076606,-0.25859375,1,0,0,RightButton_2,0,0,0,0,1,RightButton_2,9dot1.png,Greater,Smaller,,,,,,,,,,,,,,,,,,,,,,,,,,,,,,,,,,,,,,,
,,,,,,,,,,,,,,,,,,,,,,,,,,,,,,,R_1m1uzN8R2BXv7GO,1,2024-05-21_01h48.57.514,interaction task,2021.2.3,MacIntel,30.12048193,120461,,,"[""LeftButton_2""]",-0.252652995,-0.328324653,1,0,0,LeftButton_2,0,1,1,2,1,RightButton_2,11dot1.png,Smaller,Greater,,,,,,,,,,,,,,,,,,,,,,,,,,,,,,,,,,,,,,,
,,,,,,,,,,,,,,,,,,,,,,,,,,,,,,,R_1m1uzN8R2BXv7GO,1,2024-05-21_01h48.57.514,interaction task,2021.2.3,MacIntel,30.12048193,120461,,,"[""LeftButton_2""]",-0.314854601,-0.293151042,1,0,0,LeftButton_2,0,2,2,1,1,LeftButton_2,11dot1.png,Greater,Smaller,,,,,,,,,,,,,,,,,,,,,,,,,,,,,,,,,,,,,,,
,,,,,,,,,,,,,,,,,,,,,,,,,,,,,,,R_1m1uzN8R2BXv7GO,1,2024-05-21_01h48.57.514,interaction task,2021.2.3,MacIntel,30.12048193,120461,,,,,,,,,,,,,,,,,Smaller,Greater,0.4,-0.353569878,-0.543567708,1,0,0,LeftButton,"[""LeftButton""]",,,,,,,,,,,,,,,,,0,0,0,0,1,0,both_right.png,2,RandomDot25.png,No answer,20,,,,
,,,,,,,,,,,,,,,,,,,,,,,,,,,,,,,R_1m1uzN8R2BXv7GO,1,2024-05-21_01h48.57.514,interaction task,2021.2.3,MacIntel,30.12048193,120461,,,,,,,,,,,,,,,,,Smaller,Greater,,0.267632378,-0.494513889,1,0,0,RightButton,"[""RightButton""]",,,,,,,0,9.7487,space,4,13.6674,,,,,,0,1,1,1,1,2,only_sub_right.png,2,RandomDot22.png,No answer,20,2.9581,,,
,,,,,,,,,,,,,,,,,,,,,,,,,,,,,,,R_1m1uzN8R2BXv7GO,1,2024-05-21_01h48.57.514,interaction task,2021.2.3,MacIntel,30.12048193,120461,,,,,,,,,,,,,,,,,Greater,Smaller,,-0.274072266,-0.503888889,1,0,0,LeftButton,"[""LeftButton""]",,,,,,,,,,,,10.12205387,6.1119,space,60.18814447,10.6087,0,2,2,2,1,3,only_sub_wrong.png,3,RandomDot20.png,No answer,20,,1.3017,,
,,,,,,,,,,,,,,,,,,,,,,,,,,,,,,,R_1m1uzN8R2BXv7GO,1,2024-05-21_01h48.57.514,interaction task,2021.2.3,MacIntel,30.12048193,120461,,,,,,,,,,,,,,,,,Smaller,Greater,,0.316281467,-0.498072917,1,0,0,RightButton,"[""RightButton""]",,,,,,,,,,,,49.39389555,7.5142,space,49.11111988,8.6478,0,3,3,3,1,2,only_sub_right.png,3,RandomDot8.png,No answer,19,,0.7118,,
,,,,,,,,,,,,,,,,,,,,,,,,,,,,,,,R_1m1uzN8R2BXv7GO,1,2024-05-21_01h48.57.514,interaction task,2021.2.3,MacIntel,30.12048193,120461,,,,,,,,,,,,,,,,,Smaller,Greater,,-0.256651476,-0.534817708,1,0,0,LeftButton,"[""LeftButton""]",58,3.1166,space,,,,,,,,,,,,,,0,4,4,4,1,1,both_wrong.png,0,RandomDot14.png,No answer,21,,,1.6999,
,,,,,,,,,,,,,,,,,,,,,,,,,,,,,,,R_1m1uzN8R2BXv7GO,1,2024-05-21_01h48.57.514,interaction task,2021.2.3,MacIntel,30.12048193,120461,,,,,,,,,,,,,,,,,Smaller,Greater,,0.345155165,-0.506501736,1,0,0,RightButton,"[""RightButton""]",1,4.0631,space,,,,,,,,,,,,,,0,5,5,5,1,2,only_sub_right.png,0,RandomDot29.png,No answer,20,,,1.1163,
,,,,,,,,,,,,,,,,,,,,,,,,,,,,,,,R_1m1uzN8R2BXv7GO,1,2024-05-21_01h48.57.514,interaction task,2021.2.3,MacIntel,30.12048193,120461,,,,,,,,,,,,,,,,,Smaller,Greater,,-0.284369575,-0.521536458,1,0,0,LeftButton,"[""LeftButton""]",,,,,,,,,,,,30.97401971,2.2462,space,78.78174102,4.2798,0,6,6,6,1,3,only_sub_wrong.png,3,RandomDot38.png,No answer,20,,1.0373,,
,,,,,,,,,,,,,,,,,,,,,,,,,,,,,,,R_1m1uzN8R2BXv7GO,1,2024-05-21_01h48.57.514,interaction task,2021.2.3,MacIntel,30.12048193,120461,,,,,,,,,,,,,,,,,Smaller,Greater,,-0.314301215,-0.489965278,1,0,0,LeftButton,"[""LeftButton""]",,,,,,,68,2.4201,space,50,5.48,,,,,,0,7,7,7,1,1,both_wrong.png,2,RandomDot7.png,No answer,21,1.3255,,,
,,,,,,,,,,,,,,,,,,,,,,,,,,,,,,,R_1m1uzN8R2BXv7GO,1,2024-05-21_01h48.57.514,interaction task,2021.2.3,MacIntel,30.12048193,120461,,,,,,,,,,,,,,,,,Smaller,Greater,,0.295317925,-0.51296875,1,0,0,RightButton,"[""RightButton""]",,,,0.986816406,17.4698,space,,,,,,,,,,,0,8,8,8,1,2,only_sub_right.png,1,RandomDot38.png,No answer,19,,,,6.3881
,,,,,,,,,,,,,,,,,,,,,,,,,,,,,,,R_1m1uzN8R2BXv7GO,1,2024-05-21_01h48.57.514,interaction task,2021.2.3,MacIntel,30.12048193,120461,,,,,,,,,,,,,,,,,Greater,Smaller,,0.268663194,-0.543784722,1,0,0,RightButton,"[""RightButton""]",89,4.5375,space,,,,,,,,,,,,,,0,9,9,9,1,1,both_wrong.png,0,RandomDot24.png,No answer,21,,,1.6339,
,,,,,,,,,,,,,,,,,,,,,,,,,,,,,,,R_1m1uzN8R2BXv7GO,1,2024-05-21_01h48.57.514,interaction task,2021.2.3,MacIntel,30.12048193,120461,,,,,,,,,,,,,,,,,Smaller,Greater,,-0.234912109,-0.501059028,1,0,0,LeftButton,"[""LeftButton""]",,,,,,,75,5.1468,space,69,7.3156,,,,,,0,10,10,10,1,3,only_sub_wrong.png,2,RandomDot40.png,No answer,20,1.1195,,,
,,,,,,,,,,,,,,,,,,,,,,,,,,,,,,,R_1m1uzN8R2BXv7GO,1,2024-05-21_01h48.57.514,interaction task,2021.2.3,MacIntel,30.12048193,120461,,,,,,,,,,,,,,,,,Smaller,Greater,,-0.276638455,-0.471024306,1,0,0,LeftButton,"[""LeftButton""]",,,,0.114067925,6.6178,space,,,,,,,,,,,0,11,11,11,1,3,only_sub_wrong.png,1,RandomDot22.png,No answer,20,,,,0.7328
,,,,,,,,,,,,,,,,,,,,,,,,,,,,,,,R_1m1uzN8R2BXv7GO,1,2024-05-21_01h48.57.514,interaction task,2021.2.3,MacIntel,30.12048193,120461,,,,,,,,,,,,,,,,,Smaller,Greater,,-0.233582899,-0.485147569,1,0,0,LeftButton,"[""LeftButton""]",3,3.3511,space,,,,,,,,,,,,,,0,12,12,12,1,2,only_sub_right.png,0,RandomDot16.png,No answer,21,,,2.364,
,,,,,,,,,,,,,,,,,,,,,,,,,,,,,,,R_1m1uzN8R2BXv7GO,1,2024-05-21_01h48.57.514,interaction task,2021.2.3,MacIntel,30.12048193,120461,,,,,,,,,,,,,,,,,Greater,Smaller,,-0.191259766,-0.484322917,1,0,0,LeftButton,"[""LeftButton""]",69,2.6044,space,,,,,,,,,,,,,,0,13,13,13,1,3,only_sub_wrong.png,0,RandomDot33.png,No answer,19,,,0.551,
,,,,,,,,,,,,,,,,,,,,,,,,,,,,,,,R_1m1uzN8R2BXv7GO,1,2024-05-21_01h48.57.514,interaction task,2021.2.3,MacIntel,30.12048193,120461,,,,,,,,,,,,,,,,,Greater,Smaller,,0.352007378,-0.495373264,1,0,0,RightButton,"[""RightButton""]",,,,,,,,,,,,,,,,,0,14,14,14,1,0,both_right.png,3,RandomDot3.png,No answer,20,,,,
,,,,,,,,,,,,,,,,,,,,,,,,,,,,,,,R_1m1uzN8R2BXv7GO,1,2024-05-21_01h48.57.514,interaction task,2021.2.3,MacIntel,30.12048193,120461,,,,,,,,,,,,,,,,,Smaller,Greater,,-0.29672309,-0.483767361,1,0,0,LeftButton,"[""LeftButton""]",99,1.9522,space,,,,,,,,,,,,,,0,15,15,15,1,3,only_sub_wrong.png,0,RandomDot16.png,No answer,21,,,0.8788,
,,,,,,,,,,,,,,,,,,,,,,,,,,,,,,,R_1m1uzN8R2BXv7GO,1,2024-05-21_01h48.57.514,interaction task,2021.2.3,MacIntel,30.12048193,120461,,,,,,,,,,,,,,,,,Smaller,Greater,,-0.292084418,-0.516527778,1,0,0,LeftButton,"[""LeftButton""]",,,,,,,,,,,,90.1459254,3.4762,space,13.54221468,5.2124,0,16,16,16,1,2,only_sub_right.png,3,RandomDot18.png,No answer,20,,0.712,,
,,,,,,,,,,,,,,,,,,,,,,,,,,,,,,,R_1m1uzN8R2BXv7GO,1,2024-05-21_01h48.57.514,interaction task,2021.2.3,MacIntel,30.12048193,120461,,,,,,,,,,,,,,,,,Smaller,Greater,,0.302821181,-0.503446181,1,0,0,RightButton,"[""RightButton""]",,,,,,,62,1.549,space,49,2.4674,,,,,,0,17,17,17,1,1,both_wrong.png,2,RandomDot8.png,No answer,20,0.4781,,,
,,,,,,,,,,,,,,,,,,,,,,,,,,,,,,,R_1m1uzN8R2BXv7GO,1,2024-05-21_01h48.57.514,interaction task,2021.2.3,MacIntel,30.12048193,120461,,,,,,,,,,,,,,,,,Greater,Smaller,,-0.272401259,-0.545190972,1,0,0,LeftButton,"[""LeftButton""]",,,,,,,,,,,,,,,,,0,18,18,18,1,4,both_right.png,10,RandomDot41.png,LeftButton,5,,,,
,,,,,,,,,,,,,,,,,,,,,,,,,,,,,,,R_1m1uzN8R2BXv7GO,1,2024-05-21_01h48.57.514,interaction task,2021.2.3,MacIntel,30.12048193,120461,,,,,,,,,,,,,,,,,Greater,Smaller,,-0.265977648,-0.543463542,1,0,0,LeftButton,"[""LeftButton""]",,,,,,,54,3.9183,space,47,4.7381,,,,,,0,19,19,19,1,2,only_sub_right.png,2,RandomDot20.png,No answer,20,0.4299,,,
,,,,,,,,,,,,,,,,,,,,,,,,,,,,,,,R_1m1uzN8R2BXv7GO,1,2024-05-21_01h48.57.514,interaction task,2021.2.3,MacIntel,30.12048193,120461,,,,,,,,,,,,,,,,,Greater,Smaller,,-0.217686632,-0.467456597,1,0,0,LeftButton,"[""LeftButton""]",74,1.2362,space,,,,,,,,,,,,,,0,20,20,20,1,1,both_wrong.png,0,RandomDot14.png,No answer,19,,,0.3702,
,,,,,,,,,,,,,,,,,,,,,,,,,,,,,,,R_1m1uzN8R2BXv7GO,1,2024-05-21_01h48.57.514,interaction task,2021.2.3,MacIntel,30.12048193,120461,,,,,,,,,,,,,,,,,Smaller,Greater,,0.319704861,-0.481701389,1,0,0,RightButton,"[""RightButton""]",45,2.5513,space,,,,,,,,,,,,,,0,21,21,21,1,2,only_sub_right.png,0,RandomDot21.png,No answer,21,,,2.7161,
,,,,,,,,,,,,,,,,,,,,,,,,,,,,,,,R_1m1uzN8R2BXv7GO,1,2024-05-21_01h48.57.514,interaction task,2021.2.3,MacIntel,30.12048193,120461,,,,,,,,,,,,,,,,,Greater,Smaller,,0.290375434,-0.513098958,1,0,0,RightButton,"[""RightButton""]",,,,,,,,,,,,20.72997773,15.9937,space,66.23274849,17.213,0,22,22,22,1,1,both_wrong.png,3,RandomDot6.png,No answer,20,,0.534,,
,,,,,,,,,,,,,,,,,,,,,,,,,,,,,,,R_1m1uzN8R2BXv7GO,1,2024-05-21_01h48.57.514,interaction task,2021.2.3,MacIntel,30.12048193,120461,,,,,,,,,,,,,,,,,Greater,Smaller,,-0.28835178,-0.49890625,1,0,0,LeftButton,"[""LeftButton""]",,,,,,,,,,,,51.64788072,1.2814,space,69.86499106,5.2111,0,23,23,23,1,1,both_wrong.png,3,RandomDot30.png,No answer,20,,1.0658,,
,,,,,,,,,,,,,,,,,,,,,,,,,,,,,,,R_1m1uzN8R2BXv7GO,1,2024-05-21_01h48.57.514,interaction task,2021.2.3,MacIntel,30.12048193,120461,,,,,,,,,,,,,,,,,Smaller,Greater,,-0.273464627,-0.49454182,1,0,0,LeftButton,"[""LeftButton""]",,,,,,,73,6.8983,space,56,7.5156,,,,,,0,24,24,24,1,1,both_wrong.png,2,RandomDot24.png,No answer,21,0.1333,,,
,,,,,,,,,,,,,,,,,,,,,,,,,,,,,,,R_1m1uzN8R2BXv7GO,1,2024-05-21_01h48.57.514,interaction task,2021.2.3,MacIntel,30.12048193,120461,,,,,,,,,,,,,,,,,Greater,Smaller,,-0.31445855,-0.536458333,1,0,0,LeftButton,"[""LeftButton""]",,,,,,,,,,,,17.8030303,3.0329,space,71.9008663,3.832,0,25,25,25,1,1,both_wrong.png,3,RandomDot40.png,No answer,21,,0.0586,,
,,,,,,,,,,,,,,,,,,,,,,,,,,,,,,,R_1m1uzN8R2BXv7GO,1,2024-05-21_01h48.57.514,interaction task,2021.2.3,MacIntel,30.12048193,120461,,,,,,,,,,,,,,,,,Smaller,Greater,,0.328900825,-0.506697801,1,0,0,RightButton,"[""RightButton""]",98,1.2262,space,,,,,,,,,,,,,,0,26,26,26,1,3,only_sub_wrong.png,0,RandomDot9.png,No answer,19,,,0.0354,
,,,,,,,,,,,,,,,,,,,,,,,,,,,,,,,R_1m1uzN8R2BXv7GO,1,2024-05-21_01h48.57.514,interaction task,2021.2.3,MacIntel,30.12048193,120461,,,,,,,,,,,,,,,,,Greater,Smaller,,-0.29928928,-0.53579528,1,0,0,LeftButton,"[""LeftButton""]",,,,,,,82,1.7164,space,55,3.3995,,,,,,0,27,27,27,1,2,only_sub_right.png,2,RandomDot36.png,No answer,21,0.7626,,,
,,,,,,,,,,,,,,,,,,,,,,,,,,,,,,,R_1m1uzN8R2BXv7GO,1,2024-05-21_01h48.57.514,interaction task,2021.2.3,MacIntel,30.12048193,120461,,,,,,,,,,,,,,,,,Greater,Smaller,,0.277061632,-0.502940498,1,0,0,RightButton,"[""RightButton""]",,,,0.039523655,4.5128,space,,,,,,,,,,,0,28,28,28,1,2,only_sub_right.png,1,RandomDot32.png,No answer,19,,,,0.1132
,,,,,,,,,,,,,,,,,,,,,,,,,,,,,,,R_1m1uzN8R2BXv7GO,1,2024-05-21_01h48.57.514,interaction task,2021.2.3,MacIntel,30.12048193,120461,,,,,,,,,,,,,,,,,Greater,Smaller,,-0.283192274,-0.517124077,1,0,0,LeftButton,"[""LeftButton""]",,,,0.074815538,1.9372,space,,,,,,,,,,,0,29,29,29,1,3,only_sub_wrong.png,1,RandomDot4.png,No answer,20,,,,0.4135
,,,,,,,,,,,,,,,,,,,,,,,,,,,,,,,R_1m1uzN8R2BXv7GO,1,2024-05-21_01h48.57.514,interaction task,2021.2.3,MacIntel,30.12048193,120461,,,,,,,,,,,,,,,,,Greater,Smaller,,0.223177083,-0.505121848,1,0,0,RightButton,"[""RightButton""]",,,,,,,,,,,,,,,,,0,30,30,30,1,0,both_right.png,0,RandomDot34.png,No answer,19,,,,
,,,,,,,,,,,,,,,,,,,,,,,,,,,,,,,R_1m1uzN8R2BXv7GO,1,2024-05-21_01h48.57.514,interaction task,2021.2.3,MacIntel,30.12048193,120461,,,,,,,,,,,,,,,,,Greater,Smaller,,0.386452908,-0.478887992,1,0,0,RightButton,"[""RightButton""]",,,,,,,,,,,,10.18233551,2.5775,space,88.60052346,3.7973,0,31,31,31,1,3,only_sub_wrong.png,3,RandomDot17.png,No answer,19,,0.1584,,
,,,,,,,,,,,,,,,,,,,,,,,,,,,,,,,R_1m1uzN8R2BXv7GO,1,2024-05-21_01h48.57.514,interaction task,2021.2.3,MacIntel,30.12048193,120461,,,,,,,,,,,,,,,,,Smaller,Greater,,-0.282942708,-0.511483318,1,0,0,LeftButton,"[""LeftButton""]",,,,4.981472439,5.3266,space,,,,,,,,,,,0,32,32,32,1,1,both_wrong.png,1,RandomDot13.png,No answer,19,,,,0.9031
,,,,,,,,,,,,,,,,,,,,,,,,,,,,,,,R_1m1uzN8R2BXv7GO,1,2024-05-21_01h48.57.514,interaction task,2021.2.3,MacIntel,30.12048193,120461,,,,,,,,,,,,,,,,,Greater,Smaller,,-0.265218099,-0.537524985,1,0,0,LeftButton,"[""LeftButton""]",,,,1.9714898,7.7824,space,,,,,,,,,,,0,33,33,33,1,1,both_wrong.png,1,RandomDot27.png,No answer,19,,,,0.9611
,,,,,,,,,,,,,,,,,,,,,,,,,,,,,,,R_1m1uzN8R2BXv7GO,1,2024-05-21_01h48.57.514,interaction task,2021.2.3,MacIntel,30.12048193,120461,,,,,,,,,,,,,,,,,Greater,Smaller,,0.301589627,-0.50672663,1,0,0,RightButton,"[""RightButton""]",,,,,,,,,,,,,,,,,0,34,34,34,1,5,both_right.png,10,RandomDot42.png,RightButton,19,,,,
,,,,,,,,,,,,,,,,,,,,,,,,,,,,,,,R_1m1uzN8R2BXv7GO,1,2024-05-21_01h48.57.514,interaction task,2021.2.3,MacIntel,30.12048193,120461,,,,,,,,,,,,,,,,,Smaller,Greater,,-0.293511285,-0.478138453,1,0,0,LeftButton,"[""LeftButton""]",,,,,,,,,,,,,,,,,0,35,35,35,1,0,both_right.png,1,RandomDot8.png,No answer,21,,,,
,,,,,,,,,,,,,,,,,,,,,,,,,,,,,,,R_1m1uzN8R2BXv7GO,1,2024-05-21_01h48.57.514,interaction task,2021.2.3,MacIntel,30.12048193,120461,,,,,,,,,,,,,,,,,Greater,Smaller,,0.277788628,-0.48527829,1,0,0,RightButton,"[""RightButton""]",,,,,,,,,,,,73.72904391,3.9586,space,44.83879595,5.1983,0,36,36,36,1,2,only_sub_right.png,3,RandomDot36.png,No answer,20,,1.4007,,
,,,,,,,,,,,,,,,,,,,,,,,,,,,,,,,R_1m1uzN8R2BXv7GO,1,2024-05-21_01h48.57.514,interaction task,2021.2.3,MacIntel,30.12048193,120461,,,,,,,,,,,,,,,,,Smaller,Greater,,-0.320719401,-0.49128421,1,0,0,LeftButton,"[""LeftButton""]",,,,0.966905382,1.8508,space,,,,,,,,,,,0,37,37,37,1,3,only_sub_wrong.png,1,RandomDot40.png,No answer,19,,,,0.3474
,,,,,,,,,,,,,,,,,,,,,,,,,,,,,,,R_1m1uzN8R2BXv7GO,1,2024-05-21_01h48.57.514,interaction task,2021.2.3,MacIntel,30.12048193,120461,,,,,,,,,,,,,,,,,Greater,Smaller,,-0.30085178,-0.523283748,1,0,0,LeftButton,"[""LeftButton""]",,,,2.008626302,2.4331,space,,,,,,,,,,,0,38,38,38,1,1,both_wrong.png,1,RandomDot6.png,No answer,20,,,,0.355
,,,,,,,,,,,,,,,,,,,,,,,,,,,,,,,R_1m1uzN8R2BXv7GO,1,2024-05-21_01h48.57.514,interaction task,2021.2.3,MacIntel,30.12048193,120461,,,,,,,,,,,,,,,,,Greater,Smaller,,0.262641059,-0.507687577,1,0,0,RightButton,"[""RightButton""]",,,,,,,82,1.7164,space,65,2.9337,,,,,,0,39,39,39,1,3,only_sub_wrong.png,2,RandomDot39.png,No answer,20,0.3971,,,
,,,,,,,,,,,,,,,,,,,,,,,,,,,,,,,R_1m1uzN8R2BXv7GO,1,2024-05-21_01h48.57.514,interaction task,2021.2.3,MacIntel,30.12048193,120461,,,,,,,,,,,,,,,,,Greater,Smaller,,0.257687717,-0.501796971,1,0,0,RightButton,"[""RightButton""]",,,,,,,81,1.466,space,55,2.382,,,,,,0,40,40,40,1,3,only_sub_wrong.png,2,RandomDot20.png,No answer,19,0.3719,,,
,,,,,,,,,,,,,,,,,,,,,,,,,,,,,,,R_1m1uzN8R2BXv7GO,1,2024-05-21_01h48.57.514,interaction task,2021.2.3,MacIntel,30.12048193,120461,,,,,,,,,,,,,,,,,Smaller,Greater,,0.181136068,-0.454143604,1,0,0,RightButton,"[""RightButton""]",,,,1.072184245,2.6504,space,,,,,,,,,,,0,41,41,41,1,2,only_sub_right.png,1,RandomDot34.png,No answer,19,,,,1.3337
