choose_trial,key_resp.keys,key_resp.rt,key_resp_4.keys,key_resp_4.rt,session_trait,slider_face_judge.response,slider_face_judge.rt,key_resp_3.keys,key_resp_3.rt,face_loop.thisRepN,face_loop.thisTrialN,face_loop.thisN,face_loop.thisIndex,face_loop.ran,face_serial,image_name,isCheck,answer,check_question,participant,session,date,expName,psychopyVersion,OS,frameRate,SONAid,session.thisRepN,session.thisTrialN,session.thisN,session.thisIndex,session.ran,session_serial,slider_judge_img
"[0,1,2,3,4,5,6,7,8,9,10,11,12,13,14,15,16,17,18,19,20,21,22,23,24,25,26,27,28,29,30,31,32,33,34,35,36,37,38,39,40,41,42,43,44,45,46,47,48,49,51,57,55]",space,7.2176,space,15.5415,critical,2.979668499,9.3455,space,1.0866,0,0,0,19,1,20,image/20.jpg,0,0,,R_1q8WSTNQENILdNT,2,2024-05-29_10h20.30.749,face trait task,2021.2.3,MacIntel,60.24096386,120827,,,,,,,
,,,,,,1.726957145,6.3866,space,0.5661,0,1,1,4,1,5,image/5.jpg,0,0,,R_1q8WSTNQENILdNT,2,2024-05-29_10h20.30.749,face trait task,2021.2.3,MacIntel,60.24096386,120827,,,,,,,
,,,,,,1.389645697,3.2229,space,0.3901,0,2,2,11,1,12,image/12.jpg,0,0,,R_1q8WSTNQENILdNT,2,2024-05-29_10h20.30.749,face trait task,2021.2.3,MacIntel,60.24096386,120827,,,,,,,
,,,,,,2.260976964,2.4764,space,0.3437,0,3,3,12,1,13,image/13.jpg,0,0,,R_1q8WSTNQENILdNT,2,2024-05-29_10h20.30.749,face trait task,2021.2.3,MacIntel,60.24096386,120827,,,,,,,
,,,,,,4.06812003,3.9686,space,0.2727,0,4,4,14,1,15,image/15.jpg,0,0,,R_1q8WSTNQENILdNT,2,2024-05-29_10h20.30.749,face trait task,2021.2.3,MacIntel,60.24096386,120827,,,,,,,
,,,,,,5.007680952,3.0338,space,0.3139,0,5,5,43,1,44,image/44.jpg,0,0,,R_1q8WSTNQENILdNT,2,2024-05-29_10h20.30.749,face trait task,2021.2.3,MacIntel,60.24096386,120827,,,,,,,
,,,,,,3.284027128,1.9862,space,0.1685,0,6,6,29,1,30,image/30.jpg,0,0,,R_1q8WSTNQENILdNT,2,2024-05-29_10h20.30.749,face trait task,2021.2.3,MacIntel,60.24096386,120827,,,,,,,
,,,,,,6.070349041,2.216,space,1.2016,0,7,7,45,1,46,image/46.jpg,0,0,,R_1q8WSTNQENILdNT,2,2024-05-29_10h20.30.749,face trait task,2021.2.3,MacIntel,60.24096386,120827,,,,,,,
,,,,,,6.070349041,2.7898,space,1.3402,0,8,8,10,1,11,image/11.jpg,0,0,,R_1q8WSTNQENILdNT,2,2024-05-29_10h20.30.749,face trait task,2021.2.3,MacIntel,60.24096386,120827,,,,,,,
,,,,,,5.314100503,2.6707,space,0.7066,0,9,9,28,1,29,image/29.jpg,0,0,,R_1q8WSTNQENILdNT,2,2024-05-29_10h20.30.749,face trait task,2021.2.3,MacIntel,60.24096386,120827,,,,,,,
,,,,,,5.99975152,2.8201,space,1.1073,0,10,10,36,1,37,image/37.jpg,0,0,,R_1q8WSTNQENILdNT,2,2024-05-29_10h20.30.749,face trait task,2021.2.3,MacIntel,60.24096386,120827,,,,,,,
,,,,,,5.98457963,3.1361,space,0.7847,0,11,11,41,1,42,image/42.jpg,0,0,,R_1q8WSTNQENILdNT,2,2024-05-29_10h20.30.749,face trait task,2021.2.3,MacIntel,60.24096386,120827,,,,,,,
,,,,,,5.98457963,2.1219,space,1.5502,0,12,12,1,1,2,image/2.jpg,0,0,,R_1q8WSTNQENILdNT,2,2024-05-29_10h20.30.749,face trait task,2021.2.3,MacIntel,60.24096386,120827,,,,,,,
,,,,,,4.002674813,1.8774,space,2.1043,0,13,13,26,1,27,image/27.jpg,0,0,,R_1q8WSTNQENILdNT,2,2024-05-29_10h20.30.749,face trait task,2021.2.3,MacIntel,60.24096386,120827,,,,,,,
,,,,,,4.00144703,2.6093,space,0.8408,0,14,14,3,1,4,image/4.jpg,0,0,,R_1q8WSTNQENILdNT,2,2024-05-29_10h20.30.749,face trait task,2021.2.3,MacIntel,60.24096386,120827,,,,,,,
,,,,,,6.150352257,5.1433,space,3.856,0,15,15,16,1,17,image/17.jpg,0,0,,R_1q8WSTNQENILdNT,2,2024-05-29_10h20.30.749,face trait task,2021.2.3,MacIntel,60.24096386,120827,,,,,,,
,,,,,,4.824324719,2.637,space,0.723,0,16,16,20,1,21,image/21.jpg,0,0,,R_1q8WSTNQENILdNT,2,2024-05-29_10h20.30.749,face trait task,2021.2.3,MacIntel,60.24096386,120827,,,,,,,
,,,,,,3.91021837,2.3617,space,1.0702,0,17,17,22,1,23,image/23.jpg,0,0,,R_1q8WSTNQENILdNT,2,2024-05-29_10h20.30.749,face trait task,2021.2.3,MacIntel,60.24096386,120827,,,,,,,
,,,,,,6.984959659,2.7365,space,0.8874,0,18,18,30,1,31,image/31.jpg,0,0,,R_1q8WSTNQENILdNT,2,2024-05-29_10h20.30.749,face trait task,2021.2.3,MacIntel,60.24096386,120827,,,,,,,
,,,,,,4.027756665,2.3535,space,0.8725,0,19,19,18,1,19,image/19.jpg,0,0,,R_1q8WSTNQENILdNT,2,2024-05-29_10h20.30.749,face trait task,2021.2.3,MacIntel,60.24096386,120827,,,,,,,
,,,,,,3.532412009,2.7956,space,1.1888,0,20,20,35,1,36,image/36.jpg,0,0,,R_1q8WSTNQENILdNT,2,2024-05-29_10h20.30.749,face trait task,2021.2.3,MacIntel,60.24096386,120827,,,,,,,
,,,,,,4.989329981,3.9817,space,0.3507,0,21,21,25,1,26,image/26.jpg,0,0,,R_1q8WSTNQENILdNT,2,2024-05-29_10h20.30.749,face trait task,2021.2.3,MacIntel,60.24096386,120827,,,,,,,
,,,,,,3.604237313,1.8134,space,0.9866,0,22,22,7,1,8,image/8.jpg,0,0,,R_1q8WSTNQENILdNT,2,2024-05-29_10h20.30.749,face trait task,2021.2.3,MacIntel,60.24096386,120827,,,,,,,
,,,,,,6.991909787,5.0567,space,0.8981,0,23,23,51,1,58,image/fill_img.png,1,7,Please move the slider all the way to the RIGHT to show that you are paying attention.,R_1q8WSTNQENILdNT,2,2024-05-29_10h20.30.749,face trait task,2021.2.3,MacIntel,60.24096386,120827,,,,,,,
,,,,,,2.976335945,5.5882,space,1.0642,0,24,24,48,1,49,image/49.jpg,0,0,,R_1q8WSTNQENILdNT,2,2024-05-29_10h20.30.749,face trait task,2021.2.3,MacIntel,60.24096386,120827,,,,,,,
,,,,,,2.988504151,3.1304,space,0.7834,0,25,25,24,1,25,image/25.jpg,0,0,,R_1q8WSTNQENILdNT,2,2024-05-29_10h20.30.749,face trait task,2021.2.3,MacIntel,60.24096386,120827,,,,,,,
,,,,,,2.642642072,1.9026,space,0.437,0,26,26,34,1,35,image/35.jpg,0,0,,R_1q8WSTNQENILdNT,2,2024-05-29_10h20.30.749,face trait task,2021.2.3,MacIntel,60.24096386,120827,,,,,,,
,,,,,,6.992085185,3.0036,space,1.0202,0,27,27,52,1,56,image/fill_img.png,1,7,Please move the slider all the way to the RIGHT to show that you are paying attention.,R_1q8WSTNQENILdNT,2,2024-05-29_10h20.30.749,face trait task,2021.2.3,MacIntel,60.24096386,120827,,,,,,,
,,,,,,1.006884355,3.5775,space,0.4186,0,28,28,50,1,52,image/fill_img.png,1,1,Please move the slider all the way to the LEFT to show that you are paying attention.,R_1q8WSTNQENILdNT,2,2024-05-29_10h20.30.749,face trait task,2021.2.3,MacIntel,60.24096386,120827,,,,,,,
,,,,,,4.153494797,3.6885,space,0.491,0,29,29,27,1,28,image/28.jpg,0,0,,R_1q8WSTNQENILdNT,2,2024-05-29_10h20.30.749,face trait task,2021.2.3,MacIntel,60.24096386,120827,,,,,,,
,,,,,,5.34709717,2.756,space,0.4072,0,30,30,44,1,45,image/45.jpg,0,0,,R_1q8WSTNQENILdNT,2,2024-05-29_10h20.30.749,face trait task,2021.2.3,MacIntel,60.24096386,120827,,,,,,,
,,,,,,5.613898796,1.7446,space,0.9411,0,31,31,21,1,22,image/22.jpg,0,0,,R_1q8WSTNQENILdNT,2,2024-05-29_10h20.30.749,face trait task,2021.2.3,MacIntel,60.24096386,120827,,,,,,,
,,,,,,4.435007893,2.9351,space,0.4292,0,32,32,17,1,18,image/18.jpg,0,0,,R_1q8WSTNQENILdNT,2,2024-05-29_10h20.30.749,face trait task,2021.2.3,MacIntel,60.24096386,120827,,,,,,,
,,,,,,5.153567879,2.0612,space,1.0079,0,33,33,42,1,43,image/43.jpg,0,0,,R_1q8WSTNQENILdNT,2,2024-05-29_10h20.30.749,face trait task,2021.2.3,MacIntel,60.24096386,120827,,,,,,,
,,,,,,5.347447965,2.319,space,1.0424,0,34,34,47,1,48,image/48.jpg,0,0,,R_1q8WSTNQENILdNT,2,2024-05-29_10h20.30.749,face trait task,2021.2.3,MacIntel,60.24096386,120827,,,,,,,
,,,,,,4.433385465,1.661,space,1.2868,0,35,35,33,1,34,image/34.jpg,0,0,,R_1q8WSTNQENILdNT,2,2024-05-29_10h20.30.749,face trait task,2021.2.3,MacIntel,60.24096386,120827,,,,,,,
,,,,,,5.154072147,2.0958,space,0.9657,0,36,36,0,1,1,image/1.jpg,0,0,,R_1q8WSTNQENILdNT,2,2024-05-29_10h20.30.749,face trait task,2021.2.3,MacIntel,60.24096386,120827,,,,,,,
,,,,,,5.197241873,2.4032,space,0.7066,0,37,37,32,1,33,image/33.jpg,0,0,,R_1q8WSTNQENILdNT,2,2024-05-29_10h20.30.749,face trait task,2021.2.3,MacIntel,60.24096386,120827,,,,,,,
,,,,,,4.015237664,2.7065,space,0.3382,0,38,38,49,1,50,image/50.jpg,0,0,,R_1q8WSTNQENILdNT,2,2024-05-29_10h20.30.749,face trait task,2021.2.3,MacIntel,60.24096386,120827,,,,,,,
,,,,,,3.549294025,2.1425,space,0.5744,0,39,39,9,1,10,image/10.jpg,0,0,,R_1q8WSTNQENILdNT,2,2024-05-29_10h20.30.749,face trait task,2021.2.3,MacIntel,60.24096386,120827,,,,,,,
,,,,,,5.252623655,2.4373,space,0.7911,0,40,40,31,1,32,image/32.jpg,0,0,,R_1q8WSTNQENILdNT,2,2024-05-29_10h20.30.749,face trait task,2021.2.3,MacIntel,60.24096386,120827,,,,,,,
,,,,,,5.675923761,1.9365,space,0.6256,0,41,41,13,1,14,image/14.jpg,0,0,,R_1q8WSTNQENILdNT,2,2024-05-29_10h20.30.749,face trait task,2021.2.3,MacIntel,60.24096386,120827,,,,,,,
,,,,,,4.58883156,1.5934,space,0.5744,0,42,42,6,1,7,image/7.jpg,0,0,,R_1q8WSTNQENILdNT,2,2024-05-29_10h20.30.749,face trait task,2021.2.3,MacIntel,60.24096386,120827,,,,,,,
,,,,,,5.565905636,1.564,space,1.1268,0,43,43,38,1,39,image/39.jpg,0,0,,R_1q8WSTNQENILdNT,2,2024-05-29_10h20.30.749,face trait task,2021.2.3,MacIntel,60.24096386,120827,,,,,,,
,,,,,,3.824448959,2.4222,space,0.7912,0,44,44,15,1,16,image/16.jpg,0,0,,R_1q8WSTNQENILdNT,2,2024-05-29_10h20.30.749,face trait task,2021.2.3,MacIntel,60.24096386,120827,,,,,,,
,,,,,,3.190255203,2.1865,space,0.7798,0,45,45,2,1,3,image/3.jpg,0,0,,R_1q8WSTNQENILdNT,2,2024-05-29_10h20.30.749,face trait task,2021.2.3,MacIntel,60.24096386,120827,,,,,,,
,,,,,,3.989607694,2.0955,space,0.2588,0,46,46,23,1,24,image/24.jpg,0,0,,R_1q8WSTNQENILdNT,2,2024-05-29_10h20.30.749,face trait task,2021.2.3,MacIntel,60.24096386,120827,,,,,,,
,,,,,,4.991040108,2.8016,space,0.6589,0,47,47,37,1,38,image/38.jpg,0,0,,R_1q8WSTNQENILdNT,2,2024-05-29_10h20.30.749,face trait task,2021.2.3,MacIntel,60.24096386,120827,,,,,,,
,,,,,,5.351942528,2.0055,space,0.2993,0,48,48,39,1,40,image/40.jpg,0,0,,R_1q8WSTNQENILdNT,2,2024-05-29_10h20.30.749,face trait task,2021.2.3,MacIntel,60.24096386,120827,,,,,,,
,,,,,,5.351942528,2.0243,space,2.3305,0,49,49,5,1,6,image/6.jpg,0,0,,R_1q8WSTNQENILdNT,2,2024-05-29_10h20.30.749,face trait task,2021.2.3,MacIntel,60.24096386,120827,,,,,,,
,,,,,,4.516721235,2.3832,space,0.9547,0,50,50,40,1,41,image/41.jpg,0,0,,R_1q8WSTNQENILdNT,2,2024-05-29_10h20.30.749,face trait task,2021.2.3,MacIntel,60.24096386,120827,,,,,,,
,,,,,,3.546619212,1.7771,space,1.0224,0,51,51,46,1,47,image/47.jpg,0,0,,R_1q8WSTNQENILdNT,2,2024-05-29_10h20.30.749,face trait task,2021.2.3,MacIntel,60.24096386,120827,,,,,,,
,,,,,,5.856714804,1.8211,space,0.4887,0,52,52,8,1,9,image/9.jpg,0,0,,R_1q8WSTNQENILdNT,2,2024-05-29_10h20.30.749,face trait task,2021.2.3,MacIntel,60.24096386,120827,,,,,,,
,,,,,,,,,,,,,,,,,,,,R_1q8WSTNQENILdNT,2,2024-05-29_10h20.30.749,face trait task,2021.2.3,MacIntel,60.24096386,120827,0,0,0,0,1,0,critical.png
,,,,,friendly,5.721391293,7.7211,space,7.2528,0,0,0,35,1,36,image/36.jpg,0,0,,R_1q8WSTNQENILdNT,2,2024-05-29_10h20.30.749,face trait task,2021.2.3,MacIntel,60.24096386,120827,,,,,,,
,,,,,,4.539706912,2.2875,space,1.1893,0,1,1,16,1,17,image/17.jpg,0,0,,R_1q8WSTNQENILdNT,2,2024-05-29_10h20.30.749,face trait task,2021.2.3,MacIntel,60.24096386,120827,,,,,,,
,,,,,,2.134880983,2.2815,space,1.0847,0,2,2,9,1,10,image/10.jpg,0,0,,R_1q8WSTNQENILdNT,2,2024-05-29_10h20.30.749,face trait task,2021.2.3,MacIntel,60.24096386,120827,,,,,,,
,,,,,,2.997318928,2.2743,space,0.3808,0,3,3,5,1,6,image/6.jpg,0,0,,R_1q8WSTNQENILdNT,2,2024-05-29_10h20.30.749,face trait task,2021.2.3,MacIntel,60.24096386,120827,,,,,,,
,,,,,,2.997318928,2.9236,space,0.4408,0,4,4,6,1,7,image/7.jpg,0,0,,R_1q8WSTNQENILdNT,2,2024-05-29_10h20.30.749,face trait task,2021.2.3,MacIntel,60.24096386,120827,,,,,,,
,,,,,,2.617306836,2.0283,space,0.7853,0,5,5,19,1,20,image/20.jpg,0,0,,R_1q8WSTNQENILdNT,2,2024-05-29_10h20.30.749,face trait task,2021.2.3,MacIntel,60.24096386,120827,,,,,,,
,,,,,,2.250946729,1.7963,space,0.386,0,6,6,26,1,27,image/27.jpg,0,0,,R_1q8WSTNQENILdNT,2,2024-05-29_10h20.30.749,face trait task,2021.2.3,MacIntel,60.24096386,120827,,,,,,,
,,,,,,3.985130792,1.6404,space,0.3695,0,7,7,7,1,8,image/8.jpg,0,0,,R_1q8WSTNQENILdNT,2,2024-05-29_10h20.30.749,face trait task,2021.2.3,MacIntel,60.24096386,120827,,,,,,,
,,,,,,3.854720914,2.2239,space,1.0193,0,8,8,47,1,48,image/48.jpg,0,0,,R_1q8WSTNQENILdNT,2,2024-05-29_10h20.30.749,face trait task,2021.2.3,MacIntel,60.24096386,120827,,,,,,,
,,,,,,3.710778386,1.4751,space,0.7437,0,9,9,13,1,14,image/14.jpg,0,0,,R_1q8WSTNQENILdNT,2,2024-05-29_10h20.30.749,face trait task,2021.2.3,MacIntel,60.24096386,120827,,,,,,,
,,,,,,3.546906823,1.9703,space,0.3819,0,10,10,21,1,22,image/22.jpg,0,0,,R_1q8WSTNQENILdNT,2,2024-05-29_10h20.30.749,face trait task,2021.2.3,MacIntel,60.24096386,120827,,,,,,,
,,,,,,3.982409941,2.0036,space,0.2586,0,11,11,23,1,24,image/24.jpg,0,0,,R_1q8WSTNQENILdNT,2,2024-05-29_10h20.30.749,face trait task,2021.2.3,MacIntel,60.24096386,120827,,,,,,,
,,,,,,4.290510438,1.941,space,0.1944,0,12,12,46,1,47,image/47.jpg,0,0,,R_1q8WSTNQENILdNT,2,2024-05-29_10h20.30.749,face trait task,2021.2.3,MacIntel,60.24096386,120827,,,,,,,
,,,,,,5.967795316,2.3122,space,0.7686,0,13,13,11,1,12,image/12.jpg,0,0,,R_1q8WSTNQENILdNT,2,2024-05-29_10h20.30.749,face trait task,2021.2.3,MacIntel,60.24096386,120827,,,,,,,
,,,,,,1.039786469,3.4415,space,0.6608,0,14,14,30,1,31,image/31.jpg,0,0,,R_1q8WSTNQENILdNT,2,2024-05-29_10h20.30.749,face trait task,2021.2.3,MacIntel,60.24096386,120827,,,,,,,
,,,,,,3.481224542,1.8764,space,1.3199,0,15,15,38,1,39,image/39.jpg,0,0,,R_1q8WSTNQENILdNT,2,2024-05-29_10h20.30.749,face trait task,2021.2.3,MacIntel,60.24096386,120827,,,,,,,
,,,,,,4.917069756,1.6583,space,1.6019,0,16,16,1,1,2,image/2.jpg,0,0,,R_1q8WSTNQENILdNT,2,2024-05-29_10h20.30.749,face trait task,2021.2.3,MacIntel,60.24096386,120827,,,,,,,
,,,,,,3.962552508,3.6609,space,1.9069,0,17,17,33,1,34,image/34.jpg,0,0,,R_1q8WSTNQENILdNT,2,2024-05-29_10h20.30.749,face trait task,2021.2.3,MacIntel,60.24096386,120827,,,,,,,
,,,,,,3.805101197,3.0882,space,0.587,0,18,18,37,1,38,image/38.jpg,0,0,,R_1q8WSTNQENILdNT,2,2024-05-29_10h20.30.749,face trait task,2021.2.3,MacIntel,60.24096386,120827,,,,,,,
,,,,,,3.703188646,2.0212,space,0.1958,0,19,19,44,1,45,image/45.jpg,0,0,,R_1q8WSTNQENILdNT,2,2024-05-29_10h20.30.749,face trait task,2021.2.3,MacIntel,60.24096386,120827,,,,,,,
,,,,,,4.155852215,2.917,space,0.873,0,20,20,40,1,41,image/41.jpg,0,0,,R_1q8WSTNQENILdNT,2,2024-05-29_10h20.30.749,face trait task,2021.2.3,MacIntel,60.24096386,120827,,,,,,,
,,,,,,1,3.4964,space,1.1364,0,21,21,50,1,52,image/fill_img.png,1,1,Please move the slider all the way to the LEFT to show that you are paying attention.,R_1q8WSTNQENILdNT,2,2024-05-29_10h20.30.749,face trait task,2021.2.3,MacIntel,60.24096386,120827,,,,,,,
,,,,,,6.040828666,1.8195,space,1.1746,0,22,22,20,1,21,image/21.jpg,0,0,,R_1q8WSTNQENILdNT,2,2024-05-29_10h20.30.749,face trait task,2021.2.3,MacIntel,60.24096386,120827,,,,,,,
,,,,,,6.735433108,1.3924,space,0.4245,0,23,23,2,1,3,image/3.jpg,0,0,,R_1q8WSTNQENILdNT,2,2024-05-29_10h20.30.749,face trait task,2021.2.3,MacIntel,60.24096386,120827,,,,,,,
,,,,,,5.99094641,1.8073,space,0.4599,0,24,24,12,1,13,image/13.jpg,0,0,,R_1q8WSTNQENILdNT,2,2024-05-29_10h20.30.749,face trait task,2021.2.3,MacIntel,60.24096386,120827,,,,,,,
,,,,,,6.296278322,1.3598,space,0.3453,0,25,25,34,1,35,image/35.jpg,0,0,,R_1q8WSTNQENILdNT,2,2024-05-29_10h20.30.749,face trait task,2021.2.3,MacIntel,60.24096386,120827,,,,,,,
,,,,,,3.969235298,1.7962,space,0.5331,0,26,26,31,1,32,image/32.jpg,0,0,,R_1q8WSTNQENILdNT,2,2024-05-29_10h20.30.749,face trait task,2021.2.3,MacIntel,60.24096386,120827,,,,,,,
,,,,,,3.678366853,1.2812,space,0.752,0,27,27,25,1,26,image/26.jpg,0,0,,R_1q8WSTNQENILdNT,2,2024-05-29_10h20.30.749,face trait task,2021.2.3,MacIntel,60.24096386,120827,,,,,,,
,,,,,,3.02552985,1.8181,space,0.3457,0,28,28,39,1,40,image/40.jpg,0,0,,R_1q8WSTNQENILdNT,2,2024-05-29_10h20.30.749,face trait task,2021.2.3,MacIntel,60.24096386,120827,,,,,,,
,,,,,,7,3.5549,space,1.329,0,29,29,52,1,56,image/fill_img.png,1,7,Please move the slider all the way to the RIGHT to show that you are paying attention.,R_1q8WSTNQENILdNT,2,2024-05-29_10h20.30.749,face trait task,2021.2.3,MacIntel,60.24096386,120827,,,,,,,
,,,,,,5.287033796,2.1365,space,0.5861,0,30,30,48,1,49,image/49.jpg,0,0,,R_1q8WSTNQENILdNT,2,2024-05-29_10h20.30.749,face trait task,2021.2.3,MacIntel,60.24096386,120827,,,,,,,
,,,,,,3.167085667,1.4252,space,0.7862,0,31,31,28,1,29,image/29.jpg,0,0,,R_1q8WSTNQENILdNT,2,2024-05-29_10h20.30.749,face trait task,2021.2.3,MacIntel,60.24096386,120827,,,,,,,
,,,,,,2.698287933,1.4044,space,0.5215,0,32,32,27,1,28,image/28.jpg,0,0,,R_1q8WSTNQENILdNT,2,2024-05-29_10h20.30.749,face trait task,2021.2.3,MacIntel,60.24096386,120827,,,,,,,
,,,,,,3.969402368,1.9209,space,0.959,0,33,33,29,1,30,image/30.jpg,0,0,,R_1q8WSTNQENILdNT,2,2024-05-29_10h20.30.749,face trait task,2021.2.3,MacIntel,60.24096386,120827,,,,,,,
,,,,,,3.729824338,1.8248,space,0.6947,0,34,34,43,1,44,image/44.jpg,0,0,,R_1q8WSTNQENILdNT,2,2024-05-29_10h20.30.749,face trait task,2021.2.3,MacIntel,60.24096386,120827,,,,,,,
,,,,,,4.001217223,3.6877,space,0.3252,0,35,35,49,1,50,image/50.jpg,0,0,,R_1q8WSTNQENILdNT,2,2024-05-29_10h20.30.749,face trait task,2021.2.3,MacIntel,60.24096386,120827,,,,,,,
,,,,,,4.001217223,2.025,space,1.1923,0,36,36,32,1,33,image/33.jpg,0,0,,R_1q8WSTNQENILdNT,2,2024-05-29_10h20.30.749,face trait task,2021.2.3,MacIntel,60.24096386,120827,,,,,,,
,,,,,,3.867704621,2.0412,space,1.8365,0,37,37,10,1,11,image/11.jpg,0,0,,R_1q8WSTNQENILdNT,2,2024-05-29_10h20.30.749,face trait task,2021.2.3,MacIntel,60.24096386,120827,,,,,,,
,,,,,,4.002100305,2.3435,space,0.6888,0,38,38,41,1,42,image/42.jpg,0,0,,R_1q8WSTNQENILdNT,2,2024-05-29_10h20.30.749,face trait task,2021.2.3,MacIntel,60.24096386,120827,,,,,,,
,,,,,,4.160792706,1.2457,space,0.7726,0,39,39,22,1,23,image/23.jpg,0,0,,R_1q8WSTNQENILdNT,2,2024-05-29_10h20.30.749,face trait task,2021.2.3,MacIntel,60.24096386,120827,,,,,,,
,,,,,,1.601594323,2.1378,space,0.3668,0,40,40,45,1,46,image/46.jpg,0,0,,R_1q8WSTNQENILdNT,2,2024-05-29_10h20.30.749,face trait task,2021.2.3,MacIntel,60.24096386,120827,,,,,,,
,,,,,,2.189297989,2.0591,space,0.9332,0,41,41,42,1,43,image/43.jpg,0,0,,R_1q8WSTNQENILdNT,2,2024-05-29_10h20.30.749,face trait task,2021.2.3,MacIntel,60.24096386,120827,,,,,,,
,,,,,,3.99677794,4.7414,space,0.3854,0,42,42,3,1,4,image/4.jpg,0,0,,R_1q8WSTNQENILdNT,2,2024-05-29_10h20.30.749,face trait task,2021.2.3,MacIntel,60.24096386,120827,,,,,,,
,,,,,,6.997016612,1.9704,space,0.4633,0,43,43,51,1,58,image/fill_img.png,1,7,Please move the slider all the way to the RIGHT to show that you are paying attention.,R_1q8WSTNQENILdNT,2,2024-05-29_10h20.30.749,face trait task,2021.2.3,MacIntel,60.24096386,120827,,,,,,,
,,,,,,5.070439791,3.28,space,0.5169,0,44,44,17,1,18,image/18.jpg,0,0,,R_1q8WSTNQENILdNT,2,2024-05-29_10h20.30.749,face trait task,2021.2.3,MacIntel,60.24096386,120827,,,,,,,
,,,,,,3.997326884,1.5764,space,0.2214,0,45,45,24,1,25,image/25.jpg,0,0,,R_1q8WSTNQENILdNT,2,2024-05-29_10h20.30.749,face trait task,2021.2.3,MacIntel,60.24096386,120827,,,,,,,
,,,,,,3.70034846,2.5429,space,1.3425,0,46,46,15,1,16,image/16.jpg,0,0,,R_1q8WSTNQENILdNT,2,2024-05-29_10h20.30.749,face trait task,2021.2.3,MacIntel,60.24096386,120827,,,,,,,
,,,,,,2.979108325,1.4764,space,0.1962,0,47,47,8,1,9,image/9.jpg,0,0,,R_1q8WSTNQENILdNT,2,2024-05-29_10h20.30.749,face trait task,2021.2.3,MacIntel,60.24096386,120827,,,,,,,
,,,,,,4.632406759,2.5696,space,0.3551,0,48,48,4,1,5,image/5.jpg,0,0,,R_1q8WSTNQENILdNT,2,2024-05-29_10h20.30.749,face trait task,2021.2.3,MacIntel,60.24096386,120827,,,,,,,
,,,,,,3.568244017,1.8436,space,0.505,0,49,49,14,1,15,image/15.jpg,0,0,,R_1q8WSTNQENILdNT,2,2024-05-29_10h20.30.749,face trait task,2021.2.3,MacIntel,60.24096386,120827,,,,,,,
,,,,,,4.245258401,2.0577,space,0.7163,0,50,50,18,1,19,image/19.jpg,0,0,,R_1q8WSTNQENILdNT,2,2024-05-29_10h20.30.749,face trait task,2021.2.3,MacIntel,60.24096386,120827,,,,,,,
,,,,,,3.980643775,1.8824,space,0.6349,0,51,51,36,1,37,image/37.jpg,0,0,,R_1q8WSTNQENILdNT,2,2024-05-29_10h20.30.749,face trait task,2021.2.3,MacIntel,60.24096386,120827,,,,,,,
,,,,,,2.293406314,1.6853,space,0.8545,0,52,52,0,1,1,image/1.jpg,0,0,,R_1q8WSTNQENILdNT,2,2024-05-29_10h20.30.749,face trait task,2021.2.3,MacIntel,60.24096386,120827,,,,,,,
,,,,,,,,,,,,,,,,,,,,R_1q8WSTNQENILdNT,2,2024-05-29_10h20.30.749,face trait task,2021.2.3,MacIntel,60.24096386,120827,0,1,1,3,1,3,friendly.png
,,,,,trustworthy,4.0144396,2.2372,space,0.3868,0,0,0,46,1,47,image/47.jpg,0,0,,R_1q8WSTNQENILdNT,2,2024-05-29_10h20.30.749,face trait task,2021.2.3,MacIntel,60.24096386,120827,,,,,,,
,,,,,,4.542165224,2.4403,space,0.8241,0,1,1,48,1,49,image/49.jpg,0,0,,R_1q8WSTNQENILdNT,2,2024-05-29_10h20.30.749,face trait task,2021.2.3,MacIntel,60.24096386,120827,,,,,,,
,,,,,,4.606463213,1.7075,space,0.3881,0,2,2,37,1,38,image/38.jpg,0,0,,R_1q8WSTNQENILdNT,2,2024-05-29_10h20.30.749,face trait task,2021.2.3,MacIntel,60.24096386,120827,,,,,,,
,,,,,,3.161596232,2.5635,space,0.4094,0,3,3,33,1,34,image/34.jpg,0,0,,R_1q8WSTNQENILdNT,2,2024-05-29_10h20.30.749,face trait task,2021.2.3,MacIntel,60.24096386,120827,,,,,,,
,,,,,,3.984223842,2.888,space,0.2509,0,4,4,13,1,14,image/14.jpg,0,0,,R_1q8WSTNQENILdNT,2,2024-05-29_10h20.30.749,face trait task,2021.2.3,MacIntel,60.24096386,120827,,,,,,,
,,,,,,3.425924453,2.6242,space,1.2903,0,5,5,43,1,44,image/44.jpg,0,0,,R_1q8WSTNQENILdNT,2,2024-05-29_10h20.30.749,face trait task,2021.2.3,MacIntel,60.24096386,120827,,,,,,,
,,,,,,3.659893712,4.303,space,0.3005,0,6,6,39,1,40,image/40.jpg,0,0,,R_1q8WSTNQENILdNT,2,2024-05-29_10h20.30.749,face trait task,2021.2.3,MacIntel,60.24096386,120827,,,,,,,
,,,,,,5.000533032,2.0966,space,0.9203,0,7,7,20,1,21,image/21.jpg,0,0,,R_1q8WSTNQENILdNT,2,2024-05-29_10h20.30.749,face trait task,2021.2.3,MacIntel,60.24096386,120827,,,,,,,
,,,,,,6.020947365,1.9346,space,0.4356,0,8,8,12,1,13,image/13.jpg,0,0,,R_1q8WSTNQENILdNT,2,2024-05-29_10h20.30.749,face trait task,2021.2.3,MacIntel,60.24096386,120827,,,,,,,
,,,,,,1.583670125,1.6065,space,0.6561,0,9,9,8,1,9,image/9.jpg,0,0,,R_1q8WSTNQENILdNT,2,2024-05-29_10h20.30.749,face trait task,2021.2.3,MacIntel,60.24096386,120827,,,,,,,
,,,,,,1.032387665,1.3199,space,0.2891,0,10,10,45,1,46,image/46.jpg,0,0,,R_1q8WSTNQENILdNT,2,2024-05-29_10h20.30.749,face trait task,2021.2.3,MacIntel,60.24096386,120827,,,,,,,
,,,,,,4.180005728,2.0739,space,0.2237,0,11,11,2,1,3,image/3.jpg,0,0,,R_1q8WSTNQENILdNT,2,2024-05-29_10h20.30.749,face trait task,2021.2.3,MacIntel,60.24096386,120827,,,,,,,
,,,,,,1.982059891,2.9282,space,1.4749,0,12,12,22,1,23,image/23.jpg,0,0,,R_1q8WSTNQENILdNT,2,2024-05-29_10h20.30.749,face trait task,2021.2.3,MacIntel,60.24096386,120827,,,,,,,
,,,,,,3.988806326,2.6714,space,0.8561,0,13,13,0,1,1,image/1.jpg,0,0,,R_1q8WSTNQENILdNT,2,2024-05-29_10h20.30.749,face trait task,2021.2.3,MacIntel,60.24096386,120827,,,,,,,
,,,,,,6.332604061,1.8968,space,0.4563,0,14,14,35,1,36,image/36.jpg,0,0,,R_1q8WSTNQENILdNT,2,2024-05-29_10h20.30.749,face trait task,2021.2.3,MacIntel,60.24096386,120827,,,,,,,
,,,,,,6.627935654,1.3011,space,1.5678,0,15,15,17,1,18,image/18.jpg,0,0,,R_1q8WSTNQENILdNT,2,2024-05-29_10h20.30.749,face trait task,2021.2.3,MacIntel,60.24096386,120827,,,,,,,
,,,,,,2.375723969,1.4378,space,0.6371,0,16,16,11,1,12,image/12.jpg,0,0,,R_1q8WSTNQENILdNT,2,2024-05-29_10h20.30.749,face trait task,2021.2.3,MacIntel,60.24096386,120827,,,,,,,
,,,,,,1.030693101,2.9302,space,0.5702,0,17,17,47,1,48,image/48.jpg,0,0,,R_1q8WSTNQENILdNT,2,2024-05-29_10h20.30.749,face trait task,2021.2.3,MacIntel,60.24096386,120827,,,,,,,
,,,,,,1.709425916,1.9523,space,0.502,0,18,18,10,1,11,image/11.jpg,0,0,,R_1q8WSTNQENILdNT,2,2024-05-29_10h20.30.749,face trait task,2021.2.3,MacIntel,60.24096386,120827,,,,,,,
,,,,,,1.473714358,1.1235,space,0.5027,0,19,19,41,1,42,image/42.jpg,0,0,,R_1q8WSTNQENILdNT,2,2024-05-29_10h20.30.749,face trait task,2021.2.3,MacIntel,60.24096386,120827,,,,,,,
,,,,,,4.092723714,2.7145,space,0.6544,0,20,20,31,1,32,image/32.jpg,0,0,,R_1q8WSTNQENILdNT,2,2024-05-29_10h20.30.749,face trait task,2021.2.3,MacIntel,60.24096386,120827,,,,,,,
,,,,,,5.959871436,2.0537,space,0.3583,0,21,21,36,1,37,image/37.jpg,0,0,,R_1q8WSTNQENILdNT,2,2024-05-29_10h20.30.749,face trait task,2021.2.3,MacIntel,60.24096386,120827,,,,,,,
,,,,,,5.961780804,1.4684,space,0.3451,0,22,22,21,1,22,image/22.jpg,0,0,,R_1q8WSTNQENILdNT,2,2024-05-29_10h20.30.749,face trait task,2021.2.3,MacIntel,60.24096386,120827,,,,,,,
,,,,,,6.133480779,1.4028,space,0.5632,0,23,23,18,1,19,image/19.jpg,0,0,,R_1q8WSTNQENILdNT,2,2024-05-29_10h20.30.749,face trait task,2021.2.3,MacIntel,60.24096386,120827,,,,,,,
,,,,,,6.133480779,1.8233,space,0.6692,0,24,24,25,1,26,image/26.jpg,0,0,,R_1q8WSTNQENILdNT,2,2024-05-29_10h20.30.749,face trait task,2021.2.3,MacIntel,60.24096386,120827,,,,,,,
,,,,,,6.979498154,2.7237,space,0.5005,0,25,25,51,1,58,image/fill_img.png,1,7,Please move the slider all the way to the RIGHT to show that you are paying attention.,R_1q8WSTNQENILdNT,2,2024-05-29_10h20.30.749,face trait task,2021.2.3,MacIntel,60.24096386,120827,,,,,,,
,,,,,,3.49914874,2.2193,space,0.5436,0,26,26,28,1,29,image/29.jpg,0,0,,R_1q8WSTNQENILdNT,2,2024-05-29_10h20.30.749,face trait task,2021.2.3,MacIntel,60.24096386,120827,,,,,,,
,,,,,,5.997318928,2.2089,space,0.3547,0,27,27,3,1,4,image/4.jpg,0,0,,R_1q8WSTNQENILdNT,2,2024-05-29_10h20.30.749,face trait task,2021.2.3,MacIntel,60.24096386,120827,,,,,,,
,,,,,,1.038760183,1.888,space,0.3858,0,28,28,40,1,41,image/41.jpg,0,0,,R_1q8WSTNQENILdNT,2,2024-05-29_10h20.30.749,face trait task,2021.2.3,MacIntel,60.24096386,120827,,,,,,,
,,,,,,6.026747072,1.9826,space,0.3355,0,29,29,4,1,5,image/5.jpg,0,0,,R_1q8WSTNQENILdNT,2,2024-05-29_10h20.30.749,face trait task,2021.2.3,MacIntel,60.24096386,120827,,,,,,,
,,,,,,3.445710285,1.6549,space,0.3904,0,30,30,15,1,16,image/16.jpg,0,0,,R_1q8WSTNQENILdNT,2,2024-05-29_10h20.30.749,face trait task,2021.2.3,MacIntel,60.24096386,120827,,,,,,,
,,,,,,1.012219959,3.267,space,0.3677,0,31,31,50,1,52,image/fill_img.png,1,1,Please move the slider all the way to the LEFT to show that you are paying attention.,R_1q8WSTNQENILdNT,2,2024-05-29_10h20.30.749,face trait task,2021.2.3,MacIntel,60.24096386,120827,,,,,,,
,,,,,,2.02077234,2.3227,space,0.3547,0,32,32,6,1,7,image/7.jpg,0,0,,R_1q8WSTNQENILdNT,2,2024-05-29_10h20.30.749,face trait task,2021.2.3,MacIntel,60.24096386,120827,,,,,,,
,,,,,,1.313327393,1.4077,space,0.7664,0,33,33,38,1,39,image/39.jpg,0,0,,R_1q8WSTNQENILdNT,2,2024-05-29_10h20.30.749,face trait task,2021.2.3,MacIntel,60.24096386,120827,,,,,,,
,,,,,,2.081370927,1.8367,space,0.5233,0,34,34,23,1,24,image/24.jpg,0,0,,R_1q8WSTNQENILdNT,2,2024-05-29_10h20.30.749,face trait task,2021.2.3,MacIntel,60.24096386,120827,,,,,,,
,,,,,,2.667260692,1.7071,space,0.3771,0,35,35,14,1,15,image/15.jpg,0,0,,R_1q8WSTNQENILdNT,2,2024-05-29_10h20.30.749,face trait task,2021.2.3,MacIntel,60.24096386,120827,,,,,,,
,,,,,,2.22684095,2.7289,space,0.3755,0,36,36,7,1,8,image/8.jpg,0,0,,R_1q8WSTNQENILdNT,2,2024-05-29_10h20.30.749,face trait task,2021.2.3,MacIntel,60.24096386,120827,,,,,,,
,,,,,,4.027829048,3.4374,space,1.5891,0,37,37,26,1,27,image/27.jpg,0,0,,R_1q8WSTNQENILdNT,2,2024-05-29_10h20.30.749,face trait task,2021.2.3,MacIntel,60.24096386,120827,,,,,,,
,,,,,,4.027829048,1.7092,space,1.0283,0,38,38,32,1,33,image/33.jpg,0,0,,R_1q8WSTNQENILdNT,2,2024-05-29_10h20.30.749,face trait task,2021.2.3,MacIntel,60.24096386,120827,,,,,,,
,,,,,,3.539078411,2.3211,space,0.3957,0,39,39,19,1,20,image/20.jpg,0,0,,R_1q8WSTNQENILdNT,2,2024-05-29_10h20.30.749,face trait task,2021.2.3,MacIntel,60.24096386,120827,,,,,,,
,,,,,,3.836152304,2.2805,space,0.2697,0,40,40,27,1,28,image/28.jpg,0,0,,R_1q8WSTNQENILdNT,2,2024-05-29_10h20.30.749,face trait task,2021.2.3,MacIntel,60.24096386,120827,,,,,,,
,,,,,,2.466466713,2.0027,space,0.6195,0,41,41,44,1,45,image/45.jpg,0,0,,R_1q8WSTNQENILdNT,2,2024-05-29_10h20.30.749,face trait task,2021.2.3,MacIntel,60.24096386,120827,,,,,,,
,,,,,,3.688128501,3.0862,space,1.649,0,42,42,24,1,25,image/25.jpg,0,0,,R_1q8WSTNQENILdNT,2,2024-05-29_10h20.30.749,face trait task,2021.2.3,MacIntel,60.24096386,120827,,,,,,,
,,,,,,3.038656759,1.6201,space,0.3066,0,43,43,49,1,50,image/50.jpg,0,0,,R_1q8WSTNQENILdNT,2,2024-05-29_10h20.30.749,face trait task,2021.2.3,MacIntel,60.24096386,120827,,,,,,,
,,,,,,2.802085985,3.9638,space,0.2721,0,44,44,9,1,10,image/10.jpg,0,0,,R_1q8WSTNQENILdNT,2,2024-05-29_10h20.30.749,face trait task,2021.2.3,MacIntel,60.24096386,120827,,,,,,,
,,,,,,3.984080639,2.2883,space,0.3708,0,45,45,29,1,30,image/30.jpg,0,0,,R_1q8WSTNQENILdNT,2,2024-05-29_10h20.30.749,face trait task,2021.2.3,MacIntel,60.24096386,120827,,,,,,,
,,,,,,2.595993508,2.3805,space,0.4229,0,46,46,5,1,6,image/6.jpg,0,0,,R_1q8WSTNQENILdNT,2,2024-05-29_10h20.30.749,face trait task,2021.2.3,MacIntel,60.24096386,120827,,,,,,,
,,,,,,4.706872136,1.5377,space,0.6539,0,47,47,34,1,35,image/35.jpg,0,0,,R_1q8WSTNQENILdNT,2,2024-05-29_10h20.30.749,face trait task,2021.2.3,MacIntel,60.24096386,120827,,,,,,,
,,,,,,5.802849733,1.3118,space,0.6115,0,48,48,16,1,17,image/17.jpg,0,0,,R_1q8WSTNQENILdNT,2,2024-05-29_10h20.30.749,face trait task,2021.2.3,MacIntel,60.24096386,120827,,,,,,,
,,,,,,2.396273549,1.9056,space,0.4517,0,49,49,30,1,31,image/31.jpg,0,0,,R_1q8WSTNQENILdNT,2,2024-05-29_10h20.30.749,face trait task,2021.2.3,MacIntel,60.24096386,120827,,,,,,,
,,,,,,5.347513047,2.1569,space,0.4225,0,50,50,1,1,2,image/2.jpg,0,0,,R_1q8WSTNQENILdNT,2,2024-05-29_10h20.30.749,face trait task,2021.2.3,MacIntel,60.24096386,120827,,,,,,,
,,,,,,2.301568865,1.5467,space,0.37,0,51,51,42,1,43,image/43.jpg,0,0,,R_1q8WSTNQENILdNT,2,2024-05-29_10h20.30.749,face trait task,2021.2.3,MacIntel,60.24096386,120827,,,,,,,
,,,,,,7,2.7186,space,1.1737,0,52,52,52,1,56,image/fill_img.png,1,7,Please move the slider all the way to the RIGHT to show that you are paying attention.,R_1q8WSTNQENILdNT,2,2024-05-29_10h20.30.749,face trait task,2021.2.3,MacIntel,60.24096386,120827,,,,,,,
,,,,,,,,,,,,,,,,,,,,R_1q8WSTNQENILdNT,2,2024-05-29_10h20.30.749,face trait task,2021.2.3,MacIntel,60.24096386,120827,0,2,2,2,1,2,trustworthy.png
,,,,,competent,4.300105015,1.9719,space,0.347,0,0,0,29,1,30,image/30.jpg,0,0,,R_1q8WSTNQENILdNT,2,2024-05-29_10h20.30.749,face trait task,2021.2.3,MacIntel,60.24096386,120827,,,,,,,
,,,,,,4.224899758,2.3035,space,1.276,0,1,1,32,1,33,image/33.jpg,0,0,,R_1q8WSTNQENILdNT,2,2024-05-29_10h20.30.749,face trait task,2021.2.3,MacIntel,60.24096386,120827,,,,,,,
,,,,,,4.439226387,1.9366,space,0.5402,0,2,2,24,1,25,image/25.jpg,0,0,,R_1q8WSTNQENILdNT,2,2024-05-29_10h20.30.749,face trait task,2021.2.3,MacIntel,60.24096386,120827,,,,,,,
,,,,,,4.452735171,1.5368,space,0.9695,0,3,3,22,1,23,image/23.jpg,0,0,,R_1q8WSTNQENILdNT,2,2024-05-29_10h20.30.749,face trait task,2021.2.3,MacIntel,60.24096386,120827,,,,,,,
,,,,,,4.375381874,1.8525,space,0.4536,0,4,4,10,1,11,image/11.jpg,0,0,,R_1q8WSTNQENILdNT,2,2024-05-29_10h20.30.749,face trait task,2021.2.3,MacIntel,60.24096386,120827,,,,,,,
,,,,,,4.274638811,1.3947,space,0.5555,0,5,5,37,1,38,image/38.jpg,0,0,,R_1q8WSTNQENILdNT,2,2024-05-29_10h20.30.749,face trait task,2021.2.3,MacIntel,60.24096386,120827,,,,,,,
,,,,,,4.393592477,1.4073,space,0.5366,0,6,6,49,1,50,image/50.jpg,0,0,,R_1q8WSTNQENILdNT,2,2024-05-29_10h20.30.749,face trait task,2021.2.3,MacIntel,60.24096386,120827,,,,,,,
,,,,,,4.459131555,1.688,space,0.5757,0,7,7,35,1,36,image/36.jpg,0,0,,R_1q8WSTNQENILdNT,2,2024-05-29_10h20.30.749,face trait task,2021.2.3,MacIntel,60.24096386,120827,,,,,,,
,,,,,,4.323470914,1.4205,space,0.7086,0,8,8,45,1,46,image/46.jpg,0,0,,R_1q8WSTNQENILdNT,2,2024-05-29_10h20.30.749,face trait task,2021.2.3,MacIntel,60.24096386,120827,,,,,,,
,,,,,,4.565125382,1.2689,space,0.438,0,9,9,12,1,13,image/13.jpg,0,0,,R_1q8WSTNQENILdNT,2,2024-05-29_10h20.30.749,face trait task,2021.2.3,MacIntel,60.24096386,120827,,,,,,,
,,,,,,4.296882956,1.4538,space,0.4085,0,10,10,46,1,47,image/47.jpg,0,0,,R_1q8WSTNQENILdNT,2,2024-05-29_10h20.30.749,face trait task,2021.2.3,MacIntel,60.24096386,120827,,,,,,,
,,,,,,4.257955703,2.9771,space,0.4775,0,11,11,15,1,16,image/16.jpg,0,0,,R_1q8WSTNQENILdNT,2,2024-05-29_10h20.30.749,face trait task,2021.2.3,MacIntel,60.24096386,120827,,,,,,,
,,,,,,4.597107307,2.0383,space,0.6702,0,12,12,19,1,20,image/20.jpg,0,0,,R_1q8WSTNQENILdNT,2,2024-05-29_10h20.30.749,face trait task,2021.2.3,MacIntel,60.24096386,120827,,,,,,,
,,,,,,4.701716841,1.861,space,0.3903,0,13,13,41,1,42,image/42.jpg,0,0,,R_1q8WSTNQENILdNT,2,2024-05-29_10h20.30.749,face trait task,2021.2.3,MacIntel,60.24096386,120827,,,,,,,
,,,,,,4.758305754,1.4387,space,0.3578,0,14,14,36,1,37,image/37.jpg,0,0,,R_1q8WSTNQENILdNT,2,2024-05-29_10h20.30.749,face trait task,2021.2.3,MacIntel,60.24096386,120827,,,,,,,
,,,,,,4.801505219,1.3739,space,0.3219,0,15,15,5,1,6,image/6.jpg,0,0,,R_1q8WSTNQENILdNT,2,2024-05-29_10h20.30.749,face trait task,2021.2.3,MacIntel,60.24096386,120827,,,,,,,
,,,,,,4.260151477,1.2547,space,1.1889,0,16,16,8,1,9,image/9.jpg,0,0,,R_1q8WSTNQENILdNT,2,2024-05-29_10h20.30.749,face trait task,2021.2.3,MacIntel,60.24096386,120827,,,,,,,
,,,,,,4.383377355,1.645,space,0.4424,0,17,17,31,1,32,image/32.jpg,0,0,,R_1q8WSTNQENILdNT,2,2024-05-29_10h20.30.749,face trait task,2021.2.3,MacIntel,60.24096386,120827,,,,,,,
,,,,,,4.557249236,1.3817,space,0.3527,0,18,18,33,1,34,image/34.jpg,0,0,,R_1q8WSTNQENILdNT,2,2024-05-29_10h20.30.749,face trait task,2021.2.3,MacIntel,60.24096386,120827,,,,,,,
,,,,,,7,2.8705,space,1.2272,0,19,19,51,1,58,image/fill_img.png,1,7,Please move the slider all the way to the RIGHT to show that you are paying attention.,R_1q8WSTNQENILdNT,2,2024-05-29_10h20.30.749,face trait task,2021.2.3,MacIntel,60.24096386,120827,,,,,,,
,,,,,,1.008305754,2.7633,space,0.4723,0,20,20,50,1,52,image/fill_img.png,1,1,Please move the slider all the way to the LEFT to show that you are paying attention.,R_1q8WSTNQENILdNT,2,2024-05-29_10h20.30.749,face trait task,2021.2.3,MacIntel,60.24096386,120827,,,,,,,
,,,,,,4.486889002,2.1025,space,1.2239,0,21,21,40,1,41,image/41.jpg,0,0,,R_1q8WSTNQENILdNT,2,2024-05-29_10h20.30.749,face trait task,2021.2.3,MacIntel,60.24096386,120827,,,,,,,
,,,,,,4.657109216,1.4278,space,0.3536,0,22,22,9,1,10,image/10.jpg,0,0,,R_1q8WSTNQENILdNT,2,2024-05-29_10h20.30.749,face trait task,2021.2.3,MacIntel,60.24096386,120827,,,,,,,
,,,,,,4.74727915,1.7476,space,0.3704,0,23,23,14,1,15,image/15.jpg,0,0,,R_1q8WSTNQENILdNT,2,2024-05-29_10h20.30.749,face trait task,2021.2.3,MacIntel,60.24096386,120827,,,,,,,
,,,,,,4.983802189,1.2435,space,0.3223,0,24,24,20,1,21,image/21.jpg,0,0,,R_1q8WSTNQENILdNT,2,2024-05-29_10h20.30.749,face trait task,2021.2.3,MacIntel,60.24096386,120827,,,,,,,
,,,,,,4.836279595,1.5057,space,0.1863,0,25,25,11,1,12,image/12.jpg,0,0,,R_1q8WSTNQENILdNT,2,2024-05-29_10h20.30.749,face trait task,2021.2.3,MacIntel,60.24096386,120827,,,,,,,
,,,,,,4.443641802,1.9039,space,0.162,0,26,26,48,1,49,image/49.jpg,0,0,,R_1q8WSTNQENILdNT,2,2024-05-29_10h20.30.749,face trait task,2021.2.3,MacIntel,60.24096386,120827,,,,,,,
,,,,,,5.176433618,2.9922,space,0.5317,0,27,27,25,1,26,image/26.jpg,0,0,,R_1q8WSTNQENILdNT,2,2024-05-29_10h20.30.749,face trait task,2021.2.3,MacIntel,60.24096386,120827,,,,,,,
,,,,,,5.176433618,1.522,space,1.4532,0,28,28,23,1,24,image/24.jpg,0,0,,R_1q8WSTNQENILdNT,2,2024-05-29_10h20.30.749,face trait task,2021.2.3,MacIntel,60.24096386,120827,,,,,,,
,,,,,,5.28741567,2.5951,space,1.4505,0,29,29,43,1,44,image/44.jpg,0,0,,R_1q8WSTNQENILdNT,2,2024-05-29_10h20.30.749,face trait task,2021.2.3,MacIntel,60.24096386,120827,,,,,,,
,,,,,,5.416512856,2.0681,space,1.5672,0,30,30,3,1,4,image/4.jpg,0,0,,R_1q8WSTNQENILdNT,2,2024-05-29_10h20.30.749,face trait task,2021.2.3,MacIntel,60.24096386,120827,,,,,,,
,,,,,,7,2.8009,space,0.9005,0,31,31,52,1,56,image/fill_img.png,1,7,Please move the slider all the way to the RIGHT to show that you are paying attention.,R_1q8WSTNQENILdNT,2,2024-05-29_10h20.30.749,face trait task,2021.2.3,MacIntel,60.24096386,120827,,,,,,,
,,,,,,4.436242999,2.4585,space,0.3156,0,32,32,38,1,39,image/39.jpg,0,0,,R_1q8WSTNQENILdNT,2,2024-05-29_10h20.30.749,face trait task,2021.2.3,MacIntel,60.24096386,120827,,,,,,,
,,,,,,4.095420698,4.3637,space,0.5991,0,33,33,30,1,31,image/31.jpg,0,0,,R_1q8WSTNQENILdNT,2,2024-05-29_10h20.30.749,face trait task,2021.2.3,MacIntel,60.24096386,120827,,,,,,,
,,,,,,4.361777622,1.7551,space,0.7719,0,34,34,44,1,45,image/45.jpg,0,0,,R_1q8WSTNQENILdNT,2,2024-05-29_10h20.30.749,face trait task,2021.2.3,MacIntel,60.24096386,120827,,,,,,,
,,,,,,4.600687373,1.9493,space,0.5852,0,35,35,16,1,17,image/17.jpg,0,0,,R_1q8WSTNQENILdNT,2,2024-05-29_10h20.30.749,face trait task,2021.2.3,MacIntel,60.24096386,120827,,,,,,,
,,,,,,4.946879773,1.5416,space,0.474,0,36,36,17,1,18,image/18.jpg,0,0,,R_1q8WSTNQENILdNT,2,2024-05-29_10h20.30.749,face trait task,2021.2.3,MacIntel,60.24096386,120827,,,,,,,
,,,,,,5.08910387,1.8204,space,0.5151,0,37,37,42,1,43,image/43.jpg,0,0,,R_1q8WSTNQENILdNT,2,2024-05-29_10h20.30.749,face trait task,2021.2.3,MacIntel,60.24096386,120827,,,,,,,
,,,,,,5.166218495,1.4766,space,0.2021,0,38,38,34,1,35,image/35.jpg,0,0,,R_1q8WSTNQENILdNT,2,2024-05-29_10h20.30.749,face trait task,2021.2.3,MacIntel,60.24096386,120827,,,,,,,
,,,,,,5.0636854,1.5791,space,0.4519,0,39,39,26,1,27,image/27.jpg,0,0,,R_1q8WSTNQENILdNT,2,2024-05-29_10h20.30.749,face trait task,2021.2.3,MacIntel,60.24096386,120827,,,,,,,
,,,,,,4.817949656,2.6805,space,0.3561,0,40,40,39,1,40,image/40.jpg,0,0,,R_1q8WSTNQENILdNT,2,2024-05-29_10h20.30.749,face trait task,2021.2.3,MacIntel,60.24096386,120827,,,,,,,
,,,,,,4.378938073,2.1924,space,0.8516,0,41,41,47,1,48,image/48.jpg,0,0,,R_1q8WSTNQENILdNT,2,2024-05-29_10h20.30.749,face trait task,2021.2.3,MacIntel,60.24096386,120827,,,,,,,
,,,,,,4.425049325,2.7058,space,1.178,0,42,42,13,1,14,image/14.jpg,0,0,,R_1q8WSTNQENILdNT,2,2024-05-29_10h20.30.749,face trait task,2021.2.3,MacIntel,60.24096386,120827,,,,,,,
,,,,,,4.394236889,2.0529,space,0.4106,0,43,43,6,1,7,image/7.jpg,0,0,,R_1q8WSTNQENILdNT,2,2024-05-29_10h20.30.749,face trait task,2021.2.3,MacIntel,60.24096386,120827,,,,,,,
,,,,,,5.627331021,1.9449,space,0.6196,0,44,44,4,1,5,image/5.jpg,0,0,,R_1q8WSTNQENILdNT,2,2024-05-29_10h20.30.749,face trait task,2021.2.3,MacIntel,60.24096386,120827,,,,,,,
,,,,,,4.853153641,1.8572,space,0.2629,0,45,45,7,1,8,image/8.jpg,0,0,,R_1q8WSTNQENILdNT,2,2024-05-29_10h20.30.749,face trait task,2021.2.3,MacIntel,60.24096386,120827,,,,,,,
,,,,,,5.619550344,1.1039,space,0.6113,0,46,46,2,1,3,image/3.jpg,0,0,,R_1q8WSTNQENILdNT,2,2024-05-29_10h20.30.749,face trait task,2021.2.3,MacIntel,60.24096386,120827,,,,,,,
,,,,,,5.179918215,1.3183,space,0.4545,0,47,47,21,1,22,image/22.jpg,0,0,,R_1q8WSTNQENILdNT,2,2024-05-29_10h20.30.749,face trait task,2021.2.3,MacIntel,60.24096386,120827,,,,,,,
,,,,,,5.395724605,1.5297,space,0.6764,0,48,48,0,1,1,image/1.jpg,0,0,,R_1q8WSTNQENILdNT,2,2024-05-29_10h20.30.749,face trait task,2021.2.3,MacIntel,60.24096386,120827,,,,,,,
,,,,,,5.29500541,1.9899,space,0.5367,0,49,49,27,1,28,image/28.jpg,0,0,,R_1q8WSTNQENILdNT,2,2024-05-29_10h20.30.749,face trait task,2021.2.3,MacIntel,60.24096386,120827,,,,,,,
,,,,,,5.377108261,1.6721,space,0.6069,0,50,50,18,1,19,image/19.jpg,0,0,,R_1q8WSTNQENILdNT,2,2024-05-29_10h20.30.749,face trait task,2021.2.3,MacIntel,60.24096386,120827,,,,,,,
,,,,,,5.456943737,1.7292,space,1.121,0,51,51,1,1,2,image/2.jpg,0,0,,R_1q8WSTNQENILdNT,2,2024-05-29_10h20.30.749,face trait task,2021.2.3,MacIntel,60.24096386,120827,,,,,,,
,,,,,,4.113344896,2.4922,space,1.9032,0,52,52,28,1,29,image/29.jpg,0,0,,R_1q8WSTNQENILdNT,2,2024-05-29_10h20.30.749,face trait task,2021.2.3,MacIntel,60.24096386,120827,,,,,,,
,,,,,,,,,,,,,,,,,,,,R_1q8WSTNQENILdNT,2,2024-05-29_10h20.30.749,face trait task,2021.2.3,MacIntel,60.24096386,120827,0,3,3,1,1,1,competent.png
