key_resp.keys,key_resp.rt,key_resp_4.keys,key_resp_4.rt,slider_face_judge.response,slider_face_judge.rt,key_resp_3.keys,key_resp_3.rt,face_loop.thisRepN,face_loop.thisTrialN,face_loop.thisN,face_loop.thisIndex,face_loop.ran,face_serial,image_name,isCheck,participant,session,date,expName,psychopyVersion,OS,frameRate,SONAid,session.thisRepN,session.thisTrialN,session.thisN,session.thisIndex,session.ran,session_serial,slider_judge_img
space,1.7265,space,0.8954,3.936694743,2.128,space,0.5321,0,0,0,15,1,16,image/16.jpg,0,R_1QmCurp1iHFSiD1,2,2024-04-06_23h57.38.817,face trait task,2021.2.3,MacIntel,60.24096386,SONAid,,,,,,,
,,,,4.748410238,1.6131,space,0.4591,0,1,1,47,1,48,image/48.jpg,0,R_1QmCurp1iHFSiD1,2,2024-04-06_23h57.38.817,face trait task,2021.2.3,MacIntel,60.24096386,SONAid,,,,,,,
,,,,4.846565755,1.5199,space,0.3567,0,2,2,35,1,36,image/36.jpg,0,R_1QmCurp1iHFSiD1,2,2024-04-06_23h57.38.817,face trait task,2021.2.3,MacIntel,60.24096386,SONAid,,,,,,,
,,,,4.929511312,1.4052,space,0.6022,0,3,3,51,1,51,image/51.jpg,1,R_1QmCurp1iHFSiD1,2,2024-04-06_23h57.38.817,face trait task,2021.2.3,MacIntel,60.24096386,SONAid,,,,,,,
,,,,4.845435791,1.7387,space,0.366,0,4,4,26,1,27,image/27.jpg,0,R_1QmCurp1iHFSiD1,2,2024-04-06_23h57.38.817,face trait task,2021.2.3,MacIntel,60.24096386,SONAid,,,,,,,
,,,,4.845435791,1.1408,space,0.3667,0,5,5,37,1,38,image/38.jpg,0,R_1QmCurp1iHFSiD1,2,2024-04-06_23h57.38.817,face trait task,2021.2.3,MacIntel,60.24096386,SONAid,,,,,,,
,,,,4.845435791,1.0218,space,0.3915,0,6,6,49,1,50,image/50.jpg,0,R_1QmCurp1iHFSiD1,2,2024-04-06_23h57.38.817,face trait task,2021.2.3,MacIntel,60.24096386,SONAid,,,,,,,
,,,,4.845435791,1.4708,space,0.4034,0,7,7,41,1,42,image/42.jpg,0,R_1QmCurp1iHFSiD1,2,2024-04-06_23h57.38.817,face trait task,2021.2.3,MacIntel,60.24096386,SONAid,,,,,,,
,,,,4.845435791,0.9566,space,0.4426,0,8,8,44,1,45,image/45.jpg,0,R_1QmCurp1iHFSiD1,2,2024-04-06_23h57.38.817,face trait task,2021.2.3,MacIntel,60.24096386,SONAid,,,,,,,
,,,,4.847154541,1.0224,space,0.4105,0,9,9,29,1,30,image/30.jpg,0,R_1QmCurp1iHFSiD1,2,2024-04-06_23h57.38.817,face trait task,2021.2.3,MacIntel,60.24096386,SONAid,,,,,,,
,,,,4.847154541,1.0572,space,0.3578,0,10,10,6,1,7,image/7.jpg,0,R_1QmCurp1iHFSiD1,2,2024-04-06_23h57.38.817,face trait task,2021.2.3,MacIntel,60.24096386,SONAid,,,,,,,
,,,,4.847154541,1.0536,space,0.3611,0,11,11,48,1,49,image/49.jpg,0,R_1QmCurp1iHFSiD1,2,2024-04-06_23h57.38.817,face trait task,2021.2.3,MacIntel,60.24096386,SONAid,,,,,,,
,,,,4.950340576,1.4406,space,1.0016,0,12,12,16,1,17,image/17.jpg,0,R_1QmCurp1iHFSiD1,2,2024-04-06_23h57.38.817,face trait task,2021.2.3,MacIntel,60.24096386,SONAid,,,,,,,
,,,,3.385855393,9.4153,space,0.4145,0,13,13,21,1,22,image/22.jpg,0,R_1QmCurp1iHFSiD1,2,2024-04-06_23h57.38.817,face trait task,2021.2.3,MacIntel,60.24096386,SONAid,,,,,,,
,,,,3.449500749,1.0555,space,0.3842,0,14,14,46,1,47,image/47.jpg,0,R_1QmCurp1iHFSiD1,2,2024-04-06_23h57.38.817,face trait task,2021.2.3,MacIntel,60.24096386,SONAid,,,,,,,
,,,,3.449500749,0.6569,space,0.2886,0,15,15,32,1,33,image/33.jpg,0,R_1QmCurp1iHFSiD1,2,2024-04-06_23h57.38.817,face trait task,2021.2.3,MacIntel,60.24096386,SONAid,,,,,,,
,,,,3.608139892,2.9063,space,0.3576,0,16,16,38,1,39,image/39.jpg,0,R_1QmCurp1iHFSiD1,2,2024-04-06_23h57.38.817,face trait task,2021.2.3,MacIntel,60.24096386,SONAid,,,,,,,
,,,,3.59986552,1.0721,space,0.771,0,17,17,3,1,4,image/4.jpg,0,R_1QmCurp1iHFSiD1,2,2024-04-06_23h57.38.817,face trait task,2021.2.3,MacIntel,60.24096386,SONAid,,,,,,,
,,,,3.59986552,0.6233,space,0.8312,0,18,18,13,1,14,image/14.jpg,0,R_1QmCurp1iHFSiD1,2,2024-04-06_23h57.38.817,face trait task,2021.2.3,MacIntel,60.24096386,SONAid,,,,,,,
,,,,4.546699189,1.6897,space,0.2605,0,19,19,52,1,54,image/54.jpg,1,R_1QmCurp1iHFSiD1,2,2024-04-06_23h57.38.817,face trait task,2021.2.3,MacIntel,60.24096386,SONAid,,,,,,,
,,,,4.882299657,0.7397,space,0.6273,0,20,20,4,1,5,image/5.jpg,0,R_1QmCurp1iHFSiD1,2,2024-04-06_23h57.38.817,face trait task,2021.2.3,MacIntel,60.24096386,SONAid,,,,,,,
,,,,4.778545616,2.6254,space,0.2041,0,21,21,1,1,2,image/2.jpg,0,R_1QmCurp1iHFSiD1,2,2024-04-06_23h57.38.817,face trait task,2021.2.3,MacIntel,60.24096386,SONAid,,,,,,,
,,,,4.915490778,1.1424,space,0.2324,0,22,22,17,1,18,image/18.jpg,0,R_1QmCurp1iHFSiD1,2,2024-04-06_23h57.38.817,face trait task,2021.2.3,MacIntel,60.24096386,SONAid,,,,,,,
,,,,4.915490778,1.4421,space,1.8891,0,23,23,23,1,24,image/24.jpg,0,R_1QmCurp1iHFSiD1,2,2024-04-06_23h57.38.817,face trait task,2021.2.3,MacIntel,60.24096386,SONAid,,,,,,,
,,,,5.242096086,1.6237,space,0.4972,0,24,24,25,1,26,image/26.jpg,0,R_1QmCurp1iHFSiD1,2,2024-04-06_23h57.38.817,face trait task,2021.2.3,MacIntel,60.24096386,SONAid,,,,,,,
,,,,5.149684612,1.259,space,0.2371,0,25,25,34,1,35,image/35.jpg,0,R_1QmCurp1iHFSiD1,2,2024-04-06_23h57.38.817,face trait task,2021.2.3,MacIntel,60.24096386,SONAid,,,,,,,
,,,,4.956827738,2.1578,space,0.1481,0,26,26,5,1,6,image/6.jpg,0,R_1QmCurp1iHFSiD1,2,2024-04-06_23h57.38.817,face trait task,2021.2.3,MacIntel,60.24096386,SONAid,,,,,,,
,,,,4.870598082,1.4582,space,0.3689,0,27,27,36,1,37,image/37.jpg,0,R_1QmCurp1iHFSiD1,2,2024-04-06_23h57.38.817,face trait task,2021.2.3,MacIntel,60.24096386,SONAid,,,,,,,
,,,,4.752484251,1.1079,space,0.3855,0,28,28,0,1,1,image/1.jpg,0,R_1QmCurp1iHFSiD1,2,2024-04-06_23h57.38.817,face trait task,2021.2.3,MacIntel,60.24096386,SONAid,,,,,,,
,,,,4.66010214,3.2674,space,0.454,0,29,29,12,1,13,image/13.jpg,0,R_1QmCurp1iHFSiD1,2,2024-04-06_23h57.38.817,face trait task,2021.2.3,MacIntel,60.24096386,SONAid,,,,,,,
,,,,4.630716067,1.1758,space,0.4036,0,30,30,9,1,10,image/10.jpg,0,R_1QmCurp1iHFSiD1,2,2024-04-06_23h57.38.817,face trait task,2021.2.3,MacIntel,60.24096386,SONAid,,,,,,,
,,,,4.630716067,1.0582,space,0.4545,0,31,31,50,1,53,image/53.jpg,1,R_1QmCurp1iHFSiD1,2,2024-04-06_23h57.38.817,face trait task,2021.2.3,MacIntel,60.24096386,SONAid,,,,,,,
,,,,4.63281804,1.0061,space,0.5352,0,32,32,7,1,8,image/8.jpg,0,R_1QmCurp1iHFSiD1,2,2024-04-06_23h57.38.817,face trait task,2021.2.3,MacIntel,60.24096386,SONAid,,,,,,,
,,,,4.895300976,1.625,space,0.4228,0,33,33,40,1,41,image/41.jpg,0,R_1QmCurp1iHFSiD1,2,2024-04-06_23h57.38.817,face trait task,2021.2.3,MacIntel,60.24096386,SONAid,,,,,,,
,,,,4.922640479,1.0908,space,0.4592,0,34,34,8,1,9,image/9.jpg,0,R_1QmCurp1iHFSiD1,2,2024-04-06_23h57.38.817,face trait task,2021.2.3,MacIntel,60.24096386,SONAid,,,,,,,
,,,,4.63740648,1.1581,space,0.4868,0,35,35,42,1,43,image/43.jpg,0,R_1QmCurp1iHFSiD1,2,2024-04-06_23h57.38.817,face trait task,2021.2.3,MacIntel,60.24096386,SONAid,,,,,,,
,,,,4.824123088,2.4193,space,0.7045,0,36,36,19,1,20,image/20.jpg,0,R_1QmCurp1iHFSiD1,2,2024-04-06_23h57.38.817,face trait task,2021.2.3,MacIntel,60.24096386,SONAid,,,,,,,
,,,,4.998639498,2.3092,space,0.1284,0,37,37,45,1,46,image/46.jpg,0,R_1QmCurp1iHFSiD1,2,2024-04-06_23h57.38.817,face trait task,2021.2.3,MacIntel,60.24096386,SONAid,,,,,,,
,,,,4.820587851,1.624,space,0.2074,0,38,38,31,1,32,image/32.jpg,0,R_1QmCurp1iHFSiD1,2,2024-04-06_23h57.38.817,face trait task,2021.2.3,MacIntel,60.24096386,SONAid,,,,,,,
,,,,4.803231336,1.0759,space,0.4329,0,39,39,30,1,31,image/31.jpg,0,R_1QmCurp1iHFSiD1,2,2024-04-06_23h57.38.817,face trait task,2021.2.3,MacIntel,60.24096386,SONAid,,,,,,,
,,,,4.803231336,1.1764,space,0.6021,0,40,40,20,1,21,image/21.jpg,0,R_1QmCurp1iHFSiD1,2,2024-04-06_23h57.38.817,face trait task,2021.2.3,MacIntel,60.24096386,SONAid,,,,,,,
,,,,4.803231336,1.1768,space,0.5063,0,41,41,11,1,12,image/12.jpg,0,R_1QmCurp1iHFSiD1,2,2024-04-06_23h57.38.817,face trait task,2021.2.3,MacIntel,60.24096386,SONAid,,,,,,,
,,,,4.817040979,1.1414,space,0.4045,0,42,42,39,1,40,image/40.jpg,0,R_1QmCurp1iHFSiD1,2,2024-04-06_23h57.38.817,face trait task,2021.2.3,MacIntel,60.24096386,SONAid,,,,,,,
,,,,4.835658456,1.1419,space,0.3915,0,43,43,10,1,11,image/11.jpg,0,R_1QmCurp1iHFSiD1,2,2024-04-06_23h57.38.817,face trait task,2021.2.3,MacIntel,60.24096386,SONAid,,,,,,,
,,,,4.831471684,1.144,space,0.44,0,44,44,18,1,19,image/19.jpg,0,R_1QmCurp1iHFSiD1,2,2024-04-06_23h57.38.817,face trait task,2021.2.3,MacIntel,60.24096386,SONAid,,,,,,,
,,,,4.917312968,1.1766,space,0.4184,0,45,45,43,1,44,image/44.jpg,0,R_1QmCurp1iHFSiD1,2,2024-04-06_23h57.38.817,face trait task,2021.2.3,MacIntel,60.24096386,SONAid,,,,,,,
,,,,4.917312968,1.1588,space,0.4419,0,46,46,22,1,23,image/23.jpg,0,R_1QmCurp1iHFSiD1,2,2024-04-06_23h57.38.817,face trait task,2021.2.3,MacIntel,60.24096386,SONAid,,,,,,,
,,,,5.242160907,1.7434,space,0.4015,0,47,47,28,1,29,image/29.jpg,0,R_1QmCurp1iHFSiD1,2,2024-04-06_23h57.38.817,face trait task,2021.2.3,MacIntel,60.24096386,SONAid,,,,,,,
,,,,5.239555324,1.225,space,0.4421,0,48,48,14,1,15,image/15.jpg,0,R_1QmCurp1iHFSiD1,2,2024-04-06_23h57.38.817,face trait task,2021.2.3,MacIntel,60.24096386,SONAid,,,,,,,
,,,,2.970665821,1.4594,space,0.3383,0,49,49,24,1,25,image/25.jpg,0,R_1QmCurp1iHFSiD1,2,2024-04-06_23h57.38.817,face trait task,2021.2.3,MacIntel,60.24096386,SONAid,,,,,,,
,,,,3.306266288,1.8439,space,0.268,0,50,50,2,1,3,image/3.jpg,0,R_1QmCurp1iHFSiD1,2,2024-04-06_23h57.38.817,face trait task,2021.2.3,MacIntel,60.24096386,SONAid,,,,,,,
,,,,1.763565871,1.5258,space,0.3257,0,51,51,33,1,34,image/34.jpg,0,R_1QmCurp1iHFSiD1,2,2024-04-06_23h57.38.817,face trait task,2021.2.3,MacIntel,60.24096386,SONAid,,,,,,,
,,,,2.300625569,1.0941,space,0.3543,0,52,52,27,1,28,image/28.jpg,0,R_1QmCurp1iHFSiD1,2,2024-04-06_23h57.38.817,face trait task,2021.2.3,MacIntel,60.24096386,SONAid,,,,,,,
,,,,,,,,,,,,,,,,R_1QmCurp1iHFSiD1,2,2024-04-06_23h57.38.817,face trait task,2021.2.3,MacIntel,60.24096386,SONAid,0,0,0,2,1,2,trustworthy.png
,,,,4.641533971,1.8598,space,0.8595,0,0,0,47,1,48,image/48.jpg,0,R_1QmCurp1iHFSiD1,2,2024-04-06_23h57.38.817,face trait task,2021.2.3,MacIntel,60.24096386,SONAid,,,,,,,
,,,,4.801762614,4.144,space,0.4297,0,1,1,43,1,44,image/44.jpg,0,R_1QmCurp1iHFSiD1,2,2024-04-06_23h57.38.817,face trait task,2021.2.3,MacIntel,60.24096386,SONAid,,,,,,,
,,,,4.801762614,0.8943,space,0.5393,0,2,2,31,1,32,image/32.jpg,0,R_1QmCurp1iHFSiD1,2,2024-04-06_23h57.38.817,face trait task,2021.2.3,MacIntel,60.24096386,SONAid,,,,,,,
,,,,4.801762614,1.161,space,0.5068,0,3,3,4,1,5,image/5.jpg,0,R_1QmCurp1iHFSiD1,2,2024-04-06_23h57.38.817,face trait task,2021.2.3,MacIntel,60.24096386,SONAid,,,,,,,
,,,,5.122936255,1.5254,space,0.407,0,4,4,18,1,19,image/19.jpg,0,R_1QmCurp1iHFSiD1,2,2024-04-06_23h57.38.817,face trait task,2021.2.3,MacIntel,60.24096386,SONAid,,,,,,,
,,,,5.084804887,2.3773,space,1.5312,0,5,5,26,1,27,image/27.jpg,0,R_1QmCurp1iHFSiD1,2,2024-04-06_23h57.38.817,face trait task,2021.2.3,MacIntel,60.24096386,SONAid,,,,,,,
,,,,4.536986012,1.3122,space,0.3671,0,6,6,28,1,29,image/29.jpg,0,R_1QmCurp1iHFSiD1,2,2024-04-06_23h57.38.817,face trait task,2021.2.3,MacIntel,60.24096386,SONAid,,,,,,,
,,,,4.699687271,1.0281,space,0.5258,0,7,7,25,1,26,image/26.jpg,0,R_1QmCurp1iHFSiD1,2,2024-04-06_23h57.38.817,face trait task,2021.2.3,MacIntel,60.24096386,SONAid,,,,,,,
,,,,4.688627811,0.5609,space,0.3923,0,8,8,19,1,20,image/20.jpg,0,R_1QmCurp1iHFSiD1,2,2024-04-06_23h57.38.817,face trait task,2021.2.3,MacIntel,60.24096386,SONAid,,,,,,,
,,,,4.68651642,4.9113,space,0.5185,0,9,9,33,1,34,image/34.jpg,0,R_1QmCurp1iHFSiD1,2,2024-04-06_23h57.38.817,face trait task,2021.2.3,MacIntel,60.24096386,SONAid,,,,,,,
,,,,4.925228332,1.3772,space,0.3268,0,10,10,22,1,23,image/23.jpg,0,R_1QmCurp1iHFSiD1,2,2024-04-06_23h57.38.817,face trait task,2021.2.3,MacIntel,60.24096386,SONAid,,,,,,,
,,,,5.084638679,0.7271,space,0.3159,0,11,11,50,1,53,image/53.jpg,1,R_1QmCurp1iHFSiD1,2,2024-04-06_23h57.38.817,face trait task,2021.2.3,MacIntel,60.24096386,SONAid,,,,,,,
,,,,5.084638679,1.2096,space,0.4589,0,12,12,3,1,4,image/4.jpg,0,R_1QmCurp1iHFSiD1,2,2024-04-06_23h57.38.817,face trait task,2021.2.3,MacIntel,60.24096386,SONAid,,,,,,,
,,,,5.084638679,0.8111,space,0.5341,0,13,13,15,1,16,image/16.jpg,0,R_1QmCurp1iHFSiD1,2,2024-04-06_23h57.38.817,face trait task,2021.2.3,MacIntel,60.24096386,SONAid,,,,,,,
,,,,5.084638679,6.3266,space,0.4112,0,14,14,41,1,42,image/42.jpg,0,R_1QmCurp1iHFSiD1,2,2024-04-06_23h57.38.817,face trait task,2021.2.3,MacIntel,60.24096386,SONAid,,,,,,,
,,,,5.084638679,3.3601,space,0.3817,0,15,15,8,1,9,image/9.jpg,0,R_1QmCurp1iHFSiD1,2,2024-04-06_23h57.38.817,face trait task,2021.2.3,MacIntel,60.24096386,SONAid,,,,,,,
,,,,5.084638679,1.4626,space,0.3832,0,16,16,49,1,50,image/50.jpg,0,R_1QmCurp1iHFSiD1,2,2024-04-06_23h57.38.817,face trait task,2021.2.3,MacIntel,60.24096386,SONAid,,,,,,,
,,,,5.084638679,3.61,space,0.6311,0,17,17,21,1,22,image/22.jpg,0,R_1QmCurp1iHFSiD1,2,2024-04-06_23h57.38.817,face trait task,2021.2.3,MacIntel,60.24096386,SONAid,,,,,,,
,,,,5.084638679,1.1629,space,0.4398,0,18,18,16,1,17,image/17.jpg,0,R_1QmCurp1iHFSiD1,2,2024-04-06_23h57.38.817,face trait task,2021.2.3,MacIntel,60.24096386,SONAid,,,,,,,
,,,,5.084638679,0.5625,space,0.464,0,19,19,11,1,12,image/12.jpg,0,R_1QmCurp1iHFSiD1,2,2024-04-06_23h57.38.817,face trait task,2021.2.3,MacIntel,60.24096386,SONAid,,,,,,,
,,,,5.084638679,1.0125,space,0.4078,0,20,20,5,1,6,image/6.jpg,0,R_1QmCurp1iHFSiD1,2,2024-04-06_23h57.38.817,face trait task,2021.2.3,MacIntel,60.24096386,SONAid,,,,,,,
,,,,5.084638679,1.1778,space,0.3952,0,21,21,7,1,8,image/8.jpg,0,R_1QmCurp1iHFSiD1,2,2024-04-06_23h57.38.817,face trait task,2021.2.3,MacIntel,60.24096386,SONAid,,,,,,,
,,,,5.084638679,1.1931,space,0.4015,0,22,22,52,1,54,image/54.jpg,1,R_1QmCurp1iHFSiD1,2,2024-04-06_23h57.38.817,face trait task,2021.2.3,MacIntel,60.24096386,SONAid,,,,,,,
,,,,5.084638679,1.1432,space,0.3767,0,23,23,14,1,15,image/15.jpg,0,R_1QmCurp1iHFSiD1,2,2024-04-06_23h57.38.817,face trait task,2021.2.3,MacIntel,60.24096386,SONAid,,,,,,,
,,,,5.084638679,1.2136,space,0.437,0,24,24,40,1,41,image/41.jpg,0,R_1QmCurp1iHFSiD1,2,2024-04-06_23h57.38.817,face trait task,2021.2.3,MacIntel,60.24096386,SONAid,,,,,,,
,,,,5.084638679,1.2773,space,0.3939,0,25,25,35,1,36,image/36.jpg,0,R_1QmCurp1iHFSiD1,2,2024-04-06_23h57.38.817,face trait task,2021.2.3,MacIntel,60.24096386,SONAid,,,,,,,
,,,,5.084638679,0.9631,space,0.4103,0,26,26,37,1,38,image/38.jpg,0,R_1QmCurp1iHFSiD1,2,2024-04-06_23h57.38.817,face trait task,2021.2.3,MacIntel,60.24096386,SONAid,,,,,,,
,,,,5.084638679,1.0614,space,0.5784,0,27,27,20,1,21,image/21.jpg,0,R_1QmCurp1iHFSiD1,2,2024-04-06_23h57.38.817,face trait task,2021.2.3,MacIntel,60.24096386,SONAid,,,,,,,
,,,,5.084638679,1.1304,space,0.411,0,28,28,48,1,49,image/49.jpg,0,R_1QmCurp1iHFSiD1,2,2024-04-06_23h57.38.817,face trait task,2021.2.3,MacIntel,60.24096386,SONAid,,,,,,,
,,,,5.084638679,1.2441,space,0.4104,0,29,29,51,1,51,image/51.jpg,1,R_1QmCurp1iHFSiD1,2,2024-04-06_23h57.38.817,face trait task,2021.2.3,MacIntel,60.24096386,SONAid,,,,,,,
,,,,5.084638679,1.6099,space,0.4201,0,30,30,23,1,24,image/24.jpg,0,R_1QmCurp1iHFSiD1,2,2024-04-06_23h57.38.817,face trait task,2021.2.3,MacIntel,60.24096386,SONAid,,,,,,,
,,,,4.562873967,1.2938,space,0.3502,0,31,31,24,1,25,image/25.jpg,0,R_1QmCurp1iHFSiD1,2,2024-04-06_23h57.38.817,face trait task,2021.2.3,MacIntel,60.24096386,SONAid,,,,,,,
,,,,4.004679023,1.196,space,0.3612,0,32,32,9,1,10,image/10.jpg,0,R_1QmCurp1iHFSiD1,2,2024-04-06_23h57.38.817,face trait task,2021.2.3,MacIntel,60.24096386,SONAid,,,,,,,
,,,,3.549505144,1.7776,space,0.3288,0,33,33,42,1,43,image/43.jpg,0,R_1QmCurp1iHFSiD1,2,2024-04-06_23h57.38.817,face trait task,2021.2.3,MacIntel,60.24096386,SONAid,,,,,,,
,,,,4.008440857,1.277,space,0.3851,0,34,34,45,1,46,image/46.jpg,0,R_1QmCurp1iHFSiD1,2,2024-04-06_23h57.38.817,face trait task,2021.2.3,MacIntel,60.24096386,SONAid,,,,,,,
,,,,4.129478281,1.0628,space,0.3773,0,35,35,27,1,28,image/28.jpg,0,R_1QmCurp1iHFSiD1,2,2024-04-06_23h57.38.817,face trait task,2021.2.3,MacIntel,60.24096386,SONAid,,,,,,,
,,,,4.269804108,1.0305,space,0.3845,0,36,36,12,1,13,image/13.jpg,0,R_1QmCurp1iHFSiD1,2,2024-04-06_23h57.38.817,face trait task,2021.2.3,MacIntel,60.24096386,SONAid,,,,,,,
,,,,4.41066817,1.2119,space,0.3689,0,37,37,10,1,11,image/11.jpg,0,R_1QmCurp1iHFSiD1,2,2024-04-06_23h57.38.817,face trait task,2021.2.3,MacIntel,60.24096386,SONAid,,,,,,,
,,,,4.41066817,1.2274,space,0.537,0,38,38,6,1,7,image/7.jpg,0,R_1QmCurp1iHFSiD1,2,2024-04-06_23h57.38.817,face trait task,2021.2.3,MacIntel,60.24096386,SONAid,,,,,,,
,,,,4.556213471,1.6028,space,0.3784,0,39,39,36,1,37,image/37.jpg,0,R_1QmCurp1iHFSiD1,2,2024-04-06_23h57.38.817,face trait task,2021.2.3,MacIntel,60.24096386,SONAid,,,,,,,
,,,,4.556213471,1.1278,space,0.4188,0,40,40,0,1,1,image/1.jpg,0,R_1QmCurp1iHFSiD1,2,2024-04-06_23h57.38.817,face trait task,2021.2.3,MacIntel,60.24096386,SONAid,,,,,,,
,,,,4.556213471,1.2463,space,0.3918,0,41,41,46,1,47,image/47.jpg,0,R_1QmCurp1iHFSiD1,2,2024-04-06_23h57.38.817,face trait task,2021.2.3,MacIntel,60.24096386,SONAid,,,,,,,
,,,,4.556213471,1.1299,space,0.377,0,42,42,38,1,39,image/39.jpg,0,R_1QmCurp1iHFSiD1,2,2024-04-06_23h57.38.817,face trait task,2021.2.3,MacIntel,60.24096386,SONAid,,,,,,,
,,,,4.556213471,1.3963,space,0.3855,0,43,43,30,1,31,image/31.jpg,0,R_1QmCurp1iHFSiD1,2,2024-04-06_23h57.38.817,face trait task,2021.2.3,MacIntel,60.24096386,SONAid,,,,,,,
,,,,4.556213471,0.9853,space,0.4442,0,44,44,32,1,33,image/33.jpg,0,R_1QmCurp1iHFSiD1,2,2024-04-06_23h57.38.817,face trait task,2021.2.3,MacIntel,60.24096386,SONAid,,,,,,,
,,,,4.556213471,1.1802,space,0.4684,0,45,45,13,1,14,image/14.jpg,0,R_1QmCurp1iHFSiD1,2,2024-04-06_23h57.38.817,face trait task,2021.2.3,MacIntel,60.24096386,SONAid,,,,,,,
,,,,4.556213471,1.1682,space,0.3697,0,46,46,39,1,40,image/40.jpg,0,R_1QmCurp1iHFSiD1,2,2024-04-06_23h57.38.817,face trait task,2021.2.3,MacIntel,60.24096386,SONAid,,,,,,,
,,,,4.556213471,1.5198,space,0.3706,0,47,47,44,1,45,image/45.jpg,0,R_1QmCurp1iHFSiD1,2,2024-04-06_23h57.38.817,face trait task,2021.2.3,MacIntel,60.24096386,SONAid,,,,,,,
,,,,4.556213471,1.0323,space,0.3505,0,48,48,2,1,3,image/3.jpg,0,R_1QmCurp1iHFSiD1,2,2024-04-06_23h57.38.817,face trait task,2021.2.3,MacIntel,60.24096386,SONAid,,,,,,,
,,,,4.556213471,1.8638,space,0.335,0,49,49,17,1,18,image/18.jpg,0,R_1QmCurp1iHFSiD1,2,2024-04-06_23h57.38.817,face trait task,2021.2.3,MacIntel,60.24096386,SONAid,,,,,,,
,,,,4.558556446,1.0857,space,0.3719,0,50,50,29,1,30,image/30.jpg,0,R_1QmCurp1iHFSiD1,2,2024-04-06_23h57.38.817,face trait task,2021.2.3,MacIntel,60.24096386,SONAid,,,,,,,
,,,,4.661046754,1.8133,space,0.3009,0,51,51,34,1,35,image/35.jpg,0,R_1QmCurp1iHFSiD1,2,2024-04-06_23h57.38.817,face trait task,2021.2.3,MacIntel,60.24096386,SONAid,,,,,,,
,,,,4.769621372,1.1904,space,0.3837,0,52,52,1,1,2,image/2.jpg,0,R_1QmCurp1iHFSiD1,2,2024-04-06_23h57.38.817,face trait task,2021.2.3,MacIntel,60.24096386,SONAid,,,,,,,
,,,,,,,,,,,,,,,,R_1QmCurp1iHFSiD1,2,2024-04-06_23h57.38.817,face trait task,2021.2.3,MacIntel,60.24096386,SONAid,0,1,1,1,1,1,competent.png
,,,,4.450983506,2.2449,space,0.6444,0,0,0,27,1,28,image/28.jpg,0,R_1QmCurp1iHFSiD1,2,2024-04-06_23h57.38.817,face trait task,2021.2.3,MacIntel,60.24096386,SONAid,,,,,,,
,,,,4.463324981,1.0723,space,0.6181,0,1,1,24,1,25,image/25.jpg,0,R_1QmCurp1iHFSiD1,2,2024-04-06_23h57.38.817,face trait task,2021.2.3,MacIntel,60.24096386,SONAid,,,,,,,
,,,,4.467863559,1.1056,space,0.3441,0,2,2,35,1,36,image/36.jpg,0,R_1QmCurp1iHFSiD1,2,2024-04-06_23h57.38.817,face trait task,2021.2.3,MacIntel,60.24096386,SONAid,,,,,,,
,,,,4.467863559,0.6561,space,0.4772,0,3,3,1,1,2,image/2.jpg,0,R_1QmCurp1iHFSiD1,2,2024-04-06_23h57.38.817,face trait task,2021.2.3,MacIntel,60.24096386,SONAid,,,,,,,
,,,,4.467863559,0.7367,space,0.9014,0,4,4,38,1,39,image/39.jpg,0,R_1QmCurp1iHFSiD1,2,2024-04-06_23h57.38.817,face trait task,2021.2.3,MacIntel,60.24096386,SONAid,,,,,,,
,,,,4.467863559,1.0554,space,0.3689,0,5,5,46,1,47,image/47.jpg,0,R_1QmCurp1iHFSiD1,2,2024-04-06_23h57.38.817,face trait task,2021.2.3,MacIntel,60.24096386,SONAid,,,,,,,
,,,,4.467863559,0.5677,space,0.9427,0,6,6,49,1,50,image/50.jpg,0,R_1QmCurp1iHFSiD1,2,2024-04-06_23h57.38.817,face trait task,2021.2.3,MacIntel,60.24096386,SONAid,,,,,,,
,,,,4.467863559,1.0355,space,0.3191,0,7,7,22,1,23,image/23.jpg,0,R_1QmCurp1iHFSiD1,2,2024-04-06_23h57.38.817,face trait task,2021.2.3,MacIntel,60.24096386,SONAid,,,,,,,
,,,,4.467863559,0.9705,space,0.3674,0,8,8,43,1,44,image/44.jpg,0,R_1QmCurp1iHFSiD1,2,2024-04-06_23h57.38.817,face trait task,2021.2.3,MacIntel,60.24096386,SONAid,,,,,,,
,,,,4.467863559,0.706,space,0.5425,0,9,9,50,1,53,image/53.jpg,1,R_1QmCurp1iHFSiD1,2,2024-04-06_23h57.38.817,face trait task,2021.2.3,MacIntel,60.24096386,SONAid,,,,,,,
,,,,4.467863559,1.1036,space,0.4176,0,10,10,21,1,22,image/22.jpg,0,R_1QmCurp1iHFSiD1,2,2024-04-06_23h57.38.817,face trait task,2021.2.3,MacIntel,60.24096386,SONAid,,,,,,,
,,,,4.467863559,1.0704,space,0.5054,0,11,11,51,1,51,image/51.jpg,1,R_1QmCurp1iHFSiD1,2,2024-04-06_23h57.38.817,face trait task,2021.2.3,MacIntel,60.24096386,SONAid,,,,,,,
,,,,4.888119142,3.4203,space,0.3451,0,12,12,40,1,41,image/41.jpg,0,R_1QmCurp1iHFSiD1,2,2024-04-06_23h57.38.817,face trait task,2021.2.3,MacIntel,60.24096386,SONAid,,,,,,,
,,,,4.442565641,1.3557,space,0.3058,0,13,13,17,1,18,image/18.jpg,0,R_1QmCurp1iHFSiD1,2,2024-04-06_23h57.38.817,face trait task,2021.2.3,MacIntel,60.24096386,SONAid,,,,,,,
,,,,4.444657642,0.9073,space,0.3593,0,14,14,26,1,27,image/27.jpg,0,R_1QmCurp1iHFSiD1,2,2024-04-06_23h57.38.817,face trait task,2021.2.3,MacIntel,60.24096386,SONAid,,,,,,,
,,,,4.444657642,0.9691,space,0.369,0,15,15,34,1,35,image/35.jpg,0,R_1QmCurp1iHFSiD1,2,2024-04-06_23h57.38.817,face trait task,2021.2.3,MacIntel,60.24096386,SONAid,,,,,,,
,,,,4.569133903,1.3398,space,0.5108,0,16,16,0,1,1,image/1.jpg,0,R_1QmCurp1iHFSiD1,2,2024-04-06_23h57.38.817,face trait task,2021.2.3,MacIntel,60.24096386,SONAid,,,,,,,
,,,,4.710541187,1.09,space,0.5018,0,17,17,28,1,29,image/29.jpg,0,R_1QmCurp1iHFSiD1,2,2024-04-06_23h57.38.817,face trait task,2021.2.3,MacIntel,60.24096386,SONAid,,,,,,,
,,,,4.710541187,0.9569,space,0.327,0,18,18,31,1,32,image/32.jpg,0,R_1QmCurp1iHFSiD1,2,2024-04-06_23h57.38.817,face trait task,2021.2.3,MacIntel,60.24096386,SONAid,,,,,,,
,,,,4.710541187,1.0063,space,0.4565,0,19,19,32,1,33,image/33.jpg,0,R_1QmCurp1iHFSiD1,2,2024-04-06_23h57.38.817,face trait task,2021.2.3,MacIntel,60.24096386,SONAid,,,,,,,
,,,,4.710541187,1.1575,space,0.4018,0,20,20,33,1,34,image/34.jpg,0,R_1QmCurp1iHFSiD1,2,2024-04-06_23h57.38.817,face trait task,2021.2.3,MacIntel,60.24096386,SONAid,,,,,,,
,,,,4.710541187,1.2721,space,0.8521,0,21,21,37,1,38,image/38.jpg,0,R_1QmCurp1iHFSiD1,2,2024-04-06_23h57.38.817,face trait task,2021.2.3,MacIntel,60.24096386,SONAid,,,,,,,
,,,,4.710541187,1.3896,space,1.0169,0,22,22,52,1,54,image/54.jpg,1,R_1QmCurp1iHFSiD1,2,2024-04-06_23h57.38.817,face trait task,2021.2.3,MacIntel,60.24096386,SONAid,,,,,,,
,,,,4.710541187,1.2568,space,0.4506,0,23,23,41,1,42,image/42.jpg,0,R_1QmCurp1iHFSiD1,2,2024-04-06_23h57.38.817,face trait task,2021.2.3,MacIntel,60.24096386,SONAid,,,,,,,
,,,,4.710541187,1.2756,space,0.3845,0,24,24,39,1,40,image/40.jpg,0,R_1QmCurp1iHFSiD1,2,2024-04-06_23h57.38.817,face trait task,2021.2.3,MacIntel,60.24096386,SONAid,,,,,,,
,,,,4.710541187,0.6401,space,0.3512,0,25,25,6,1,7,image/7.jpg,0,R_1QmCurp1iHFSiD1,2,2024-04-06_23h57.38.817,face trait task,2021.2.3,MacIntel,60.24096386,SONAid,,,,,,,
,,,,4.710541187,1.1247,space,0.3839,0,26,26,3,1,4,image/4.jpg,0,R_1QmCurp1iHFSiD1,2,2024-04-06_23h57.38.817,face trait task,2021.2.3,MacIntel,60.24096386,SONAid,,,,,,,
,,,,4.711660873,1.108,space,0.4504,0,27,27,11,1,12,image/12.jpg,0,R_1QmCurp1iHFSiD1,2,2024-04-06_23h57.38.817,face trait task,2021.2.3,MacIntel,60.24096386,SONAid,,,,,,,
,,,,4.716199451,1.9231,space,0.3419,0,28,28,25,1,26,image/26.jpg,0,R_1QmCurp1iHFSiD1,2,2024-04-06_23h57.38.817,face trait task,2021.2.3,MacIntel,60.24096386,SONAid,,,,,,,
,,,,4.716199451,1.2065,space,0.385,0,29,29,47,1,48,image/48.jpg,0,R_1QmCurp1iHFSiD1,2,2024-04-06_23h57.38.817,face trait task,2021.2.3,MacIntel,60.24096386,SONAid,,,,,,,
,,,,4.716199451,0.9907,space,0.4011,0,30,30,20,1,21,image/21.jpg,0,R_1QmCurp1iHFSiD1,2,2024-04-06_23h57.38.817,face trait task,2021.2.3,MacIntel,60.24096386,SONAid,,,,,,,
,,,,4.716199451,1.0063,space,0.3829,0,31,31,19,1,20,image/20.jpg,0,R_1QmCurp1iHFSiD1,2,2024-04-06_23h57.38.817,face trait task,2021.2.3,MacIntel,60.24096386,SONAid,,,,,,,
,,,,4.716199451,1.0571,space,0.4181,0,32,32,16,1,17,image/17.jpg,0,R_1QmCurp1iHFSiD1,2,2024-04-06_23h57.38.817,face trait task,2021.2.3,MacIntel,60.24096386,SONAid,,,,,,,
,,,,4.716199451,0.5922,space,0.6511,0,33,33,36,1,37,image/37.jpg,0,R_1QmCurp1iHFSiD1,2,2024-04-06_23h57.38.817,face trait task,2021.2.3,MacIntel,60.24096386,SONAid,,,,,,,
,,,,4.716199451,1.107,space,0.402,0,34,34,48,1,49,image/49.jpg,0,R_1QmCurp1iHFSiD1,2,2024-04-06_23h57.38.817,face trait task,2021.2.3,MacIntel,60.24096386,SONAid,,,,,,,
,,,,4.716199451,1.2421,space,0.4055,0,35,35,13,1,14,image/14.jpg,0,R_1QmCurp1iHFSiD1,2,2024-04-06_23h57.38.817,face trait task,2021.2.3,MacIntel,60.24096386,SONAid,,,,,,,
,,,,4.716199451,1.158,space,0.5507,0,36,36,44,1,45,image/45.jpg,0,R_1QmCurp1iHFSiD1,2,2024-04-06_23h57.38.817,face trait task,2021.2.3,MacIntel,60.24096386,SONAid,,,,,,,
,,,,4.716199451,1.2403,space,0.4018,0,37,37,18,1,19,image/19.jpg,0,R_1QmCurp1iHFSiD1,2,2024-04-06_23h57.38.817,face trait task,2021.2.3,MacIntel,60.24096386,SONAid,,,,,,,
,,,,4.716199451,1.0742,space,0.4038,0,38,38,4,1,5,image/5.jpg,0,R_1QmCurp1iHFSiD1,2,2024-04-06_23h57.38.817,face trait task,2021.2.3,MacIntel,60.24096386,SONAid,,,,,,,
,,,,4.716199451,1.192,space,0.3852,0,39,39,14,1,15,image/15.jpg,0,R_1QmCurp1iHFSiD1,2,2024-04-06_23h57.38.817,face trait task,2021.2.3,MacIntel,60.24096386,SONAid,,,,,,,
,,,,4.718290897,1.0387,space,0.403,0,40,40,12,1,13,image/13.jpg,0,R_1QmCurp1iHFSiD1,2,2024-04-06_23h57.38.817,face trait task,2021.2.3,MacIntel,60.24096386,SONAid,,,,,,,
,,,,4.718290897,1.0421,space,0.4003,0,41,41,7,1,8,image/8.jpg,0,R_1QmCurp1iHFSiD1,2,2024-04-06_23h57.38.817,face trait task,2021.2.3,MacIntel,60.24096386,SONAid,,,,,,,
,,,,4.718290897,1.1393,space,0.3833,0,42,42,2,1,3,image/3.jpg,0,R_1QmCurp1iHFSiD1,2,2024-04-06_23h57.38.817,face trait task,2021.2.3,MacIntel,60.24096386,SONAid,,,,,,,
,,,,3.837908446,1.0415,space,0.3516,0,43,43,42,1,43,image/43.jpg,0,R_1QmCurp1iHFSiD1,2,2024-04-06_23h57.38.817,face trait task,2021.2.3,MacIntel,60.24096386,SONAid,,,,,,,
,,,,3.837908446,0.6254,space,0.4211,0,44,44,8,1,9,image/9.jpg,0,R_1QmCurp1iHFSiD1,2,2024-04-06_23h57.38.817,face trait task,2021.2.3,MacIntel,60.24096386,SONAid,,,,,,,
,,,,3.837908446,0.9907,space,0.3849,0,45,45,9,1,10,image/10.jpg,0,R_1QmCurp1iHFSiD1,2,2024-04-06_23h57.38.817,face trait task,2021.2.3,MacIntel,60.24096386,SONAid,,,,,,,
,,,,3.839017051,1.0245,space,0.4169,0,46,46,10,1,11,image/11.jpg,0,R_1QmCurp1iHFSiD1,2,2024-04-06_23h57.38.817,face trait task,2021.2.3,MacIntel,60.24096386,SONAid,,,,,,,
,,,,3.843555629,1.0752,space,0.3831,0,47,47,23,1,24,image/24.jpg,0,R_1QmCurp1iHFSiD1,2,2024-04-06_23h57.38.817,face trait task,2021.2.3,MacIntel,60.24096386,SONAid,,,,,,,
,,,,3.843555629,1.0741,space,0.3514,0,48,48,5,1,6,image/6.jpg,0,R_1QmCurp1iHFSiD1,2,2024-04-06_23h57.38.817,face trait task,2021.2.3,MacIntel,60.24096386,SONAid,,,,,,,
,,,,3.843555629,1.0252,space,0.3327,0,49,49,45,1,46,image/46.jpg,0,R_1QmCurp1iHFSiD1,2,2024-04-06_23h57.38.817,face trait task,2021.2.3,MacIntel,60.24096386,SONAid,,,,,,,
,,,,3.845898604,1.04,space,0.3844,0,50,50,29,1,30,image/30.jpg,0,R_1QmCurp1iHFSiD1,2,2024-04-06_23h57.38.817,face trait task,2021.2.3,MacIntel,60.24096386,SONAid,,,,,,,
,,,,3.799382889,2.3568,space,0.2837,0,51,51,30,1,31,image/31.jpg,0,R_1QmCurp1iHFSiD1,2,2024-04-06_23h57.38.817,face trait task,2021.2.3,MacIntel,60.24096386,SONAid,,,,,,,
,,,,3.764607255,1.0586,space,0.2997,0,52,52,15,1,16,image/16.jpg,0,R_1QmCurp1iHFSiD1,2,2024-04-06_23h57.38.817,face trait task,2021.2.3,MacIntel,60.24096386,SONAid,,,,,,,
,,,,,,,,,,,,,,,,R_1QmCurp1iHFSiD1,2,2024-04-06_23h57.38.817,face trait task,2021.2.3,MacIntel,60.24096386,SONAid,0,2,2,0,1,0,critical.png
,,,,3.874316517,1.7658,space,0.659,0,0,0,37,1,38,image/38.jpg,0,R_1QmCurp1iHFSiD1,2,2024-04-06_23h57.38.817,face trait task,2021.2.3,MacIntel,60.24096386,SONAid,,,,,,,
,,,,3.878855095,1.0585,space,0.5603,0,1,1,16,1,17,image/17.jpg,0,R_1QmCurp1iHFSiD1,2,2024-04-06_23h57.38.817,face trait task,2021.2.3,MacIntel,60.24096386,SONAid,,,,,,,
,,,,3.25725358,1.0787,space,0.3011,0,2,2,34,1,35,image/35.jpg,0,R_1QmCurp1iHFSiD1,2,2024-04-06_23h57.38.817,face trait task,2021.2.3,MacIntel,60.24096386,SONAid,,,,,,,
,,,,3.25725358,0.9589,space,0.376,0,3,3,4,1,5,image/5.jpg,0,R_1QmCurp1iHFSiD1,2,2024-04-06_23h57.38.817,face trait task,2021.2.3,MacIntel,60.24096386,SONAid,,,,,,,
,,,,3.25725358,1.1774,space,0.3857,0,4,4,9,1,10,image/10.jpg,0,R_1QmCurp1iHFSiD1,2,2024-04-06_23h57.38.817,face trait task,2021.2.3,MacIntel,60.24096386,SONAid,,,,,,,
,,,,3.25725358,0.9686,space,0.3705,0,5,5,48,1,49,image/49.jpg,0,R_1QmCurp1iHFSiD1,2,2024-04-06_23h57.38.817,face trait task,2021.2.3,MacIntel,60.24096386,SONAid,,,,,,,
,,,,3.25725358,0.6356,space,0.5462,0,6,6,45,1,46,image/46.jpg,0,R_1QmCurp1iHFSiD1,2,2024-04-06_23h57.38.817,face trait task,2021.2.3,MacIntel,60.24096386,SONAid,,,,,,,
,,,,3.25725358,1.0938,space,0.3676,0,7,7,8,1,9,image/9.jpg,0,R_1QmCurp1iHFSiD1,2,2024-04-06_23h57.38.817,face trait task,2021.2.3,MacIntel,60.24096386,SONAid,,,,,,,
,,,,3.25725358,0.6779,space,0.4589,0,8,8,49,1,50,image/50.jpg,0,R_1QmCurp1iHFSiD1,2,2024-04-06_23h57.38.817,face trait task,2021.2.3,MacIntel,60.24096386,SONAid,,,,,,,
,,,,3.258361355,1.005,space,0.4014,0,9,9,33,1,34,image/34.jpg,0,R_1QmCurp1iHFSiD1,2,2024-04-06_23h57.38.817,face trait task,2021.2.3,MacIntel,60.24096386,SONAid,,,,,,,
,,,,3.264021003,1.0283,space,0.3838,0,10,10,29,1,30,image/30.jpg,0,R_1QmCurp1iHFSiD1,2,2024-04-06_23h57.38.817,face trait task,2021.2.3,MacIntel,60.24096386,SONAid,,,,,,,
,,,,3.268559581,0.9698,space,0.3924,0,11,11,39,1,40,image/40.jpg,0,R_1QmCurp1iHFSiD1,2,2024-04-06_23h57.38.817,face trait task,2021.2.3,MacIntel,60.24096386,SONAid,,,,,,,
,,,,3.281532368,1.055,space,0.365,0,12,12,38,1,39,image/39.jpg,0,R_1QmCurp1iHFSiD1,2,2024-04-06_23h57.38.817,face trait task,2021.2.3,MacIntel,60.24096386,SONAid,,,,,,,
,,,,3.281532368,1.0721,space,0.3663,0,13,13,13,1,14,image/14.jpg,0,R_1QmCurp1iHFSiD1,2,2024-04-06_23h57.38.817,face trait task,2021.2.3,MacIntel,60.24096386,SONAid,,,,,,,
,,,,3.281532368,1.0549,space,0.3463,0,14,14,46,1,47,image/47.jpg,0,R_1QmCurp1iHFSiD1,2,2024-04-06_23h57.38.817,face trait task,2021.2.3,MacIntel,60.24096386,SONAid,,,,,,,
,,,,3.281532368,1.2363,space,0.4189,0,15,15,15,1,16,image/16.jpg,0,R_1QmCurp1iHFSiD1,2,2024-04-06_23h57.38.817,face trait task,2021.2.3,MacIntel,60.24096386,SONAid,,,,,,,
,,,,3.281532368,1.2439,space,0.412,0,16,16,18,1,19,image/19.jpg,0,R_1QmCurp1iHFSiD1,2,2024-04-06_23h57.38.817,face trait task,2021.2.3,MacIntel,60.24096386,SONAid,,,,,,,
,,,,3.281532368,1.0866,space,0.3614,0,17,17,27,1,28,image/28.jpg,0,R_1QmCurp1iHFSiD1,2,2024-04-06_23h57.38.817,face trait task,2021.2.3,MacIntel,60.24096386,SONAid,,,,,,,
,,,,3.281532368,1.136,space,0.376,0,18,18,52,1,54,image/54.jpg,1,R_1QmCurp1iHFSiD1,2,2024-04-06_23h57.38.817,face trait task,2021.2.3,MacIntel,60.24096386,SONAid,,,,,,,
,,,,3.281532368,0.586,space,0.5302,0,19,19,47,1,48,image/48.jpg,0,R_1QmCurp1iHFSiD1,2,2024-04-06_23h57.38.817,face trait task,2021.2.3,MacIntel,60.24096386,SONAid,,,,,,,
,,,,3.284991704,0.9875,space,0.3451,0,20,20,20,1,21,image/21.jpg,0,R_1QmCurp1iHFSiD1,2,2024-04-06_23h57.38.817,face trait task,2021.2.3,MacIntel,60.24096386,SONAid,,,,,,,
,,,,3.289530282,1.1691,space,0.5015,0,21,21,30,1,31,image/31.jpg,0,R_1QmCurp1iHFSiD1,2,2024-04-06_23h57.38.817,face trait task,2021.2.3,MacIntel,60.24096386,SONAid,,,,,,,
,,,,3.289530282,1.0544,space,0.3616,0,22,22,0,1,1,image/1.jpg,0,R_1QmCurp1iHFSiD1,2,2024-04-06_23h57.38.817,face trait task,2021.2.3,MacIntel,60.24096386,SONAid,,,,,,,
,,,,3.289530282,0.5532,space,0.463,0,23,23,50,1,53,image/53.jpg,1,R_1QmCurp1iHFSiD1,2,2024-04-06_23h57.38.817,face trait task,2021.2.3,MacIntel,60.24096386,SONAid,,,,,,,
,,,,3.289530282,1.1259,space,0.3636,0,24,24,43,1,44,image/44.jpg,0,R_1QmCurp1iHFSiD1,2,2024-04-06_23h57.38.817,face trait task,2021.2.3,MacIntel,60.24096386,SONAid,,,,,,,
,,,,3.289530282,1.2213,space,0.3689,0,25,25,24,1,25,image/25.jpg,0,R_1QmCurp1iHFSiD1,2,2024-04-06_23h57.38.817,face trait task,2021.2.3,MacIntel,60.24096386,SONAid,,,,,,,
,,,,3.289530282,1.2205,space,0.3506,0,26,26,26,1,27,image/27.jpg,0,R_1QmCurp1iHFSiD1,2,2024-04-06_23h57.38.817,face trait task,2021.2.3,MacIntel,60.24096386,SONAid,,,,,,,
,,,,3.289530282,1.0046,space,0.3509,0,27,27,41,1,42,image/42.jpg,0,R_1QmCurp1iHFSiD1,2,2024-04-06_23h57.38.817,face trait task,2021.2.3,MacIntel,60.24096386,SONAid,,,,,,,
,,,,3.289530282,1.2054,space,0.4344,0,28,28,6,1,7,image/7.jpg,0,R_1QmCurp1iHFSiD1,2,2024-04-06_23h57.38.817,face trait task,2021.2.3,MacIntel,60.24096386,SONAid,,,,,,,
,,,,3.289530282,0.6523,space,0.3846,0,29,29,51,1,51,image/51.jpg,1,R_1QmCurp1iHFSiD1,2,2024-04-06_23h57.38.817,face trait task,2021.2.3,MacIntel,60.24096386,SONAid,,,,,,,
,,,,3.289530282,0.7875,space,0.4362,0,30,30,21,1,22,image/22.jpg,0,R_1QmCurp1iHFSiD1,2,2024-04-06_23h57.38.817,face trait task,2021.2.3,MacIntel,60.24096386,SONAid,,,,,,,
,,,,3.289530282,2.0393,space,0.4857,0,31,31,31,1,32,image/32.jpg,0,R_1QmCurp1iHFSiD1,2,2024-04-06_23h57.38.817,face trait task,2021.2.3,MacIntel,60.24096386,SONAid,,,,,,,
,,,,3.289530282,0.9869,space,0.3938,0,32,32,32,1,33,image/33.jpg,0,R_1QmCurp1iHFSiD1,2,2024-04-06_23h57.38.817,face trait task,2021.2.3,MacIntel,60.24096386,SONAid,,,,,,,
,,,,3.310072721,2.8195,space,0.3563,0,33,33,36,1,37,image/37.jpg,0,R_1QmCurp1iHFSiD1,2,2024-04-06_23h57.38.817,face trait task,2021.2.3,MacIntel,60.24096386,SONAid,,,,,,,
,,,,4.466548856,1.2049,space,0.3518,0,34,34,19,1,20,image/20.jpg,0,R_1QmCurp1iHFSiD1,2,2024-04-06_23h57.38.817,face trait task,2021.2.3,MacIntel,60.24096386,SONAid,,,,,,,
,,,,4.466548856,1.0718,space,0.3391,0,35,35,40,1,41,image/41.jpg,0,R_1QmCurp1iHFSiD1,2,2024-04-06_23h57.38.817,face trait task,2021.2.3,MacIntel,60.24096386,SONAid,,,,,,,
,,,,4.466548856,1.0869,space,0.4217,0,36,36,14,1,15,image/15.jpg,0,R_1QmCurp1iHFSiD1,2,2024-04-06_23h57.38.817,face trait task,2021.2.3,MacIntel,60.24096386,SONAid,,,,,,,
,,,,4.466548856,1.072,space,0.3872,0,37,37,23,1,24,image/24.jpg,0,R_1QmCurp1iHFSiD1,2,2024-04-06_23h57.38.817,face trait task,2021.2.3,MacIntel,60.24096386,SONAid,,,,,,,
,,,,4.466548856,0.9712,space,0.402,0,38,38,10,1,11,image/11.jpg,0,R_1QmCurp1iHFSiD1,2,2024-04-06_23h57.38.817,face trait task,2021.2.3,MacIntel,60.24096386,SONAid,,,,,,,
,,,,4.466548856,0.9879,space,0.3736,0,39,39,11,1,12,image/12.jpg,0,R_1QmCurp1iHFSiD1,2,2024-04-06_23h57.38.817,face trait task,2021.2.3,MacIntel,60.24096386,SONAid,,,,,,,
,,,,4.466548856,1.1703,space,0.47,0,40,40,35,1,36,image/36.jpg,0,R_1QmCurp1iHFSiD1,2,2024-04-06_23h57.38.817,face trait task,2021.2.3,MacIntel,60.24096386,SONAid,,,,,,,
,,,,4.466548856,0.8209,space,0.6886,0,41,41,2,1,3,image/3.jpg,0,R_1QmCurp1iHFSiD1,2,2024-04-06_23h57.38.817,face trait task,2021.2.3,MacIntel,60.24096386,SONAid,,,,,,,
,,,,4.466548856,1.0536,space,0.4185,0,42,42,1,1,2,image/2.jpg,0,R_1QmCurp1iHFSiD1,2,2024-04-06_23h57.38.817,face trait task,2021.2.3,MacIntel,60.24096386,SONAid,,,,,,,
,,,,4.466548856,0.9702,space,0.4455,0,43,43,28,1,29,image/29.jpg,0,R_1QmCurp1iHFSiD1,2,2024-04-06_23h57.38.817,face trait task,2021.2.3,MacIntel,60.24096386,SONAid,,,,,,,
,,,,4.466548856,1.1888,space,0.5051,0,44,44,22,1,23,image/23.jpg,0,R_1QmCurp1iHFSiD1,2,2024-04-06_23h57.38.817,face trait task,2021.2.3,MacIntel,60.24096386,SONAid,,,,,,,
,,,,4.466548856,1.1221,space,0.4874,0,45,45,17,1,18,image/18.jpg,0,R_1QmCurp1iHFSiD1,2,2024-04-06_23h57.38.817,face trait task,2021.2.3,MacIntel,60.24096386,SONAid,,,,,,,
,,,,4.466548856,1.2236,space,0.4002,0,46,46,3,1,4,image/4.jpg,0,R_1QmCurp1iHFSiD1,2,2024-04-06_23h57.38.817,face trait task,2021.2.3,MacIntel,60.24096386,SONAid,,,,,,,
,,,,4.466548856,1.0888,space,0.3535,0,47,47,7,1,8,image/8.jpg,0,R_1QmCurp1iHFSiD1,2,2024-04-06_23h57.38.817,face trait task,2021.2.3,MacIntel,60.24096386,SONAid,,,,,,,
,,,,4.466548856,1.0862,space,0.3527,0,48,48,44,1,45,image/45.jpg,0,R_1QmCurp1iHFSiD1,2,2024-04-06_23h57.38.817,face trait task,2021.2.3,MacIntel,60.24096386,SONAid,,,,,,,
,,,,4.466548856,1.0544,space,0.3401,0,49,49,5,1,6,image/6.jpg,0,R_1QmCurp1iHFSiD1,2,2024-04-06_23h57.38.817,face trait task,2021.2.3,MacIntel,60.24096386,SONAid,,,,,,,
,,,,4.466548856,1.0716,space,0.3621,0,50,50,25,1,26,image/26.jpg,0,R_1QmCurp1iHFSiD1,2,2024-04-06_23h57.38.817,face trait task,2021.2.3,MacIntel,60.24096386,SONAid,,,,,,,
,,,,4.466548856,1.1063,space,0.378,0,51,51,42,1,43,image/43.jpg,0,R_1QmCurp1iHFSiD1,2,2024-04-06_23h57.38.817,face trait task,2021.2.3,MacIntel,60.24096386,SONAid,,,,,,,
,,,,4.466548856,0.9535,space,0.357,0,52,52,12,1,13,image/13.jpg,0,R_1QmCurp1iHFSiD1,2,2024-04-06_23h57.38.817,face trait task,2021.2.3,MacIntel,60.24096386,SONAid,,,,,,,
,,,,,,,,,,,,,,,,R_1QmCurp1iHFSiD1,2,2024-04-06_23h57.38.817,face trait task,2021.2.3,MacIntel,60.24096386,SONAid,0,3,3,3,1,3,friendly.png
