chooserow,ParID,pre_instru_resp_2.keys,pre_instru_resp_2.rt,pre_instru_resp_3.keys,pre_instru_resp_3.rt,pre_instru_resp_9.keys,pre_instru_resp_9.rt,pre_instru_resp_8.keys,pre_instru_resp_8.rt,pre_instru_resp_4.keys,pre_instru_resp_4.rt,pre_instru_resp_5.keys,pre_instru_resp_5.rt,pre_instru_resp_6.keys,pre_instru_resp_6.rt,key_resp_3.keys,key_resp_3.rt,key_resp_4.keys,key_resp_4.rt,key_resp_5.keys,key_resp_5.rt,key_resp_6.keys,key_resp_6.rt,key_resp_7.keys,key_resp_7.rt,trials_2.thisRepN,trials_2.thisTrialN,trials_2.thisN,trials_2.thisIndex,trials_2.ran,participant,session,date,expName,psychopyVersion,OS,frameRate,SONAid,pre_instru_resp.keys,pre_instru_resp.rt,clicked,judge_2.x,judge_2.y,judge_2.leftButton,judge_2.midButton,judge_2.rightButton,trials.thisRepN,trials.thisTrialN,trials.thisN,trials.thisIndex,trials.ran,prac_answer,prac_dot_sti,dotlefttext,dotrighttext,judge_2.clicked_name,prac_acc,judge.x,judge.y,judge.leftButton,judge.midButton,judge.rightButton,judge.clicked_name,clicked_guilt,slider_guilt.response,slider_guilt.rt,key_guilt.keys,key_guilt.rt,share_slider.response,share_slider.rt,key_share.keys,slider_apology.response,slider_apology.rt,key_apology.keys,slider_hide.response,slider_hide.rt,slider_forgiveness.response,slider_forgiveness.rt,key_forgiveness.keys,slider_mad.response,slider_mad.rt,trialseq.thisRepN,trialseq.thisTrialN,trialseq.thisN,trialseq.thisIndex,trialseq.ran,type_trial,stipic,DV,picture,answer,number,key_share.rt,key_forgiveness.rt,key_apology.rt
"[154,114,95,130,94,150,118,63,36,116,30,22,161,198,102,70,172,197,107,164,76,138,179,185,103,49,167,124,136,183,64,152,48,126,139,73,189,56,177,83,86,11]",R_1QDhKsN6bYeEr98,space,1.115,space,0.0033,space,6.9612,space,12.817,space,12.88,space,5.2915,space,2.0745,4,4.0272,1,9.3452,3,7.0237,1,3.3569,3,12.0779,0,0,0,0,1,R_1QDhKsN6bYeEr98,1,2024-05-26_23h42.25.989,interaction task,2021.2.3,MacIntel,60.24096386,120753,,,,,,,,,,,,,,,,,,,,,,,,,,,,,,,,,,,,,,,,,,,,,,,,,,,,,,,,,
,,,,space,2.0306,space,5.3037,space,4.5144,space,29.7653,space,1.6862,space,1.2473,3,2.3648,1,2.7649,3,3.1641,2,2.7842,2,7.5024,1,0,1,0,1,R_1QDhKsN6bYeEr98,1,2024-05-26_23h42.25.989,interaction task,2021.2.3,MacIntel,60.24096386,120753,,,,,,,,,,,,,,,,,,,,,,,,,,,,,,,,,,,,,,,,,,,,,,,,,,,,,,,,,
,,,,,,,,,,,,,,,,,,,,,,,,,,,,,,,R_1QDhKsN6bYeEr98,1,2024-05-26_23h42.25.989,interaction task,2021.2.3,MacIntel,60.24096386,120753,space,2.191,[],0.073008898,-0.19349537,0,0,0,0,0,0,0,1,LeftButton_2,11dot2.png,Greater,Smaller,,,,,,,,,,,,,,,,,,,,,,,,,,,,,,,,,,,,,,,,
,,,,,,,,,,,,,,,,,,,,,,,,,,,,,,,R_1QDhKsN6bYeEr98,1,2024-05-26_23h42.25.989,interaction task,2021.2.3,MacIntel,60.24096386,120753,,,"[""RightButton_2""]",0.32632921,-0.305474537,1,0,0,0,1,1,2,1,RightButton_2,11dot1.png,Smaller,Greater,RightButton_2,,,,,,,,,,,,,,,,,,,,,,,,,,,,,,,,,,,,,,,
,,,,,,,,,,,,,,,,,,,,,,,,,,,,,,,R_1QDhKsN6bYeEr98,1,2024-05-26_23h42.25.989,interaction task,2021.2.3,MacIntel,60.24096386,120753,,,"[""RightButton_2""]",0.272466363,-0.323923611,1,0,0,0,2,2,1,1,RightButton_2,11dot2.png,Smaller,Greater,RightButton_2,,,,,,,,,,,,,,,,,,,,,,,,,,,,,,,,,,,,,,,
,,,,,,,,,,,,,,,,,,,,,,,,,,,,,,,R_1QDhKsN6bYeEr98,1,2024-05-26_23h42.25.989,interaction task,2021.2.3,MacIntel,60.24096386,120753,,,,,,,,,,,,,,,,Smaller,Greater,,0.4,0.302077908,-0.508136574,1,0,0,RightButton,"[""RightButton""]",90,3.7682,space,1.3146,,,,,,,,,,,,,,0,0,0,0,1,3,only_sub_wrong.png,0,RandomDot25.png,No answer,21,,,
,,,,,,,,,,,,,,,,,,,,,,,,,,,,,,,R_1QDhKsN6bYeEr98,1,2024-05-26_23h42.25.989,interaction task,2021.2.3,MacIntel,60.24096386,120753,,,,,,,,,,,,,,,,Smaller,Greater,,,0.26891276,-0.518946759,1,0,0,RightButton,"[""RightButton""]",,,,,4.016655816,9.1381,space,,,,,,,,,,,0,1,1,1,1,2,only_sub_right.png,1,RandomDot15.png,No answer,19,1.8367,,
,,,,,,,,,,,,,,,,,,,,,,,,,,,,,,,R_1QDhKsN6bYeEr98,1,2024-05-26_23h42.25.989,interaction task,2021.2.3,MacIntel,60.24096386,120753,,,,,,,,,,,,,,,,Smaller,Greater,,,0.348459201,-0.524201389,1,0,0,RightButton,"[""RightButton""]",,,,,,,,,,,,,50.49814552,4.5124,space,84.69591751,8.2861,0,2,2,2,1,1,both_wrong.png,3,RandomDot12.png,No answer,19,,2.6324,
,,,,,,,,,,,,,,,,,,,,,,,,,,,,,,,R_1QDhKsN6bYeEr98,1,2024-05-26_23h42.25.989,interaction task,2021.2.3,MacIntel,60.24096386,120753,,,,,,,,,,,,,,,,Smaller,Greater,,,-0.27483724,-0.473171296,1,0,0,LeftButton,"[""LeftButton""]",,,,,,,,80,3.1318,space,20,5.8695,,,,,,0,3,3,3,1,2,only_sub_right.png,2,RandomDot8.png,No answer,21,,,1.3544
,,,,,,,,,,,,,,,,,,,,,,,,,,,,,,,R_1QDhKsN6bYeEr98,1,2024-05-26_23h42.25.989,interaction task,2021.2.3,MacIntel,60.24096386,120753,,,,,,,,,,,,,,,,Smaller,Greater,,,-0.257481554,-0.504652778,1,0,0,LeftButton,"[""LeftButton""]",,,,,,,,,,,,,69.8518387,3.5631,space,69.92527269,5.1006,0,4,4,4,1,1,both_wrong.png,3,RandomDot25.png,No answer,21,,0.669,
,,,,,,,,,,,,,,,,,,,,,,,,,,,,,,,R_1QDhKsN6bYeEr98,1,2024-05-26_23h42.25.989,interaction task,2021.2.3,MacIntel,60.24096386,120753,,,,,,,,,,,,,,,,Smaller,Greater,,,0.295925564,-0.533831019,1,0,0,RightButton,"[""RightButton""]",100,2.6872,space,2.3527,,,,,,,,,,,,,,0,5,5,5,1,3,only_sub_wrong.png,0,RandomDot16.png,No answer,21,,,
,,,,,,,,,,,,,,,,,,,,,,,,,,,,,,,R_1QDhKsN6bYeEr98,1,2024-05-26_23h42.25.989,interaction task,2021.2.3,MacIntel,60.24096386,120753,,,,,,,,,,,,,,,,Smaller,Greater,,,0.35124783,-0.472291667,1,0,0,RightButton,"[""RightButton""]",,,,,4.019124349,7.3355,space,,,,,,,,,,,0,6,6,6,1,2,only_sub_right.png,1,RandomDot34.png,No answer,19,1.2347,,
,,,,,,,,,,,,,,,,,,,,,,,,,,,,,,,R_1QDhKsN6bYeEr98,1,2024-05-26_23h42.25.989,interaction task,2021.2.3,MacIntel,60.24096386,120753,,,,,,,,,,,,,,,,Greater,Smaller,,,-0.305799696,-0.500532407,1,0,0,LeftButton,"[""LeftButton""]",,,,,3.980929905,5.8206,space,,,,,,,,,,,0,7,7,7,1,1,both_wrong.png,1,RandomDot27.png,No answer,19,1.4513,,
,,,,,,,,,,,,,,,,,,,,,,,,,,,,,,,R_1QDhKsN6bYeEr98,1,2024-05-26_23h42.25.989,interaction task,2021.2.3,MacIntel,60.24096386,120753,,,,,,,,,,,,,,,,Greater,Smaller,,,0.322205946,-0.525393519,1,0,0,RightButton,"[""RightButton""]",,,,,,,,,,,,,,,,,,0,8,8,8,1,0,both_right.png,3,RandomDot3.png,No answer,20,,,
,,,,,,,,,,,,,,,,,,,,,,,,,,,,,,,R_1QDhKsN6bYeEr98,1,2024-05-26_23h42.25.989,interaction task,2021.2.3,MacIntel,60.24096386,120753,,,,,,,,,,,,,,,,Smaller,Greater,,,-0.318885634,-0.518368056,1,0,0,LeftButton,"[""LeftButton""]",,,,,2.014811198,2.8507,space,,,,,,,,,,,0,9,9,9,1,2,only_sub_right.png,1,RandomDot25.png,No answer,19,1.6553,,
,,,,,,,,,,,,,,,,,,,,,,,,,,,,,,,R_1QDhKsN6bYeEr98,1,2024-05-26_23h42.25.989,interaction task,2021.2.3,MacIntel,60.24096386,120753,,,,,,,,,,,,,,,,Smaller,Greater,,,-0.273101128,-0.509722222,1,0,0,LeftButton,"[""LeftButton""]",,,,,,,,,,,,,,,,,,0,10,10,10,1,0,both_right.png,2,RandomDot24.png,No answer,21,,,
,,,,,,,,,,,,,,,,,,,,,,,,,,,,,,,R_1QDhKsN6bYeEr98,1,2024-05-26_23h42.25.989,interaction task,2021.2.3,MacIntel,60.24096386,120753,,,,,,,,,,,,,,,,Smaller,Greater,,,-0.329595269,-0.520798611,1,0,0,LeftButton,"[""LeftButton""]",,,,,,,,,,,,,,,,,,0,11,11,11,1,0,both_right.png,1,RandomDot21.png,No answer,20,,,
,,,,,,,,,,,,,,,,,,,,,,,,,,,,,,,R_1QDhKsN6bYeEr98,1,2024-05-26_23h42.25.989,interaction task,2021.2.3,MacIntel,60.24096386,120753,,,,,,,,,,,,,,,,Greater,Smaller,,,-0.233881293,-0.495081019,1,0,0,LeftButton,"[""LeftButton""]",,,,,4.005886502,7.4701,space,,,,,,,,,,,0,12,12,12,1,3,only_sub_wrong.png,1,RandomDot36.png,No answer,19,5.6141,,
,,,,,,,,,,,,,,,,,,,,,,,,,,,,,,,R_1QDhKsN6bYeEr98,1,2024-05-26_23h42.25.989,interaction task,2021.2.3,MacIntel,60.24096386,120753,,,,,,,,,,,,,,,,Greater,Smaller,,,0.31944987,-0.488842593,1,0,0,RightButton,"[""RightButton""]",,,,,,,,,,,,,,,,,,0,13,13,13,1,5,both_right.png,10,RandomDot42.png,RightButton,20,,,
,,,,,,,,,,,,,,,,,,,,,,,,,,,,,,,R_1QDhKsN6bYeEr98,1,2024-05-26_23h42.25.989,interaction task,2021.2.3,MacIntel,60.24096386,120753,,,,,,,,,,,,,,,,Smaller,Greater,,,-0.314040799,-0.489282407,1,0,0,LeftButton,"[""LeftButton""]",65,7.2179,space,3.9002,,,,,,,,,,,,,,0,14,14,14,1,2,only_sub_right.png,0,RandomDot16.png,No answer,21,,,
,,,,,,,,,,,,,,,,,,,,,,,,,,,,,,,R_1QDhKsN6bYeEr98,1,2024-05-26_23h42.25.989,interaction task,2021.2.3,MacIntel,60.24096386,120753,,,,,,,,,,,,,,,,Smaller,Greater,,,0.325276693,-0.493761574,1,0,0,RightButton,"[""RightButton""]",,,,,4.021213108,3.6137,space,,,,,,,,,,,0,15,15,15,1,1,both_wrong.png,1,RandomDot29.png,No answer,19,1.0187,,
,,,,,,,,,,,,,,,,,,,,,,,,,,,,,,,R_1QDhKsN6bYeEr98,1,2024-05-26_23h42.25.989,interaction task,2021.2.3,MacIntel,60.24096386,120753,,,,,,,,,,,,,,,,Greater,Smaller,,,0.23562283,-0.545173611,1,0,0,RightButton,"[""RightButton""]",,,,,,,,100,2.0267,space,30,5.2707,,,,,,0,16,16,16,1,3,only_sub_wrong.png,2,RandomDot38.png,No answer,21,,,2.5016
,,,,,,,,,,,,,,,,,,,,,,,,,,,,,,,R_1QDhKsN6bYeEr98,1,2024-05-26_23h42.25.989,interaction task,2021.2.3,MacIntel,60.24096386,120753,,,,,,,,,,,,,,,,Smaller,Greater,,,0.333463542,-0.510393519,1,0,0,RightButton,"[""RightButton""]",,,,,,,,,,,,,,,,,,0,17,17,17,1,4,both_right.png,10,RandomDot41.png,RightButton,5,,,
,,,,,,,,,,,,,,,,,,,,,,,,,,,,,,,R_1QDhKsN6bYeEr98,1,2024-05-26_23h42.25.989,interaction task,2021.2.3,MacIntel,60.24096386,120753,,,,,,,,,,,,,,,,Smaller,Greater,,,0.303857422,-0.474641204,1,0,0,RightButton,"[""RightButton""]",75,2.8206,space,2.2092,,,,,,,,,,,,,,0,18,18,18,1,2,only_sub_right.png,0,RandomDot37.png,No answer,21,,,
,,,,,,,,,,,,,,,,,,,,,,,,,,,,,,,R_1QDhKsN6bYeEr98,1,2024-05-26_23h42.25.989,interaction task,2021.2.3,MacIntel,60.24096386,120753,,,,,,,,,,,,,,,,Smaller,Greater,,,-0.266037326,-0.517314815,1,0,0,LeftButton,"[""LeftButton""]",,,,,4.97249349,3.3697,space,,,,,,,,,,,0,19,19,19,1,3,only_sub_wrong.png,1,RandomDot40.png,No answer,19,1.7688,,
,,,,,,,,,,,,,,,,,,,,,,,,,,,,,,,R_1QDhKsN6bYeEr98,1,2024-05-26_23h42.25.989,interaction task,2021.2.3,MacIntel,60.24096386,120753,,,,,,,,,,,,,,,,Greater,Smaller,,,-0.269894748,-0.526168981,1,0,0,LeftButton,"[""LeftButton""]",,,,,,,,100,2.1003,space,30,4.7517,,,,,,0,20,20,20,1,1,both_wrong.png,2,RandomDot9.png,No answer,21,,,0.8018
,,,,,,,,,,,,,,,,,,,,,,,,,,,,,,,R_1QDhKsN6bYeEr98,1,2024-05-26_23h42.25.989,interaction task,2021.2.3,MacIntel,60.24096386,120753,,,,,,,,,,,,,,,,Smaller,Greater,,,-0.338080512,-0.529479167,1,0,0,LeftButton,"[""LeftButton""]",,,,,,,,,,,,,39.75760206,6.6193,space,89.70258137,3.9527,0,21,21,21,1,2,only_sub_right.png,3,RandomDot25.png,No answer,21,,0.9111,
,,,,,,,,,,,,,,,,,,,,,,,,,,,,,,,R_1QDhKsN6bYeEr98,1,2024-05-26_23h42.25.989,interaction task,2021.2.3,MacIntel,60.24096386,120753,,,,,,,,,,,,,,,,Smaller,Greater,,,0.357622613,-0.488703704,1,0,0,RightButton,"[""RightButton""]",,,,,,,,100,1.7164,space,30,4.0831,,,,,,0,22,22,22,1,3,only_sub_wrong.png,2,RandomDot15.png,No answer,20,,,1.3524
,,,,,,,,,,,,,,,,,,,,,,,,,,,,,,,R_1QDhKsN6bYeEr98,1,2024-05-26_23h42.25.989,interaction task,2021.2.3,MacIntel,60.24096386,120753,,,,,,,,,,,,,,,,Greater,Smaller,,,0.293934462,-0.514108796,1,0,0,RightButton,"[""RightButton""]",,,,,,,,,,,,,35.31046138,3.4711,space,99.96963998,5.5476,0,23,23,23,1,3,only_sub_wrong.png,3,RandomDot34.png,No answer,20,,0.8669,
,,,,,,,,,,,,,,,,,,,,,,,,,,,,,,,R_1QDhKsN6bYeEr98,1,2024-05-26_23h42.25.989,interaction task,2021.2.3,MacIntel,60.24096386,120753,,,,,,,,,,,,,,,,Smaller,Greater,,,0.256494141,-0.515277778,1,0,0,RightButton,"[""RightButton""]",100,1.4565,space,1.3877,,,,,,,,,,,,,,0,24,24,24,1,2,only_sub_right.png,0,RandomDot21.png,No answer,21,,,
,,,,,,,,,,,,,,,,,,,,,,,,,,,,,,,R_1QDhKsN6bYeEr98,1,2024-05-26_23h42.25.989,interaction task,2021.2.3,MacIntel,60.24096386,120753,,,,,,,,,,,,,,,,Greater,Smaller,,,-0.312999132,-0.521018519,1,0,0,LeftButton,"[""LeftButton""]",100,2.6492,space,0.8811,,,,,,,,,,,,,,0,25,25,25,1,1,both_wrong.png,0,RandomDot16.png,No answer,19,,,
,,,,,,,,,,,,,,,,,,,,,,,,,,,,,,,R_1QDhKsN6bYeEr98,1,2024-05-26_23h42.25.989,interaction task,2021.2.3,MacIntel,60.24096386,120753,,,,,,,,,,,,,,,,Smaller,Greater,,,-0.253027344,-0.479988426,1,0,0,LeftButton,"[""LeftButton""]",,,,,4.972791884,2.6506,space,,,,,,,,,,,0,26,26,26,1,3,only_sub_wrong.png,1,RandomDot22.png,No answer,20,1.3463,,
,,,,,,,,,,,,,,,,,,,,,,,,,,,,,,,R_1QDhKsN6bYeEr98,1,2024-05-26_23h42.25.989,interaction task,2021.2.3,MacIntel,60.24096386,120753,,,,,,,,,,,,,,,,Greater,Smaller,,,0.285839844,-0.481030093,1,0,0,RightButton,"[""RightButton""]",,,,,,,,100,2.9826,space,35,5.3771,,,,,,0,27,27,27,1,2,only_sub_right.png,2,RandomDot20.png,No answer,20,,,0.8853
,,,,,,,,,,,,,,,,,,,,,,,,,,,,,,,R_1QDhKsN6bYeEr98,1,2024-05-26_23h42.25.989,interaction task,2021.2.3,MacIntel,60.24096386,120753,,,,,,,,,,,,,,,,Greater,Smaller,,,0.249191623,-0.50375,1,0,0,RightButton,"[""RightButton""]",,,,,,,,,,,,,24.88831457,3.8712,space,93.75460332,5.9541,0,28,28,28,1,2,only_sub_right.png,3,RandomDot10.png,No answer,19,,1.2331,
,,,,,,,,,,,,,,,,,,,,,,,,,,,,,,,R_1QDhKsN6bYeEr98,1,2024-05-26_23h42.25.989,interaction task,2021.2.3,MacIntel,60.24096386,120753,,,,,,,,,,,,,,,,Greater,Smaller,,,0.254437934,-0.511655093,1,0,0,RightButton,"[""RightButton""]",,,,,,,,,,,,,25.25658056,2.3132,space,85.5875377,3.7809,0,29,29,29,1,3,only_sub_wrong.png,3,RandomDot17.png,No answer,19,,1.4213,
,,,,,,,,,,,,,,,,,,,,,,,,,,,,,,,R_1QDhKsN6bYeEr98,1,2024-05-26_23h42.25.989,interaction task,2021.2.3,MacIntel,60.24096386,120753,,,,,,,,,,,,,,,,Greater,Smaller,,,-0.296267361,-0.526412037,1,0,0,LeftButton,"[""LeftButton""]",,,,,3.491753472,3.8022,space,,,,,,,,,,,0,30,30,30,1,1,both_wrong.png,1,RandomDot6.png,No answer,20,1.0196,,
,,,,,,,,,,,,,,,,,,,,,,,,,,,,,,,R_1QDhKsN6bYeEr98,1,2024-05-26_23h42.25.989,interaction task,2021.2.3,MacIntel,60.24096386,120753,,,,,,,,,,,,,,,,Smaller,Greater,,,-0.292768012,-0.498553241,1,0,0,LeftButton,"[""LeftButton""]",100,1.7202,space,1.6865,,,,,,,,,,,,,,0,31,31,31,1,3,only_sub_wrong.png,0,RandomDot9.png,No answer,19,,,
,,,,,,,,,,,,,,,,,,,,,,,,,,,,,,,R_1QDhKsN6bYeEr98,1,2024-05-26_23h42.25.989,interaction task,2021.2.3,MacIntel,60.24096386,120753,,,,,,,,,,,,,,,,Greater,Smaller,,,0.291775174,-0.505381944,1,0,0,RightButton,"[""RightButton""]",100,1.9746,space,0.8228,,,,,,,,,,,,,,0,32,32,32,1,1,both_wrong.png,0,RandomDot24.png,No answer,21,,,
,,,,,,,,,,,,,,,,,,,,,,,,,,,,,,,R_1QDhKsN6bYeEr98,1,2024-05-26_23h42.25.989,interaction task,2021.2.3,MacIntel,60.24096386,120753,,,,,,,,,,,,,,,,Smaller,Greater,,,0.247054036,-0.497083333,1,0,0,RightButton,"[""RightButton""]",,,,,,,,100,1.9664,space,37,4.4368,,,,,,0,33,33,33,1,2,only_sub_right.png,2,RandomDot34.png,No answer,20,,,2.2032
,,,,,,,,,,,,,,,,,,,,,,,,,,,,,,,R_1QDhKsN6bYeEr98,1,2024-05-26_23h42.25.989,interaction task,2021.2.3,MacIntel,60.24096386,120753,,,,,,,,,,,,,,,,Smaller,Greater,,,0.256342231,-0.466435185,1,0,0,RightButton,"[""RightButton""]",,,,,,,,,,,,,24.70363356,3.581,space,93.34140011,5.5166,0,34,34,34,1,2,only_sub_right.png,3,RandomDot30.png,No answer,20,,0.9551,
,,,,,,,,,,,,,,,,,,,,,,,,,,,,,,,R_1QDhKsN6bYeEr98,1,2024-05-26_23h42.25.989,interaction task,2021.2.3,MacIntel,60.24096386,120753,,,,,,,,,,,,,,,,Greater,Smaller,,,0.343625217,-0.490729167,1,0,0,RightButton,"[""RightButton""]",,,,,,,,100,2.0395,space,32,3.6897,,,,,,0,35,35,35,1,1,both_wrong.png,2,RandomDot24.png,No answer,19,,,0.8528
,,,,,,,,,,,,,,,,,,,,,,,,,,,,,,,R_1QDhKsN6bYeEr98,1,2024-05-26_23h42.25.989,interaction task,2021.2.3,MacIntel,60.24096386,120753,,,,,,,,,,,,,,,,Smaller,Greater,,,0.340131293,-0.532569444,1,0,0,RightButton,"[""RightButton""]",,,,,,,,,,,,,26.09613934,2.1002,space,89.83246089,3.899,0,36,36,36,1,3,only_sub_wrong.png,3,RandomDot38.png,No answer,20,,1.5511,
,,,,,,,,,,,,,,,,,,,,,,,,,,,,,,,R_1QDhKsN6bYeEr98,1,2024-05-26_23h42.25.989,interaction task,2021.2.3,MacIntel,60.24096386,120753,,,,,,,,,,,,,,,,Smaller,Greater,,,-0.30460612,-0.537650463,1,0,0,LeftButton,"[""LeftButton""]",100,1.4557,space,0.8722,,,,,,,,,,,,,,0,37,37,37,1,1,both_wrong.png,0,RandomDot39.png,No answer,21,,,
,,,,,,,,,,,,,,,,,,,,,,,,,,,,,,,R_1QDhKsN6bYeEr98,1,2024-05-26_23h42.25.989,interaction task,2021.2.3,MacIntel,60.24096386,120753,,,,,,,,,,,,,,,,Smaller,Greater,,,0.272710503,-0.486678241,1,0,0,RightButton,"[""RightButton""]",,,,,,,,100,1.4506,space,24,4.2334,,,,,,0,38,38,38,1,3,only_sub_wrong.png,2,RandomDot31.png,No answer,19,,,1.585
,,,,,,,,,,,,,,,,,,,,,,,,,,,,,,,R_1QDhKsN6bYeEr98,1,2024-05-26_23h42.25.989,interaction task,2021.2.3,MacIntel,60.24096386,120753,,,,,,,,,,,,,,,,Smaller,Greater,,,-0.26624349,-0.501655093,1,0,0,LeftButton,"[""LeftButton""]",,,,,,,,100,1.5713,space,17,3.0744,,,,,,0,39,39,39,1,1,both_wrong.png,2,RandomDot8.png,No answer,20,,,1.1461
,,,,,,,,,,,,,,,,,,,,,,,,,,,,,,,R_1QDhKsN6bYeEr98,1,2024-05-26_23h42.25.989,interaction task,2021.2.3,MacIntel,60.24096386,120753,,,,,,,,,,,,,,,,Greater,Smaller,,,0.336121962,-0.481724537,1,0,0,RightButton,"[""RightButton""]",,,,,,,,,,,,,16.75029374,2.0297,space,94.58374982,3.7977,0,40,40,40,1,1,both_wrong.png,3,RandomDot13.png,No answer,21,,0.902,
,,,,,,,,,,,,,,,,,,,,,,,,,,,,,,,R_1QDhKsN6bYeEr98,1,2024-05-26_23h42.25.989,interaction task,2021.2.3,MacIntel,60.24096386,120753,,,,,,,,,,,,,,,,Smaller,Greater,,,0.262380642,-0.475416667,1,0,0,RightButton,"[""RightButton""]",,,,,,,,,,,,,,,,,,0,41,41,41,1,0,both_right.png,0,RandomDot38.png,No answer,21,,,
