key_resp.keys,key_resp.rt,key_resp_4.keys,key_resp_4.rt,slider_face_judge.response,slider_face_judge.rt,key_resp_3.keys,key_resp_3.rt,face_loop.thisRepN,face_loop.thisTrialN,face_loop.thisN,face_loop.thisIndex,face_loop.ran,face_serial,image_name,isCheck,participant,session,date,expName,psychopyVersion,OS,frameRate,SONAid,session.thisRepN,session.thisTrialN,session.thisN,session.thisIndex,session.ran,session_serial,slider_judge_img
space,4.2388,space,1.1659,3.527354394,10.6103,space,0.7125,0,0,0,6,1,7,image/7.jpg,0,R_1RlIO1DP8koMWuo,2,2024-04-09_13h54.53.800,face trait task,2021.2.3,MacIntel,62.89308176,SONAid,,,,,,,
,,,,2.577081914,1.0618,space,0.2504,0,1,1,27,1,28,image/28.jpg,0,R_1RlIO1DP8koMWuo,2,2024-04-09_13h54.53.800,face trait task,2021.2.3,MacIntel,62.89308176,SONAid,,,,,,,
,,,,4.685530909,1.3534,space,0.1939,0,2,2,10,1,11,image/11.jpg,0,R_1RlIO1DP8koMWuo,2,2024-04-09_13h54.53.800,face trait task,2021.2.3,MacIntel,62.89308176,SONAid,,,,,,,
,,,,4.506077572,1.2467,space,0.5992,0,3,3,32,1,33,image/33.jpg,0,R_1RlIO1DP8koMWuo,2,2024-04-09_13h54.53.800,face trait task,2021.2.3,MacIntel,62.89308176,SONAid,,,,,,,
,,,,1.965886836,1.8297,space,0.3118,0,4,4,47,1,48,image/48.jpg,0,R_1RlIO1DP8koMWuo,2,2024-04-09_13h54.53.800,face trait task,2021.2.3,MacIntel,62.89308176,SONAid,,,,,,,
,,,,5.146745146,7.0385,space,0.4036,0,5,5,43,1,44,image/44.jpg,0,R_1RlIO1DP8koMWuo,2,2024-04-09_13h54.53.800,face trait task,2021.2.3,MacIntel,62.89308176,SONAid,,,,,,,
,,,,5.495242251,2.2196,space,2.2664,0,6,6,44,1,45,image/45.jpg,0,R_1RlIO1DP8koMWuo,2,2024-04-09_13h54.53.800,face trait task,2021.2.3,MacIntel,62.89308176,SONAid,,,,,,,
,,,,4.998584384,56.6,space,0.2167,0,7,7,5,1,6,image/6.jpg,0,R_1RlIO1DP8koMWuo,2,2024-04-09_13h54.53.800,face trait task,2021.2.3,MacIntel,62.89308176,SONAid,,,,,,,
,,,,4.926483736,2.1549,space,0.4236,0,8,8,25,1,26,image/26.jpg,0,R_1RlIO1DP8koMWuo,2,2024-04-09_13h54.53.800,face trait task,2021.2.3,MacIntel,62.89308176,SONAid,,,,,,,
,,,,3.311275971,1.5208,space,0.3994,0,9,9,22,1,23,image/23.jpg,0,R_1RlIO1DP8koMWuo,2,2024-04-09_13h54.53.800,face trait task,2021.2.3,MacIntel,62.89308176,SONAid,,,,,,,
,,,,3.311275971,1.4047,space,0.5841,0,10,10,46,1,47,image/47.jpg,0,R_1RlIO1DP8koMWuo,2,2024-04-09_13h54.53.800,face trait task,2021.2.3,MacIntel,62.89308176,SONAid,,,,,,,
,,,,6.021021373,1.4205,space,0.4752,0,11,11,34,1,35,image/35.jpg,0,R_1RlIO1DP8koMWuo,2,2024-04-09_13h54.53.800,face trait task,2021.2.3,MacIntel,62.89308176,SONAid,,,,,,,
,,,,4.72017626,1.6762,space,0.3698,0,12,12,29,1,30,image/30.jpg,0,R_1RlIO1DP8koMWuo,2,2024-04-09_13h54.53.800,face trait task,2021.2.3,MacIntel,62.89308176,SONAid,,,,,,,
,,,,5.453699762,3.2121,space,1.1839,0,13,13,13,1,14,image/14.jpg,0,R_1RlIO1DP8koMWuo,2,2024-04-09_13h54.53.800,face trait task,2021.2.3,MacIntel,62.89308176,SONAid,,,,,,,
,,,,6.04864186,1.3255,space,0.6907,0,14,14,21,1,22,image/22.jpg,0,R_1RlIO1DP8koMWuo,2,2024-04-09_13h54.53.800,face trait task,2021.2.3,MacIntel,62.89308176,SONAid,,,,,,,
,,,,2.703880705,1.8905,space,0.3324,0,15,15,16,1,17,image/17.jpg,0,R_1RlIO1DP8koMWuo,2,2024-04-09_13h54.53.800,face trait task,2021.2.3,MacIntel,62.89308176,SONAid,,,,,,,
,,,,3.414669193,1.622,space,0.4569,0,16,16,45,1,46,image/46.jpg,0,R_1RlIO1DP8koMWuo,2,2024-04-09_13h54.53.800,face trait task,2021.2.3,MacIntel,62.89308176,SONAid,,,,,,,
,,,,3.752597071,2.934,space,0.5496,0,17,17,23,1,24,image/24.jpg,0,R_1RlIO1DP8koMWuo,2,2024-04-09_13h54.53.800,face trait task,2021.2.3,MacIntel,62.89308176,SONAid,,,,,,,
,,,,4.966908634,2.0435,space,0.2374,0,18,18,41,1,42,image/42.jpg,0,R_1RlIO1DP8koMWuo,2,2024-04-09_13h54.53.800,face trait task,2021.2.3,MacIntel,62.89308176,SONAid,,,,,,,
,,,,6.902354394,3.5658,space,0.7749,0,19,19,30,1,31,image/31.jpg,0,R_1RlIO1DP8koMWuo,2,2024-04-09_13h54.53.800,face trait task,2021.2.3,MacIntel,62.89308176,SONAid,,,,,,,
,,,,1.512176431,6.0582,space,4.2012,0,20,20,42,1,43,image/43.jpg,0,R_1RlIO1DP8koMWuo,2,2024-04-09_13h54.53.800,face trait task,2021.2.3,MacIntel,62.89308176,SONAid,,,,,,,
,,,,3.515986887,2.1711,space,0.3359,0,21,21,49,1,50,image/50.jpg,0,R_1RlIO1DP8koMWuo,2,2024-04-09_13h54.53.800,face trait task,2021.2.3,MacIntel,62.89308176,SONAid,,,,,,,
,,,,3.05984971,2.8806,space,0.4365,0,22,22,48,1,49,image/49.jpg,0,R_1RlIO1DP8koMWuo,2,2024-04-09_13h54.53.800,face trait task,2021.2.3,MacIntel,62.89308176,SONAid,,,,,,,
,,,,3.538849625,5.6458,space,0.4702,0,23,23,33,1,34,image/34.jpg,0,R_1RlIO1DP8koMWuo,2,2024-04-09_13h54.53.800,face trait task,2021.2.3,MacIntel,62.89308176,SONAid,,,,,,,
,,,,4.961959298,1.6068,space,0.257,0,24,24,7,1,8,image/8.jpg,0,R_1RlIO1DP8koMWuo,2,2024-04-09_13h54.53.800,face trait task,2021.2.3,MacIntel,62.89308176,SONAid,,,,,,,
,,,,3.685509622,2.0439,space,0.3013,0,25,25,9,1,10,image/10.jpg,0,R_1RlIO1DP8koMWuo,2,2024-04-09_13h54.53.800,face trait task,2021.2.3,MacIntel,62.89308176,SONAid,,,,,,,
,,,,3.685509622,1.106,space,0.2512,0,26,26,18,1,19,image/19.jpg,0,R_1RlIO1DP8koMWuo,2,2024-04-09_13h54.53.800,face trait task,2021.2.3,MacIntel,62.89308176,SONAid,,,,,,,
,,,,2.98180986,2.4864,space,0.2097,0,27,27,11,1,12,image/12.jpg,0,R_1RlIO1DP8koMWuo,2,2024-04-09_13h54.53.800,face trait task,2021.2.3,MacIntel,62.89308176,SONAid,,,,,,,
,,,,5.323069227,1.6126,space,0.3947,0,28,28,12,1,13,image/13.jpg,0,R_1RlIO1DP8koMWuo,2,2024-04-09_13h54.53.800,face trait task,2021.2.3,MacIntel,62.89308176,SONAid,,,,,,,
,,,,5.31703423,1.247,space,0.3907,0,29,29,4,1,5,image/5.jpg,0,R_1RlIO1DP8koMWuo,2,2024-04-09_13h54.53.800,face trait task,2021.2.3,MacIntel,62.89308176,SONAid,,,,,,,
,,,,3.484311138,1.8426,space,0.3115,0,30,30,39,1,40,image/40.jpg,0,R_1RlIO1DP8koMWuo,2,2024-04-09_13h54.53.800,face trait task,2021.2.3,MacIntel,62.89308176,SONAid,,,,,,,
,,,,5.279163828,1.2413,space,0.1499,0,31,31,35,1,36,image/36.jpg,0,R_1RlIO1DP8koMWuo,2,2024-04-09_13h54.53.800,face trait task,2021.2.3,MacIntel,62.89308176,SONAid,,,,,,,
,,,,6.016551005,2.2208,space,0.2696,0,32,32,15,1,16,image/16.jpg,0,R_1RlIO1DP8koMWuo,2,2024-04-09_13h54.53.800,face trait task,2021.2.3,MacIntel,62.89308176,SONAid,,,,,,,
,,,,4.784070589,12.7619,space,1.7204,0,33,33,36,1,37,image/37.jpg,0,R_1RlIO1DP8koMWuo,2,2024-04-09_13h54.53.800,face trait task,2021.2.3,MacIntel,62.89308176,SONAid,,,,,,,
,,,,4.52948314,7.4799,space,0.4823,0,34,34,20,1,21,image/21.jpg,0,R_1RlIO1DP8koMWuo,2,2024-04-09_13h54.53.800,face trait task,2021.2.3,MacIntel,62.89308176,SONAid,,,,,,,
,,,,5.552431029,1.1743,space,0.992,0,35,35,1,1,2,image/2.jpg,0,R_1RlIO1DP8koMWuo,2,2024-04-09_13h54.53.800,face trait task,2021.2.3,MacIntel,62.89308176,SONAid,,,,,,,
,,,,4.46022437,2.0612,space,0.3934,0,36,36,8,1,9,image/9.jpg,0,R_1RlIO1DP8koMWuo,2,2024-04-09_13h54.53.800,face trait task,2021.2.3,MacIntel,62.89308176,SONAid,,,,,,,
,,,,5.021191672,2.0311,space,0.4341,0,37,37,38,1,39,image/39.jpg,0,R_1RlIO1DP8koMWuo,2,2024-04-09_13h54.53.800,face trait task,2021.2.3,MacIntel,62.89308176,SONAid,,,,,,,
,,,,4.99769031,12.6255,space,0.5392,0,38,38,37,1,38,image/38.jpg,0,R_1RlIO1DP8koMWuo,2,2024-04-09_13h54.53.800,face trait task,2021.2.3,MacIntel,62.89308176,SONAid,,,,,,,
,,,,5.784059946,1.1113,space,0.2665,0,39,39,2,1,3,image/3.jpg,0,R_1RlIO1DP8koMWuo,2,2024-04-09_13h54.53.800,face trait task,2021.2.3,MacIntel,62.89308176,SONAid,,,,,,,
,,,,2.577401226,1.26,space,0.2095,0,40,40,0,1,1,image/1.jpg,0,R_1RlIO1DP8koMWuo,2,2024-04-09_13h54.53.800,face trait task,2021.2.3,MacIntel,62.89308176,SONAid,,,,,,,
,,,,2.577401226,1.212,space,0.3597,0,41,41,28,1,29,image/29.jpg,0,R_1RlIO1DP8koMWuo,2,2024-04-09_13h54.53.800,face trait task,2021.2.3,MacIntel,62.89308176,SONAid,,,,,,,
,,,,6.523426856,23.4168,space,0.8239,0,42,42,3,1,4,image/4.jpg,0,R_1RlIO1DP8koMWuo,2,2024-04-09_13h54.53.800,face trait task,2021.2.3,MacIntel,62.89308176,SONAid,,,,,,,
,,,,2.496838811,2.5131,space,0.1785,0,43,43,24,1,25,image/25.jpg,0,R_1RlIO1DP8koMWuo,2,2024-04-09_13h54.53.800,face trait task,2021.2.3,MacIntel,62.89308176,SONAid,,,,,,,
,,,,3.95845751,1.9355,space,0.2513,0,44,44,31,1,32,image/32.jpg,0,R_1RlIO1DP8koMWuo,2,2024-04-09_13h54.53.800,face trait task,2021.2.3,MacIntel,62.89308176,SONAid,,,,,,,
,,,,5.280600732,2.6525,space,0.2363,0,45,45,51,1,55,image/55.jpg,1,R_1RlIO1DP8koMWuo,2,2024-04-09_13h54.53.800,face trait task,2021.2.3,MacIntel,62.89308176,SONAid,,,,,,,
,,,,5.503384707,14.6893,space,8.608,0,46,46,14,1,15,image/15.jpg,0,R_1RlIO1DP8koMWuo,2,2024-04-09_13h54.53.800,face trait task,2021.2.3,MacIntel,62.89308176,SONAid,,,,,,,
,,,,2.374765838,1.5216,space,0.2827,0,47,47,50,1,61,image/61.jpg,1,R_1RlIO1DP8koMWuo,2,2024-04-09_13h54.53.800,face trait task,2021.2.3,MacIntel,62.89308176,SONAid,,,,,,,
,,,,4.484236631,2.1697,space,0.4186,0,48,48,17,1,18,image/18.jpg,0,R_1RlIO1DP8koMWuo,2,2024-04-09_13h54.53.800,face trait task,2021.2.3,MacIntel,62.89308176,SONAid,,,,,,,
,,,,2.224465685,1.687,space,0.1599,0,49,49,26,1,27,image/27.jpg,0,R_1RlIO1DP8koMWuo,2,2024-04-09_13h54.53.800,face trait task,2021.2.3,MacIntel,62.89308176,SONAid,,,,,,,
,,,,6.986046066,3.2373,space,1.9669,0,50,50,19,1,20,image/20.jpg,0,R_1RlIO1DP8koMWuo,2,2024-04-09_13h54.53.800,face trait task,2021.2.3,MacIntel,62.89308176,SONAid,,,,,,,
,,,,2.488792149,1.4779,space,0.5507,0,51,51,40,1,41,image/41.jpg,0,R_1RlIO1DP8koMWuo,2,2024-04-09_13h54.53.800,face trait task,2021.2.3,MacIntel,62.89308176,SONAid,,,,,,,
,,,,1.557039765,1.2777,space,0.2349,0,52,52,52,1,61,image/61.jpg,1,R_1RlIO1DP8koMWuo,2,2024-04-09_13h54.53.800,face trait task,2021.2.3,MacIntel,62.89308176,SONAid,,,,,,,
,,,,,,,,,,,,,,,,R_1RlIO1DP8koMWuo,2,2024-04-09_13h54.53.800,face trait task,2021.2.3,MacIntel,62.89308176,SONAid,0,0,0,0,1,0,critical.png
