chooserow,ParID,pre_instru_resp_2.keys,pre_instru_resp_2.rt,pre_instru_resp_3.keys,pre_instru_resp_3.rt,pre_instru_resp_9.keys,pre_instru_resp_9.rt,pre_instru_resp_8.keys,pre_instru_resp_8.rt,pre_instru_resp_4.keys,pre_instru_resp_4.rt,pre_instru_resp_5.keys,pre_instru_resp_5.rt,pre_instru_resp_6.keys,pre_instru_resp_6.rt,key_resp_3.keys,key_resp_3.rt,key_resp_4.keys,key_resp_4.rt,key_resp_5.keys,key_resp_5.rt,key_resp_6.keys,key_resp_6.rt,key_resp_7.keys,key_resp_7.rt,trials_2.thisRepN,trials_2.thisTrialN,trials_2.thisN,trials_2.thisIndex,trials_2.ran,participant,session,date,expName,psychopyVersion,OS,frameRate,SONAid,pre_instru_resp.keys,pre_instru_resp.rt,clicked,judge_2.x,judge_2.y,judge_2.leftButton,judge_2.midButton,judge_2.rightButton,judge_2.clicked_name,trials.thisRepN,trials.thisTrialN,trials.thisN,trials.thisIndex,trials.ran,prac_answer,prac_dot_sti,dotlefttext,dotrighttext,prac_acc,judge.x,judge.y,judge.leftButton,judge.midButton,judge.rightButton,clicked_guilt,incompleteTrials,slider_guilt.response,slider_guilt.rt,key_guilt.keys,share_slider.response,share_slider.rt,key_share.keys,slider_apology.response,slider_apology.rt,key_apology.keys,slider_hide.response,slider_hide.rt,slider_forgiveness.response,slider_forgiveness.rt,key_forgiveness.keys,slider_mad.response,slider_mad.rt,trialseq.thisRepN,trialseq.thisTrialN,trialseq.thisN,trialseq.thisIndex,trialseq.ran,type_trial,stipic,DV,picture,answer,number,judge.clicked_name,key_guilt.rt,key_share.rt,key_apology.rt,key_forgiveness.rt,trials_redo.thisRepN,trials_redo.thisTrialN,trials_redo.thisN,trials_redo.thisIndex,trials_redo.ran
"[182,53,11,164,126,160,104,55,77,148,58,176,66,117,105,38,120,188,94,145,108,168,165,134,137,107,189,34,203,86,194,170,70,124,143,110,82,17,63,88,144,83]",R_1RlIO1DP8koMWuo,space,6.9439,space,0.8797,space,0.9274,space,2.4357,space,1.0063,space,2.8398,space,1.1963,1,8.1301,1,11.2205,3,9.7389,3,15.7941,2,8.1458,0,0,0,0,1,R_1RlIO1DP8koMWuo,1,2024-04-09_11h19.55.602,interaction task,2021.2.3,MacIntel,59.17159763,120242,,,,,,,,,,,,,,,,,,,,,,,,,,,,,,,,,,,,,,,,,,,,,,,,,,,,,,,,,,,,,,,
,,,,space,3.3632,space,12.7628,space,26.7584,space,7.848,space,4.2452,space,1.2825,3,6.3829,2,10.952,3,7.0146,1,5.7644,3,8.9126,1,0,1,0,1,R_1RlIO1DP8koMWuo,1,2024-04-09_11h19.55.602,interaction task,2021.2.3,MacIntel,59.17159763,120242,,,,,,,,,,,,,,,,,,,,,,,,,,,,,,,,,,,,,,,,,,,,,,,,,,,,,,,,,,,,,,,
,,,,space,1.5484,space,5.558,space,0.5007,space,4.5009,space,5.6733,space,0.3564,3,2.9766,2,7.206,3,11.0903,2,7.9587,3,8.6397,2,0,2,0,1,R_1RlIO1DP8koMWuo,1,2024-04-09_11h19.55.602,interaction task,2021.2.3,MacIntel,59.17159763,120242,,,,,,,,,,,,,,,,,,,,,,,,,,,,,,,,,,,,,,,,,,,,,,,,,,,,,,,,,,,,,,,
,,,,space,0.4409,space,13.0107,space,6.4322,space,2.9719,space,8.3656,space,0.611,3,3.3493,2,6.5807,3,16.0099,2,5.5486,3,3.2976,3,0,3,0,1,R_1RlIO1DP8koMWuo,1,2024-04-09_11h19.55.602,interaction task,2021.2.3,MacIntel,59.17159763,120242,,,,,,,,,,,,,,,,,,,,,,,,,,,,,,,,,,,,,,,,,,,,,,,,,,,,,,,,,,,,,,,
,,,,space,8.9585,space,1.1086,space,0.5524,space,0.4854,space,24.2407,space,0.5495,3,1.999,2,3.1169,3,66.969,2,4.0887,3,7.075,4,0,4,0,1,R_1RlIO1DP8koMWuo,1,2024-04-09_11h19.55.602,interaction task,2021.2.3,MacIntel,59.17159763,120242,,,,,,,,,,,,,,,,,,,,,,,,,,,,,,,,,,,,,,,,,,,,,,,,,,,,,,,,,,,,,,,
,,,,space,0.2183,space,0.7485,space,0.4385,space,20.08,space,7.8815,space,0.4172,3,1.8352,2,22.6843,3,12.8876,2,5.666,2,2.7298,5,0,5,0,1,R_1RlIO1DP8koMWuo,1,2024-04-09_11h19.55.602,interaction task,2021.2.3,MacIntel,59.17159763,120242,,,,,,,,,,,,,,,,,,,,,,,,,,,,,,,,,,,,,,,,,,,,,,,,,,,,,,,,,,,,,,,
,,,,space,0.7906,space,0.6254,space,0.6162,space,0.741,space,3.5376,space,0.49,3,2.3829,2,2.5651,3,3.7102,3,1.0759,3,0.3339,6,0,6,0,1,R_1RlIO1DP8koMWuo,1,2024-04-09_11h19.55.602,interaction task,2021.2.3,MacIntel,59.17159763,120242,,,,,,,,,,,,,,,,,,,,,,,,,,,,,,,,,,,,,,,,,,,,,,,,,,,,,,,,,,,,,,,
,,,,space,0.8499,space,1.9166,space,0.5745,space,0.7167,space,4.9594,space,62.8821,3,55.3823,1,7.4468,3,8.6057,2,3.4554,2,3.3053,7,0,7,0,1,R_1RlIO1DP8koMWuo,1,2024-04-09_11h19.55.602,interaction task,2021.2.3,MacIntel,59.17159763,120242,,,,,,,,,,,,,,,,,,,,,,,,,,,,,,,,,,,,,,,,,,,,,,,,,,,,,,,,,,,,,,,
,,,,,,,,,,,,,,,,,,,,,,,,,,,,,,,R_1RlIO1DP8koMWuo,1,2024-04-09_11h19.55.602,interaction task,2021.2.3,MacIntel,59.17159763,120242,space,2.9949,"[""LeftButton_2""]",-0.247128135,-0.323548195,1,0,0,LeftButton_2,0,0,0,1,1,LeftButton_2,9dot1.png,Smaller,Greater,,,,,,,,,,,,,,,,,,,,,,,,,,,,,,,,,,,,,,,,,,,,,
,,,,,,,,,,,,,,,,,,,,,,,,,,,,,,,R_1RlIO1DP8koMWuo,1,2024-04-09_11h19.55.602,interaction task,2021.2.3,MacIntel,59.17159763,120242,,,"[""RightButton_2""]",0.181936164,-0.308710831,1,0,0,RightButton_2,0,1,1,2,1,RightButton_2,11dot1.png,Smaller,Greater,,,,,,,,,,,,,,,,,,,,,,,,,,,,,,,,,,,,,,,,,,,,,
,,,,,,,,,,,,,,,,,,,,,,,,,,,,,,,R_1RlIO1DP8koMWuo,1,2024-04-09_11h19.55.602,interaction task,2021.2.3,MacIntel,59.17159763,120242,,,"[""RightButton_2""]",0.374344675,-0.308008345,1,0,0,RightButton_2,0,2,2,0,1,RightButton_2,11dot2.png,Smaller,Greater,,,,,,,,,,,,,,,,,,,,,,,,,,,,,,,,,,,,,,,,,,,,,
,,,,,,,,,,,,,,,,,,,,,,,,,,,,,,,R_1RlIO1DP8koMWuo,1,2024-04-09_11h19.55.602,interaction task,2021.2.3,MacIntel,59.17159763,120242,,,,,,,,,,,,,,,,,Greater,Smaller,0.6,-0.309249075,-0.557997701,0,0,0,[],182,,,,,,,,,,,,,,,,,0,0,0,0,1,3,only_sub_wrong.png,3,RandomDot8.png,No answer,21,,,,,,,,,,
,,,,,,,,,,,,,,,,,,,,,,,,,,,,,,,R_1RlIO1DP8koMWuo,1,2024-04-09_11h19.55.602,interaction task,2021.2.3,MacIntel,59.17159763,120242,,,,,,,,,,,,,,,,,Greater,Smaller,,-0.23476691,-0.472709469,1,0,0,"[""LeftButton""]",,48,7.6947,space,,,,,,,,,,,,,,0,1,1,1,1,1,both_wrong.png,0,RandomDot32.png,No answer,19,LeftButton,3.7034,,,,,,,,
,,,,,,,,,,,,,,,,,,,,,,,,,,,,,,,R_1RlIO1DP8koMWuo,1,2024-04-09_11h19.55.602,interaction task,2021.2.3,MacIntel,59.17159763,120242,,,,,,,,,,,,,,,,,Smaller,Greater,,-0.311831826,-0.498116059,1,0,0,"[""LeftButton""]",,,,,,,,,,,,,,,,,,0,2,2,2,1,0,both_right.png,0,RandomDot38.png,No answer,21,LeftButton,,,,,,,,,
,,,,,,,,,,,,,,,,,,,,,,,,,,,,,,,R_1RlIO1DP8koMWuo,1,2024-04-09_11h19.55.602,interaction task,2021.2.3,MacIntel,59.17159763,120242,,,,,,,,,,,,,,,,,Smaller,Greater,,0.291985763,-0.517913403,1,0,0,"[""RightButton""]",,,,,4.866718493,12.4896,space,,,,,,,,,,,0,3,3,3,1,3,only_sub_wrong.png,1,RandomDot40.png,No answer,19,RightButton,,1.27,,,,,,,
,,,,,,,,,,,,,,,,,,,,,,,,,,,,,,,R_1RlIO1DP8koMWuo,1,2024-04-09_11h19.55.602,interaction task,2021.2.3,MacIntel,59.17159763,120242,,,,,,,,,,,,,,,,,Smaller,Greater,,-0.238229852,-0.524363505,1,0,0,"[""LeftButton""]",,,,,,,,20,8.7381,space,100,13.8225,,,,,,0,4,4,4,1,2,only_sub_right.png,2,RandomDot34.png,No answer,20,LeftButton,,,0.9395,,,,,,
,,,,,,,,,,,,,,,,,,,,,,,,,,,,,,,R_1RlIO1DP8koMWuo,1,2024-04-09_11h19.55.602,interaction task,2021.2.3,MacIntel,59.17159763,120242,,,,,,,,,,,,,,,,,Greater,Smaller,,0.33749229,-0.543383856,1,0,0,"[""RightButton""]",,,,,2.445196854,8.5896,space,,,,,,,,,,,0,5,5,5,1,3,only_sub_wrong.png,1,RandomDot22.png,No answer,19,RightButton,,1.5176,,,,,,,
,,,,,,,,,,,,,,,,,,,,,,,,,,,,,,,R_1RlIO1DP8koMWuo,1,2024-04-09_11h19.55.602,interaction task,2021.2.3,MacIntel,59.17159763,120242,,,,,,,,,,,,,,,,,Smaller,Greater,,0.379407381,-0.48294874,1,0,0,"[""RightButton""]",,51,3.4265,space,,,,,,,,,,,,,,0,6,6,6,1,2,only_sub_right.png,0,RandomDot29.png,No answer,20,RightButton,0.5924,,,,,,,,
,,,,,,,,,,,,,,,,,,,,,,,,,,,,,,,R_1RlIO1DP8koMWuo,1,2024-04-09_11h19.55.602,interaction task,2021.2.3,MacIntel,59.17159763,120242,,,,,,,,,,,,,,,,,Smaller,Greater,,-0.214079204,-0.473890923,1,0,0,"[""LeftButton""]",,49,1.1304,space,,,,,,,,,,,,,,0,7,7,7,1,1,both_wrong.png,0,RandomDot28.png,No answer,19,LeftButton,1.229,,,,,,,,
,,,,,,,,,,,,,,,,,,,,,,,,,,,,,,,R_1RlIO1DP8koMWuo,1,2024-04-09_11h19.55.602,interaction task,2021.2.3,MacIntel,59.17159763,120242,,,,,,,,,,,,,,,,,Greater,Smaller,,0.329255757,-0.492293937,1,0,0,"[""RightButton""]",,,,,,,,49,4.4052,space,49,3.5739,,,,,,0,8,8,8,1,1,both_wrong.png,2,RandomDot13.png,No answer,21,RightButton,,,0.4481,,,,,,
,,,,,,,,,,,,,,,,,,,,,,,,,,,,,,,R_1RlIO1DP8koMWuo,1,2024-04-09_11h19.55.602,interaction task,2021.2.3,MacIntel,59.17159763,120242,,,,,,,,,,,,,,,,,Greater,Smaller,,0.330759149,-0.498446015,1,0,0,"[""RightButton""]",,35,2.1901,space,,,,,,,,,,,,,,0,9,9,9,1,3,only_sub_wrong.png,0,RandomDot12.png,No answer,20,RightButton,0.3834,,,,,,,,
,,,,,,,,,,,,,,,,,,,,,,,,,,,,,,,R_1RlIO1DP8koMWuo,1,2024-04-09_11h19.55.602,interaction task,2021.2.3,MacIntel,59.17159763,120242,,,,,,,,,,,,,,,,,Smaller,Greater,,0.311696906,-0.54091451,1,0,0,"[""RightButton""]",,67,3.5567,space,,,,,,,,,,,,,,0,10,10,10,1,1,both_wrong.png,0,RandomDot34.png,No answer,19,RightButton,2.7844,,,,,,,,
,,,,,,,,,,,,,,,,,,,,,,,,,,,,,,,R_1RlIO1DP8koMWuo,1,2024-04-09_11h19.55.602,interaction task,2021.2.3,MacIntel,59.17159763,120242,,,,,,,,,,,,,,,,,Smaller,Greater,,0.30521433,-0.469867592,1,0,0,"[""RightButton""]",,,,,,,,43,4.0113,space,46,5.2359,,,,,,0,11,11,11,1,3,only_sub_wrong.png,2,RandomDot40.png,No answer,20,RightButton,,,0.4232,,,,,,
,,,,,,,,,,,,,,,,,,,,,,,,,,,,,,,R_1RlIO1DP8koMWuo,1,2024-04-09_11h19.55.602,interaction task,2021.2.3,MacIntel,59.17159763,120242,,,,,,,,,,,,,,,,,Smaller,Greater,,0.290694387,-0.545608396,1,0,0,"[""RightButton""]",,,,,2.488467568,6.6629,space,,,,,,,,,,,0,12,12,12,1,1,both_wrong.png,1,RandomDot10.png,No answer,19,RightButton,,2.7871,,,,,,,
,,,,,,,,,,,,,,,,,,,,,,,,,,,,,,,R_1RlIO1DP8koMWuo,1,2024-04-09_11h19.55.602,interaction task,2021.2.3,MacIntel,59.17159763,120242,,,,,,,,,,,,,,,,,Smaller,Greater,,-0.27096397,-0.504044619,1,0,0,"[""LeftButton""]",,,,,2.303531044,1.1728,space,,,,,,,,,,,0,13,13,13,1,2,only_sub_right.png,1,RandomDot27.png,No answer,21,LeftButton,,1.0993,,,,,,,
,,,,,,,,,,,,,,,,,,,,,,,,,,,,,,,R_1RlIO1DP8koMWuo,1,2024-04-09_11h19.55.602,interaction task,2021.2.3,MacIntel,59.17159763,120242,,,,,,,,,,,,,,,,,Smaller,Greater,,0.310713919,-0.513655909,1,0,0,"[""RightButton""]",,47,2.2383,space,,,,,,,,,,,,,,0,14,14,14,1,2,only_sub_right.png,0,RandomDot17.png,No answer,20,RightButton,1.6691,,,,,,,,
,,,,,,,,,,,,,,,,,,,,,,,,,,,,,,,R_1RlIO1DP8koMWuo,1,2024-04-09_11h19.55.602,interaction task,2021.2.3,MacIntel,59.17159763,120242,,,,,,,,,,,,,,,,,Greater,Smaller,,0.24467388,-0.50239484,1,0,0,"[""RightButton""]",,,,,,,,,,,,,,,,,,0,15,15,15,1,0,both_right.png,3,RandomDot39.png,No answer,20,RightButton,,,,,,,,,
,,,,,,,,,,,,,,,,,,,,,,,,,,,,,,,R_1RlIO1DP8koMWuo,1,2024-04-09_11h19.55.602,interaction task,2021.2.3,MacIntel,59.17159763,120242,,,,,,,,,,,,,,,,,Greater,Smaller,,-0.207795796,-0.50638624,1,0,0,"[""LeftButton""]",,,,,,,,33,4.8195,space,51,10.4962,,,,,,0,16,16,16,1,2,only_sub_right.png,2,RandomDot21.png,No answer,21,LeftButton,,,0.469,,,,,,
,,,,,,,,,,,,,,,,,,,,,,,,,,,,,,,R_1RlIO1DP8koMWuo,1,2024-04-09_11h19.55.602,interaction task,2021.2.3,MacIntel,59.17159763,120242,,,,,,,,,,,,,,,,,Smaller,Greater,,-0.289955541,-0.538317439,1,0,0,"[""LeftButton""]",,,,,,,,,,,,,59.63128925,5.4399,space,46.74998339,10.0388,0,17,17,17,1,3,only_sub_wrong.png,3,RandomDot22.png,No answer,21,LeftButton,,,,1.7232,,,,,
,,,,,,,,,,,,,,,,,,,,,,,,,,,,,,,R_1RlIO1DP8koMWuo,1,2024-04-09_11h19.55.602,interaction task,2021.2.3,MacIntel,59.17159763,120242,,,,,,,,,,,,,,,,,Smaller,Greater,,-0.306672749,-0.538487738,1,0,0,"[""LeftButton""]",,,,,,,,,,,,,45.58184642,2.7268,space,45.04190756,4.5271,0,18,18,18,1,1,both_wrong.png,3,RandomDot25.png,No answer,21,LeftButton,,,,0.9633,,,,,
,,,,,,,,,,,,,,,,,,,,,,,,,,,,,,,R_1RlIO1DP8koMWuo,1,2024-04-09_11h19.55.602,interaction task,2021.2.3,MacIntel,59.17159763,120242,,,,,,,,,,,,,,,,,Greater,Smaller,,-0.286068565,-0.526513539,1,0,0,"[""LeftButton""]",,47,44.7048,space,,,,,,,,,,,,,,0,19,19,19,1,3,only_sub_wrong.png,0,RandomDot15.png,No answer,20,LeftButton,2.1321,,,,,,,,
,,,,,,,,,,,,,,,,,,,,,,,,,,,,,,,R_1RlIO1DP8koMWuo,1,2024-04-09_11h19.55.602,interaction task,2021.2.3,MacIntel,59.17159763,120242,,,,,,,,,,,,,,,,,Greater,Smaller,,-0.268997995,-0.515284401,1,0,0,"[""LeftButton""]",,,,,4.880531713,8.7935,space,,,,,,,,,,,0,20,20,20,1,2,only_sub_right.png,1,RandomDot3.png,No answer,20,LeftButton,,4.5683,,,,,,,
,,,,,,,,,,,,,,,,,,,,,,,,,,,,,,,R_1RlIO1DP8koMWuo,1,2024-04-09_11h19.55.602,interaction task,2021.2.3,MacIntel,59.17159763,120242,,,,,,,,,,,,,,,,,Greater,Smaller,,0.38529888,-0.528972241,1,0,0,"[""RightButton""]",,,,,,,,46,371.4174,space,47,372.493,,,,,,0,21,21,21,1,3,only_sub_wrong.png,2,RandomDot13.png,No answer,21,RightButton,,,0.4425,,,,,,
,,,,,,,,,,,,,,,,,,,,,,,,,,,,,,,R_1RlIO1DP8koMWuo,1,2024-04-09_11h19.55.602,interaction task,2021.2.3,MacIntel,59.17159763,120242,,,,,,,,,,,,,,,,,Smaller,Greater,,0.330527858,-0.47479564,1,0,0,"[""RightButton""]",,,,,2.481817948,2.1212,space,,,,,,,,,,,0,22,22,22,1,3,only_sub_wrong.png,1,RandomDot6.png,No answer,21,RightButton,,0.5246,,,,,,,
,,,,,,,,,,,,,,,,,,,,,,,,,,,,,,,R_1RlIO1DP8koMWuo,1,2024-04-09_11h19.55.602,interaction task,2021.2.3,MacIntel,59.17159763,120242,,,,,,,,,,,,,,,,,Greater,Smaller,,-0.00363641,-0.018701039,0,0,0,[],134,,,,,,,,,,,,,,,,,0,23,23,23,1,2,only_sub_right.png,3,RandomDot22.png,No answer,20,,,,,,,,,,
,,,,,,,,,,,,,,,,,,,,,,,,,,,,,,,R_1RlIO1DP8koMWuo,1,2024-04-09_11h19.55.602,interaction task,2021.2.3,MacIntel,59.17159763,120242,,,,,,,,,,,,,,,,,Greater,Smaller,,-0.00363641,-0.018701039,0,0,0,[],137,,,,,,,,,,,,,,,,,0,24,24,24,1,2,only_sub_right.png,3,RandomDot23.png,No answer,20,,,,,,,,,,
,,,,,,,,,,,,,,,,,,,,,,,,,,,,,,,R_1RlIO1DP8koMWuo,1,2024-04-09_11h19.55.602,interaction task,2021.2.3,MacIntel,59.17159763,120242,,,,,,,,,,,,,,,,,Smaller,Greater,,-0.274716026,-0.535816161,1,0,0,"[""LeftButton""]",,44,56.8861,space,,,,,,,,,,,,,,0,25,25,25,1,2,only_sub_right.png,0,RandomDot37.png,No answer,21,LeftButton,0.4278,,,,,,,,
,,,,,,,,,,,,,,,,,,,,,,,,,,,,,,,R_1RlIO1DP8koMWuo,1,2024-04-09_11h19.55.602,interaction task,2021.2.3,MacIntel,59.17159763,120242,,,,,,,,,,,,,,,,,Smaller,Greater,,0.340531199,-0.489803304,1,0,0,"[""RightButton""]",,,,,,,,,,,,,49.963009,2.6076,space,98.99945175,5.6931,0,26,26,26,1,3,only_sub_wrong.png,3,RandomDot38.png,No answer,20,RightButton,,,,4.445,,,,,
,,,,,,,,,,,,,,,,,,,,,,,,,,,,,,,R_1RlIO1DP8koMWuo,1,2024-04-09_11h19.55.602,interaction task,2021.2.3,MacIntel,59.17159763,120242,,,,,,,,,,,,,,,,,Smaller,Greater,,-0.328761051,-0.545810627,1,0,0,"[""LeftButton""]",,,,,,,,,,,,,,,,,,0,27,27,27,1,0,both_right.png,2,RandomDot15.png,No answer,21,LeftButton,,,,,,,,,
,,,,,,,,,,,,,,,,,,,,,,,,,,,,,,,R_1RlIO1DP8koMWuo,1,2024-04-09_11h19.55.602,interaction task,2021.2.3,MacIntel,59.17159763,120242,,,,,,,,,,,,,,,,,Smaller,Greater,,-0.258994655,-0.501394329,1,0,0,"[""LeftButton""]",,,,,,,,,,,,,,,,,,0,28,28,28,1,5,both_right.png,10,RandomDot42.png,LeftButton,21,LeftButton,,,,,,,,,
,,,,,,,,,,,,,,,,,,,,,,,,,,,,,,,R_1RlIO1DP8koMWuo,1,2024-04-09_11h19.55.602,interaction task,2021.2.3,MacIntel,59.17159763,120242,,,,,,,,,,,,,,,,,Greater,Smaller,,-0.222945364,-0.516082681,1,0,0,"[""LeftButton""]",,,,,,,,,,,,,53.91131193,1.388,space,50.98058608,2.2083,0,29,29,29,1,1,both_wrong.png,3,RandomDot13.png,No answer,21,LeftButton,,,,11.6844,,,,,
,,,,,,,,,,,,,,,,,,,,,,,,,,,,,,,R_1RlIO1DP8koMWuo,1,2024-04-09_11h19.55.602,interaction task,2021.2.3,MacIntel,59.17159763,120242,,,,,,,,,,,,,,,,,Greater,Smaller,,0.006225586,-0.361631471,0,0,0,[],194,,,,,,,,,,,,,,,,,0,30,30,30,1,4,both_right.png,10,RandomDot41.png,LeftButton,5,,,,,,,,,,
,,,,,,,,,,,,,,,,,,,,,,,,,,,,,,,R_1RlIO1DP8koMWuo,1,2024-04-09_11h19.55.602,interaction task,2021.2.3,MacIntel,59.17159763,120242,,,,,,,,,,,,,,,,,Greater,Smaller,,0.006225586,-0.361631471,0,0,0,[],170,,,,,,,,,,,,,,,,,0,31,31,31,1,3,only_sub_wrong.png,2,RandomDot39.png,No answer,20,,,,,,,,,,
,,,,,,,,,,,,,,,,,,,,,,,,,,,,,,,R_1RlIO1DP8koMWuo,1,2024-04-09_11h19.55.602,interaction task,2021.2.3,MacIntel,59.17159763,120242,,,,,,,,,,,,,,,,,Smaller,Greater,,-0.228515625,-0.490569653,1,0,0,"[""LeftButton""]",,,,,2.457885742,21.6851,space,,,,,,,,,,,0,32,32,32,1,1,both_wrong.png,1,RandomDot29.png,No answer,19,LeftButton,,12.181,,,,,,,
,,,,,,,,,,,,,,,,,,,,,,,,,,,,,,,R_1RlIO1DP8koMWuo,1,2024-04-09_11h19.55.602,interaction task,2021.2.3,MacIntel,59.17159763,120242,,,,,,,,,,,,,,,,,Greater,Smaller,,-0.223292301,-0.497849966,1,0,0,"[""LeftButton""]",,,,,,,,62,1.3069,space,48,2.4598,,,,,,0,33,33,33,1,2,only_sub_right.png,2,RandomDot20.png,No answer,20,LeftButton,,,0.3666,,,,,,
,,,,,,,,,,,,,,,,,,,,,,,,,,,,,,,R_1RlIO1DP8koMWuo,1,2024-04-09_11h19.55.602,interaction task,2021.2.3,MacIntel,59.17159763,120242,,,,,,,,,,,,,,,,,Smaller,Greater,,0.366609272,-0.542574932,1,0,0,"[""RightButton""]",,,,,,,,,,,,,50.73787318,67.7167,space,49.12324831,68.4261,0,34,34,34,1,2,only_sub_right.png,3,RandomDot31.png,No answer,19,RightButton,,,,0.5993,,,,,
,,,,,,,,,,,,,,,,,,,,,,,,,,,,,,,R_1RlIO1DP8koMWuo,1,2024-04-09_11h19.55.602,interaction task,2021.2.3,MacIntel,59.17159763,120242,,,,,,,,,,,,,,,,,Greater,Smaller,,0.240356445,-0.50285252,1,0,0,"[""RightButton""]",,,,,2.565917969,1.6625,space,,,,,,,,,,,0,35,35,35,1,2,only_sub_right.png,1,RandomDot6.png,No answer,21,RightButton,,0.5415,,,,,,,
,,,,,,,,,,,,,,,,,,,,,,,,,,,,,,,R_1RlIO1DP8koMWuo,1,2024-04-09_11h19.55.602,interaction task,2021.2.3,MacIntel,59.17159763,120242,,,,,,,,,,,,,,,,,Smaller,Greater,,-0.207204718,-0.51348561,1,0,0,"[""LeftButton""]",,,,,,,,47,43.7329,space,48,44.7101,,,,,,0,36,36,36,1,1,both_wrong.png,2,RandomDot7.png,No answer,21,LeftButton,,,0.4333,,,,,,
,,,,,,,,,,,,,,,,,,,,,,,,,,,,,,,R_1RlIO1DP8koMWuo,1,2024-04-09_11h19.55.602,interaction task,2021.2.3,MacIntel,59.17159763,120242,,,,,,,,,,,,,,,,,Greater,Smaller,,-0.241005345,-0.47097454,1,0,0,"[""LeftButton""]",,,,,,,,,,,,,,,,,,0,37,37,37,1,0,both_right.png,1,RandomDot7.png,No answer,21,LeftButton,,,,,,,,,
,,,,,,,,,,,,,,,,,,,,,,,,,,,,,,,R_1RlIO1DP8koMWuo,1,2024-04-09_11h19.55.602,interaction task,2021.2.3,MacIntel,59.17159763,120242,,,,,,,,,,,,,,,,,Greater,Smaller,,-0.267783717,-0.475923876,1,0,0,"[""LeftButton""]",,,,,2.574045282,5.2895,space,,,,,,,,,,,0,38,38,38,1,1,both_wrong.png,1,RandomDot27.png,No answer,19,LeftButton,,0.4898,,,,,,,
,,,,,,,,,,,,,,,,,,,,,,,,,,,,,,,R_1RlIO1DP8koMWuo,1,2024-04-09_11h19.55.602,interaction task,2021.2.3,MacIntel,59.17159763,120242,,,,,,,,,,,,,,,,,Greater,Smaller,,-0.171258224,-0.65599455,0,0,0,[],88,,,,,,,,,,,,,,,,,0,39,39,39,1,1,both_wrong.png,3,RandomDot30.png,No answer,20,,,,,,,,,,
,,,,,,,,,,,,,,,,,,,,,,,,,,,,,,,R_1RlIO1DP8koMWuo,1,2024-04-09_11h19.55.602,interaction task,2021.2.3,MacIntel,59.17159763,120242,,,,,,,,,,,,,,,,,Greater,Smaller,,-0.271118164,-0.519478031,1,0,0,"[""LeftButton""]",,89,2.7691,space,,,,,,,,,,,,,,0,40,40,40,1,3,only_sub_wrong.png,0,RandomDot33.png,No answer,19,LeftButton,2.5912,,,,,,,,
,,,,,,,,,,,,,,,,,,,,,,,,,,,,,,,R_1RlIO1DP8koMWuo,1,2024-04-09_11h19.55.602,interaction task,2021.2.3,MacIntel,59.17159763,120242,,,,,,,,,,,,,,,,,Smaller,Greater,,-0.189369603,-0.520670129,1,0,0,"[""LeftButton""]",,,,,,,,46,1.2857,space,46,2.1354,,,,,,0,41,41,41,1,1,both_wrong.png,2,RandomDot8.png,No answer,20,LeftButton,,,0.8092,,,,,,
,,,,,,,,,,,,,,,,,,,,,,,,,,,,,,,R_1RlIO1DP8koMWuo,1,2024-04-09_11h19.55.602,interaction task,2021.2.3,MacIntel,59.17159763,120242,,,,,,,,,,,,,,,,,Greater,Smaller,,0.20521947,-0.507950869,1,0,0,"[""RightButton""]",,,,,,,,,,,,,49.64501616,1.9693,space,47.89410864,2.7072,,,,,,2,only_sub_right.png,3,RandomDot22.png,No answer,20,RightButton,,,,0.1754,0,0,0,1,1
,,,,,,,,,,,,,,,,,,,,,,,,,,,,,,,R_1RlIO1DP8koMWuo,1,2024-04-09_11h19.55.602,interaction task,2021.2.3,MacIntel,59.17159763,120242,,,,,,,,,,,,,,,,,Greater,Smaller,,-0.226780942,-0.535486206,1,0,0,"[""LeftButton""]",,,,,,,,,,,,,46.31971961,6.034,space,50.59185606,5.1527,,,,,,2,only_sub_right.png,3,RandomDot23.png,No answer,20,LeftButton,,,,0.467,0,1,1,2,1
,,,,,,,,,,,,,,,,,,,,,,,,,,,,,,,R_1RlIO1DP8koMWuo,1,2024-04-09_11h19.55.602,interaction task,2021.2.3,MacIntel,59.17159763,120242,,,,,,,,,,,,,,,,,Greater,Smaller,,-0.261410362,-0.516859673,1,0,0,"[""LeftButton""]",,,,,,,,,,,,,48.15693946,1.725,space,48.35876757,2.717,,,,,,1,both_wrong.png,3,RandomDot30.png,No answer,20,LeftButton,,,,0.3766,0,2,2,5,1
,,,,,,,,,,,,,,,,,,,,,,,,,,,,,,,R_1RlIO1DP8koMWuo,1,2024-04-09_11h19.55.602,interaction task,2021.2.3,MacIntel,59.17159763,120242,,,,,,,,,,,,,,,,,Greater,Smaller,,-0.297986482,-0.457733736,1,0,0,"[""LeftButton""]",,,,,,,,,,,,,46.88756396,1.1898,space,47.32366843,1.7358,,,,,,3,only_sub_wrong.png,3,RandomDot8.png,No answer,21,LeftButton,,,,0.194,0,3,3,0,1
,,,,,,,,,,,,,,,,,,,,,,,,,,,,,,,R_1RlIO1DP8koMWuo,1,2024-04-09_11h19.55.602,interaction task,2021.2.3,MacIntel,59.17159763,120242,,,,,,,,,,,,,,,,,Greater,Smaller,,-0.337305972,-0.536348348,1,0,0,"[""LeftButton""]",,,,,,,,,,,,,,,,,,,,,,,4,both_right.png,10,RandomDot41.png,LeftButton,5,LeftButton,,,,,0,4,4,3,1
,,,,,,,,,,,,,,,,,,,,,,,,,,,,,,,R_1RlIO1DP8koMWuo,1,2024-04-09_11h19.55.602,interaction task,2021.2.3,MacIntel,59.17159763,120242,,,,,,,,,,,,,,,,,Greater,Smaller,,0.265721371,-0.497541298,1,0,0,"[""RightButton""]",,,,,,,,47,2.6354,space,48,1.9908,,,,,,,,,,,3,only_sub_wrong.png,2,RandomDot39.png,No answer,20,RightButton,,,0.2779,,0,5,5,4,1
