key_resp.keys,key_resp.rt,key_resp_4.keys,key_resp_4.rt,slider_face_judge.response,slider_face_judge.rt,key_resp_3.keys,key_resp_3.rt,face_loop.thisRepN,face_loop.thisTrialN,face_loop.thisN,face_loop.thisIndex,face_loop.ran,face_serial,image_name,isCheck,participant,session,date,expName,psychopyVersion,OS,frameRate,SONAid,session.thisRepN,session.thisTrialN,session.thisN,session.thisIndex,session.ran,session_serial,slider_judge_img
space,5.2793,space,1.1164,4.564958702,29.6533,space,9.1187,0,0,0,37,1,38,image/38.jpg,0,R_1RlIO1DP8koMWuo,2,2024-04-09_14h02.09.749,face trait task,2021.2.3,MacIntel,57.14285714,SONAid,,,,,,,
,,,,4.992772905,3.8209,space,0.7573,0,1,1,27,1,28,image/28.jpg,0,R_1RlIO1DP8koMWuo,2,2024-04-09_14h02.09.749,face trait task,2021.2.3,MacIntel,57.14285714,SONAid,,,,,,,
,,,,5.487163658,2.64,space,0.4103,0,2,2,51,1,57,image/57.jpg,1,R_1RlIO1DP8koMWuo,2,2024-04-09_14h02.09.749,face trait task,2021.2.3,MacIntel,57.14285714,SONAid,,,,,,,
,,,,6.173939884,2.1413,space,0.4449,0,3,3,41,1,42,image/42.jpg,0,R_1RlIO1DP8koMWuo,2,2024-04-09_14h02.09.749,face trait task,2021.2.3,MacIntel,57.14285714,SONAid,,,,,,,
,,,,4.477307561,3.3398,space,0.3035,0,4,4,35,1,36,image/36.jpg,0,R_1RlIO1DP8koMWuo,2,2024-04-09_14h02.09.749,face trait task,2021.2.3,MacIntel,57.14285714,SONAid,,,,,,,
,,,,4.477307561,2.2603,space,0.5715,0,5,5,15,1,16,image/16.jpg,0,R_1RlIO1DP8koMWuo,2,2024-04-09_14h02.09.749,face trait task,2021.2.3,MacIntel,57.14285714,SONAid,,,,,,,
,,,,5.668149693,1.4274,space,0.1869,0,6,6,23,1,24,image/24.jpg,0,R_1RlIO1DP8koMWuo,2,2024-04-09_14h02.09.749,face trait task,2021.2.3,MacIntel,57.14285714,SONAid,,,,,,,
,,,,3.548205467,2.2718,space,1.6056,0,7,7,11,1,12,image/12.jpg,0,R_1RlIO1DP8koMWuo,2,2024-04-09_14h02.09.749,face trait task,2021.2.3,MacIntel,57.14285714,SONAid,,,,,,,
,,,,2.520180518,1.4283,space,0.1587,0,8,8,42,1,43,image/43.jpg,0,R_1RlIO1DP8koMWuo,2,2024-04-09_14h02.09.749,face trait task,2021.2.3,MacIntel,57.14285714,SONAid,,,,,,,
,,,,3.765305688,2.8455,space,0.3255,0,9,9,48,1,49,image/49.jpg,0,R_1RlIO1DP8koMWuo,2,2024-04-09_14h02.09.749,face trait task,2021.2.3,MacIntel,57.14285714,SONAid,,,,,,,
,,,,4.596347071,1.4554,space,0.3671,0,10,10,28,1,29,image/29.jpg,0,R_1RlIO1DP8koMWuo,2,2024-04-09_14h02.09.749,face trait task,2021.2.3,MacIntel,57.14285714,SONAid,,,,,,,
,,,,5.3633664,1.7438,space,0.4853,0,11,11,16,1,17,image/17.jpg,0,R_1RlIO1DP8koMWuo,2,2024-04-09_14h02.09.749,face trait task,2021.2.3,MacIntel,57.14285714,SONAid,,,,,,,
,,,,6.220240123,1.44,space,0.3159,0,12,12,36,1,37,image/37.jpg,0,R_1RlIO1DP8koMWuo,2,2024-04-09_14h02.09.749,face trait task,2021.2.3,MacIntel,57.14285714,SONAid,,,,,,,
,,,,2.330094091,2.769,space,0.2754,0,13,13,40,1,41,image/41.jpg,0,R_1RlIO1DP8koMWuo,2,2024-04-09_14h02.09.749,face trait task,2021.2.3,MacIntel,57.14285714,SONAid,,,,,,,
,,,,4.074335831,106.5505,space,0.4551,0,14,14,49,1,50,image/50.jpg,0,R_1RlIO1DP8koMWuo,2,2024-04-09_14h02.09.749,face trait task,2021.2.3,MacIntel,57.14285714,SONAid,,,,,,,
,,,,2.260643733,1.4781,space,0.3761,0,15,15,44,1,45,image/45.jpg,0,R_1RlIO1DP8koMWuo,2,2024-04-09_14h02.09.749,face trait task,2021.2.3,MacIntel,57.14285714,SONAid,,,,,,,
,,,,3.949899949,1.5876,space,0.409,0,16,16,26,1,27,image/27.jpg,0,R_1RlIO1DP8koMWuo,2,2024-04-09_14h02.09.749,face trait task,2021.2.3,MacIntel,57.14285714,SONAid,,,,,,,
,,,,2.609013113,1.8545,space,0.3104,0,17,17,39,1,40,image/40.jpg,0,R_1RlIO1DP8koMWuo,2,2024-04-09_14h02.09.749,face trait task,2021.2.3,MacIntel,57.14285714,SONAid,,,,,,,
,,,,6.677878065,3.3777,space,0.4016,0,18,18,3,1,4,image/4.jpg,0,R_1RlIO1DP8koMWuo,2,2024-04-09_14h02.09.749,face trait task,2021.2.3,MacIntel,57.14285714,SONAid,,,,,,,
,,,,6.306677878,1.9726,space,0.4072,0,19,19,1,1,2,image/2.jpg,0,R_1RlIO1DP8koMWuo,2,2024-04-09_14h02.09.749,face trait task,2021.2.3,MacIntel,57.14285714,SONAid,,,,,,,
,,,,2.511143988,1.6812,space,0.6408,0,20,20,5,1,6,image/6.jpg,0,R_1RlIO1DP8koMWuo,2,2024-04-09_14h02.09.749,face trait task,2021.2.3,MacIntel,57.14285714,SONAid,,,,,,,
,,,,4.495029377,1.8812,space,0.5249,0,21,21,38,1,39,image/39.jpg,0,R_1RlIO1DP8koMWuo,2,2024-04-09_14h02.09.749,face trait task,2021.2.3,MacIntel,57.14285714,SONAid,,,,,,,
,,,,5.32607076,1.1468,space,0.3845,0,22,22,21,1,22,image/22.jpg,0,R_1RlIO1DP8koMWuo,2,2024-04-09_14h02.09.749,face trait task,2021.2.3,MacIntel,57.14285714,SONAid,,,,,,,
,,,,2.649597667,2.3184,space,0.251,0,23,23,25,1,26,image/26.jpg,0,R_1RlIO1DP8koMWuo,2,2024-04-09_14h02.09.749,face trait task,2021.2.3,MacIntel,57.14285714,SONAid,,,,,,,
,,,,4.553559264,6.5351,space,0.3462,0,24,24,52,1,56,image/56.jpg,1,R_1RlIO1DP8koMWuo,2,2024-04-09_14h02.09.749,face trait task,2021.2.3,MacIntel,57.14285714,SONAid,,,,,,,
,,,,5.846421577,2.2099,space,0.2745,0,25,25,24,1,25,image/25.jpg,0,R_1RlIO1DP8koMWuo,2,2024-04-09_14h02.09.749,face trait task,2021.2.3,MacIntel,57.14285714,SONAid,,,,,,,
,,,,6.744007578,1.5807,space,0.4347,0,26,26,12,1,13,image/13.jpg,0,R_1RlIO1DP8koMWuo,2,2024-04-09_14h02.09.749,face trait task,2021.2.3,MacIntel,57.14285714,SONAid,,,,,,,
,,,,4.506652333,1.5616,space,0.3087,0,27,27,50,1,58,image/58.jpg,1,R_1RlIO1DP8koMWuo,2,2024-04-09_14h02.09.749,face trait task,2021.2.3,MacIntel,57.14285714,SONAid,,,,,,,
,,,,3.497051686,1.2699,space,0.2623,0,28,28,9,1,10,image/10.jpg,0,R_1RlIO1DP8koMWuo,2,2024-04-09_14h02.09.749,face trait task,2021.2.3,MacIntel,57.14285714,SONAid,,,,,,,
,,,,5.383993954,1.4197,space,0.3004,0,29,29,8,1,9,image/9.jpg,0,R_1RlIO1DP8koMWuo,2,2024-04-09_14h02.09.749,face trait task,2021.2.3,MacIntel,57.14285714,SONAid,,,,,,,
,,,,4.994944227,2.923,space,0.26,0,30,30,30,1,31,image/31.jpg,0,R_1RlIO1DP8koMWuo,2,2024-04-09_14h02.09.749,face trait task,2021.2.3,MacIntel,57.14285714,SONAid,,,,,,,
,,,,4.380715685,1.3564,space,0.6517,0,31,31,32,1,33,image/33.jpg,0,R_1RlIO1DP8koMWuo,2,2024-04-09_14h02.09.749,face trait task,2021.2.3,MacIntel,57.14285714,SONAid,,,,,,,
,,,,2.454625766,1.2032,space,0.2332,0,32,32,43,1,44,image/44.jpg,0,R_1RlIO1DP8koMWuo,2,2024-04-09_14h02.09.749,face trait task,2021.2.3,MacIntel,57.14285714,SONAid,,,,,,,
,,,,5.579732204,1.6779,space,0.2839,0,33,33,4,1,5,image/5.jpg,0,R_1RlIO1DP8koMWuo,2,2024-04-09_14h02.09.749,face trait task,2021.2.3,MacIntel,57.14285714,SONAid,,,,,,,
,,,,4.719856948,1.8516,space,0.2521,0,34,34,33,1,34,image/34.jpg,0,R_1RlIO1DP8koMWuo,2,2024-04-09_14h02.09.749,face trait task,2021.2.3,MacIntel,57.14285714,SONAid,,,,,,,
,,,,4.44825017,1.2446,space,0.3592,0,35,35,13,1,14,image/14.jpg,0,R_1RlIO1DP8koMWuo,2,2024-04-09_14h02.09.749,face trait task,2021.2.3,MacIntel,57.14285714,SONAid,,,,,,,
,,,,5.382908294,1.5376,space,0.3521,0,36,36,14,1,15,image/15.jpg,0,R_1RlIO1DP8koMWuo,2,2024-04-09_14h02.09.749,face trait task,2021.2.3,MacIntel,57.14285714,SONAid,,,,,,,
,,,,6.429708787,1.7786,space,0.8421,0,37,37,29,1,30,image/30.jpg,0,R_1RlIO1DP8koMWuo,2,2024-04-09_14h02.09.749,face trait task,2021.2.3,MacIntel,57.14285714,SONAid,,,,,,,
,,,,2.528450698,1.5905,space,0.4095,0,38,38,46,1,47,image/47.jpg,0,R_1RlIO1DP8koMWuo,2,2024-04-09_14h02.09.749,face trait task,2021.2.3,MacIntel,57.14285714,SONAid,,,,,,,
,,,,4.458468154,1.8046,space,0.4996,0,39,39,31,1,32,image/32.jpg,0,R_1RlIO1DP8koMWuo,2,2024-04-09_14h02.09.749,face trait task,2021.2.3,MacIntel,57.14285714,SONAid,,,,,,,
,,,,4.001979734,1.3559,space,0.2332,0,40,40,6,1,7,image/7.jpg,0,R_1RlIO1DP8koMWuo,2,2024-04-09_14h02.09.749,face trait task,2021.2.3,MacIntel,57.14285714,SONAid,,,,,,,
,,,,5.843228457,1.8599,space,0.3995,0,41,41,18,1,19,image/19.jpg,0,R_1RlIO1DP8koMWuo,2,2024-04-09_14h02.09.749,face trait task,2021.2.3,MacIntel,57.14285714,SONAid,,,,,,,
,,,,3.546864356,1.1442,space,0.2829,0,42,42,10,1,11,image/11.jpg,0,R_1RlIO1DP8koMWuo,2,2024-04-09_14h02.09.749,face trait task,2021.2.3,MacIntel,57.14285714,SONAid,,,,,,,
,,,,4.442215174,3.7888,space,0.2066,0,43,43,0,1,1,image/1.jpg,0,R_1RlIO1DP8koMWuo,2,2024-04-09_14h02.09.749,face trait task,2021.2.3,MacIntel,57.14285714,SONAid,,,,,,,
,,,,4.442215174,1.0714,space,0.1756,0,44,44,34,1,35,image/35.jpg,0,R_1RlIO1DP8koMWuo,2,2024-04-09_14h02.09.749,face trait task,2021.2.3,MacIntel,57.14285714,SONAid,,,,,,,
,,,,5.717164084,1.9454,space,0.2756,0,45,45,17,1,18,image/18.jpg,0,R_1RlIO1DP8koMWuo,2,2024-04-09_14h02.09.749,face trait task,2021.2.3,MacIntel,57.14285714,SONAid,,,,,,,
,,,,5.717164084,7.1324,space,0.4187,0,46,46,22,1,23,image/23.jpg,0,R_1RlIO1DP8koMWuo,2,2024-04-09_14h02.09.749,face trait task,2021.2.3,MacIntel,57.14285714,SONAid,,,,,,,
,,,,5.618592473,7.0533,space,0.4742,0,47,47,2,1,3,image/3.jpg,0,R_1RlIO1DP8koMWuo,2,2024-04-09_14h02.09.749,face trait task,2021.2.3,MacIntel,57.14285714,SONAid,,,,,,,
,,,,5.502043597,169.6036,space,0.4946,0,48,48,19,1,20,image/20.jpg,0,R_1RlIO1DP8koMWuo,2,2024-04-09_14h02.09.749,face trait task,2021.2.3,MacIntel,57.14285714,SONAid,,,,,,,
,,,,5.502043597,0.9475,space,0.1894,0,49,49,20,1,21,image/21.jpg,0,R_1RlIO1DP8koMWuo,2,2024-04-09_14h02.09.749,face trait task,2021.2.3,MacIntel,57.14285714,SONAid,,,,,,,
,,,,3.305975392,1.2864,space,0.1749,0,50,50,47,1,48,image/48.jpg,0,R_1RlIO1DP8koMWuo,2,2024-04-09_14h02.09.749,face trait task,2021.2.3,MacIntel,57.14285714,SONAid,,,,,,,
,,,,2.645861717,1.4723,space,0.4179,0,51,51,45,1,46,image/46.jpg,0,R_1RlIO1DP8koMWuo,2,2024-04-09_14h02.09.749,face trait task,2021.2.3,MacIntel,57.14285714,SONAid,,,,,,,
,,,,3.47719048,2.153,space,0.4356,0,52,52,7,1,8,image/8.jpg,0,R_1RlIO1DP8koMWuo,2,2024-04-09_14h02.09.749,face trait task,2021.2.3,MacIntel,57.14285714,SONAid,,,,,,,
,,,,,,,,,,,,,,,,R_1RlIO1DP8koMWuo,2,2024-04-09_14h02.09.749,face trait task,2021.2.3,MacIntel,57.14285714,SONAid,0,0,0,1,1,1,competent.png
,,,,4.99663658,11.9991,space,8.2207,0,0,0,22,1,23,image/23.jpg,0,R_1RlIO1DP8koMWuo,2,2024-04-09_14h02.09.749,face trait task,2021.2.3,MacIntel,57.14285714,SONAid,,,,,,,
,,,,3.492836768,1.4536,space,0.1761,0,1,1,31,1,32,image/32.jpg,0,R_1RlIO1DP8koMWuo,2,2024-04-09_14h02.09.749,face trait task,2021.2.3,MacIntel,57.14285714,SONAid,,,,,,,
,,,,2.710330807,1.4287,space,0.3875,0,2,2,39,1,40,image/40.jpg,0,R_1RlIO1DP8koMWuo,2,2024-04-09_14h02.09.749,face trait task,2021.2.3,MacIntel,57.14285714,SONAid,,,,,,,
,,,,2.422055943,1.2097,space,0.2948,0,3,3,38,1,39,image/39.jpg,0,R_1RlIO1DP8koMWuo,2,2024-04-09_14h02.09.749,face trait task,2021.2.3,MacIntel,57.14285714,SONAid,,,,,,,
,,,,2.422055943,1.2447,space,0.3739,0,4,4,45,1,46,image/46.jpg,0,R_1RlIO1DP8koMWuo,2,2024-04-09_14h02.09.749,face trait task,2021.2.3,MacIntel,57.14285714,SONAid,,,,,,,
,,,,4.710405313,1.6291,space,0.227,0,5,5,21,1,22,image/22.jpg,0,R_1RlIO1DP8koMWuo,2,2024-04-09_14h02.09.749,face trait task,2021.2.3,MacIntel,57.14285714,SONAid,,,,,,,
,,,,4.970772309,3.5715,space,0.8153,0,6,6,19,1,20,image/20.jpg,0,R_1RlIO1DP8koMWuo,2,2024-04-09_14h02.09.749,face trait task,2021.2.3,MacIntel,57.14285714,SONAid,,,,,,,
,,,,4.291819227,2.9042,space,2.0764,0,7,7,24,1,25,image/25.jpg,0,R_1RlIO1DP8koMWuo,2,2024-04-09_14h02.09.749,face trait task,2021.2.3,MacIntel,57.14285714,SONAid,,,,,,,
,,,,3.508514986,2.0868,space,1.0404,0,8,8,10,1,11,image/11.jpg,0,R_1RlIO1DP8koMWuo,2,2024-04-09_14h02.09.749,face trait task,2021.2.3,MacIntel,57.14285714,SONAid,,,,,,,
,,,,2.4805539,2.6267,space,0.6182,0,9,9,29,1,30,image/30.jpg,0,R_1RlIO1DP8koMWuo,2,2024-04-09_14h02.09.749,face trait task,2021.2.3,MacIntel,57.14285714,SONAid,,,,,,,
,,,,3.664339237,84.1092,space,0.2904,0,10,10,14,1,15,image/15.jpg,0,R_1RlIO1DP8koMWuo,2,2024-04-09_14h02.09.749,face trait task,2021.2.3,MacIntel,57.14285714,SONAid,,,,,,,
,,,,2.68456233,1.9279,space,2.7115,0,11,11,26,1,27,image/27.jpg,0,R_1RlIO1DP8koMWuo,2,2024-04-09_14h02.09.749,face trait task,2021.2.3,MacIntel,57.14285714,SONAid,,,,,,,
,,,,4.468111376,18.2062,space,0.5314,0,12,12,20,1,21,image/21.jpg,0,R_1RlIO1DP8koMWuo,2,2024-04-09_14h02.09.749,face trait task,2021.2.3,MacIntel,57.14285714,SONAid,,,,,,,
,,,,2.470495572,2.4376,space,0.2826,0,13,13,6,1,7,image/7.jpg,0,R_1RlIO1DP8koMWuo,2,2024-04-09_14h02.09.749,face trait task,2021.2.3,MacIntel,57.14285714,SONAid,,,,,,,
,,,,5.455008941,7.8882,space,0.7818,0,14,14,12,1,13,image/13.jpg,0,R_1RlIO1DP8koMWuo,2,2024-04-09_14h02.09.749,face trait task,2021.2.3,MacIntel,57.14285714,SONAid,,,,,,,
,,,,4.686137602,1.2467,space,0.3326,0,15,15,49,1,50,image/50.jpg,0,R_1RlIO1DP8koMWuo,2,2024-04-09_14h02.09.749,face trait task,2021.2.3,MacIntel,57.14285714,SONAid,,,,,,,
,,,,4.618858566,7.3181,space,0.6757,0,16,16,41,1,42,image/42.jpg,0,R_1RlIO1DP8koMWuo,2,2024-04-09_14h02.09.749,face trait task,2021.2.3,MacIntel,57.14285714,SONAid,,,,,,,
,,,,4.655739101,229.6125,space,0.3905,0,17,17,1,1,2,image/2.jpg,0,R_1RlIO1DP8koMWuo,2,2024-04-09_14h02.09.749,face trait task,2021.2.3,MacIntel,57.14285714,SONAid,,,,,,,
,,,,2.932348433,156.9494,space,0.329,0,18,18,8,1,9,image/9.jpg,0,R_1RlIO1DP8koMWuo,2,2024-04-09_14h02.09.749,face trait task,2021.2.3,MacIntel,57.14285714,SONAid,,,,,,,
,,,,2.54847156,1.2856,space,0.7999,0,19,19,44,1,45,image/45.jpg,0,R_1RlIO1DP8koMWuo,2,2024-04-09_14h02.09.749,face trait task,2021.2.3,MacIntel,57.14285714,SONAid,,,,,,,
,,,,4.023597156,1.7093,space,0.3072,0,20,20,52,1,56,image/56.jpg,1,R_1RlIO1DP8koMWuo,2,2024-04-09_14h02.09.749,face trait task,2021.2.3,MacIntel,57.14285714,SONAid,,,,,,,
,,,,5.334628321,3.7886,space,0.254,0,21,21,3,1,4,image/4.jpg,0,R_1RlIO1DP8koMWuo,2,2024-04-09_14h02.09.749,face trait task,2021.2.3,MacIntel,57.14285714,SONAid,,,,,,,
,,,,5.334628321,1.6443,space,0.4002,0,22,22,0,1,1,image/1.jpg,0,R_1RlIO1DP8koMWuo,2,2024-04-09_14h02.09.749,face trait task,2021.2.3,MacIntel,57.14285714,SONAid,,,,,,,
,,,,4.593217813,1.5462,space,0.2012,0,23,23,27,1,28,image/28.jpg,0,R_1RlIO1DP8koMWuo,2,2024-04-09_14h02.09.749,face trait task,2021.2.3,MacIntel,57.14285714,SONAid,,,,,,,
,,,,4.00319312,1.9876,space,0.4942,0,24,24,30,1,31,image/31.jpg,0,R_1RlIO1DP8koMWuo,2,2024-04-09_14h02.09.749,face trait task,2021.2.3,MacIntel,57.14285714,SONAid,,,,,,,
,,,,5.472060201,2.4307,space,0.1853,0,25,25,34,1,35,image/35.jpg,0,R_1RlIO1DP8koMWuo,2,2024-04-09_14h02.09.749,face trait task,2021.2.3,MacIntel,57.14285714,SONAid,,,,,,,
,,,,6.404642796,2.2218,space,0.6332,0,26,26,11,1,12,image/12.jpg,0,R_1RlIO1DP8koMWuo,2,2024-04-09_14h02.09.749,face trait task,2021.2.3,MacIntel,57.14285714,SONAid,,,,,,,
,,,,2.505300579,2.3459,space,1.6537,0,27,27,42,1,43,image/43.jpg,0,R_1RlIO1DP8koMWuo,2,2024-04-09_14h02.09.749,face trait task,2021.2.3,MacIntel,57.14285714,SONAid,,,,,,,
,,,,4.560200954,89.9691,space,0.5379,0,28,28,17,1,18,image/18.jpg,0,R_1RlIO1DP8koMWuo,2,2024-04-09_14h02.09.749,face trait task,2021.2.3,MacIntel,57.14285714,SONAid,,,,,,,
,,,,3.972475307,2.6286,space,0.3841,0,29,29,16,1,17,image/17.jpg,0,R_1RlIO1DP8koMWuo,2,2024-04-09_14h02.09.749,face trait task,2021.2.3,MacIntel,57.14285714,SONAid,,,,,,,
,,,,4.989579785,1.7536,space,0.4182,0,30,30,25,1,26,image/26.jpg,0,R_1RlIO1DP8koMWuo,2,2024-04-09_14h02.09.749,face trait task,2021.2.3,MacIntel,57.14285714,SONAid,,,,,,,
,,,,2.043926686,1.9818,space,0.444,0,31,31,36,1,37,image/37.jpg,0,R_1RlIO1DP8koMWuo,2,2024-04-09_14h02.09.749,face trait task,2021.2.3,MacIntel,57.14285714,SONAid,,,,,,,
,,,,3.974806284,2.1284,space,0.2614,0,32,32,28,1,29,image/29.jpg,0,R_1RlIO1DP8koMWuo,2,2024-04-09_14h02.09.749,face trait task,2021.2.3,MacIntel,57.14285714,SONAid,,,,,,,
,,,,5.535124319,1.8944,space,0.1926,0,33,33,51,1,57,image/57.jpg,1,R_1RlIO1DP8koMWuo,2,2024-04-09_14h02.09.749,face trait task,2021.2.3,MacIntel,57.14285714,SONAid,,,,,,,
,,,,6.301153781,3.5273,space,0.4455,0,34,34,35,1,36,image/36.jpg,0,R_1RlIO1DP8koMWuo,2,2024-04-09_14h02.09.749,face trait task,2021.2.3,MacIntel,57.14285714,SONAid,,,,,,,
,,,,6.301153781,1.7956,space,0.539,0,35,35,50,1,58,image/58.jpg,1,R_1RlIO1DP8koMWuo,2,2024-04-09_14h02.09.749,face trait task,2021.2.3,MacIntel,57.14285714,SONAid,,,,,,,
,,,,4.308391519,143.2603,space,0.6298,0,36,36,5,1,6,image/6.jpg,0,R_1RlIO1DP8koMWuo,2,2024-04-09_14h02.09.749,face trait task,2021.2.3,MacIntel,57.14285714,SONAid,,,,,,,
,,,,3.405664595,3.7155,space,2.6578,0,37,37,23,1,24,image/24.jpg,0,R_1RlIO1DP8koMWuo,2,2024-04-09_14h02.09.749,face trait task,2021.2.3,MacIntel,57.14285714,SONAid,,,,,,,
,,,,2.678814714,1.4194,space,0.2611,0,38,38,46,1,47,image/47.jpg,0,R_1RlIO1DP8koMWuo,2,2024-04-09_14h02.09.749,face trait task,2021.2.3,MacIntel,57.14285714,SONAid,,,,,,,
,,,,5.63344048,1.6374,space,0.2414,0,39,39,18,1,19,image/19.jpg,0,R_1RlIO1DP8koMWuo,2,2024-04-09_14h02.09.749,face trait task,2021.2.3,MacIntel,57.14285714,SONAid,,,,,,,
,,,,4.001468835,2.9382,space,1.5365,0,40,40,32,1,33,image/33.jpg,0,R_1RlIO1DP8koMWuo,2,2024-04-09_14h02.09.749,face trait task,2021.2.3,MacIntel,57.14285714,SONAid,,,,,,,
,,,,2.635388283,1.8237,space,0.5681,0,41,41,48,1,49,image/49.jpg,0,R_1RlIO1DP8koMWuo,2,2024-04-09_14h02.09.749,face trait task,2021.2.3,MacIntel,57.14285714,SONAid,,,,,,,
,,,,2.342579189,1.97,space,0.3411,0,42,42,9,1,10,image/10.jpg,0,R_1RlIO1DP8koMWuo,2,2024-04-09_14h02.09.749,face trait task,2021.2.3,MacIntel,57.14285714,SONAid,,,,,,,
,,,,5.164179581,1.7862,space,0.706,0,43,43,33,1,34,image/34.jpg,0,R_1RlIO1DP8koMWuo,2,2024-04-09_14h02.09.749,face trait task,2021.2.3,MacIntel,57.14285714,SONAid,,,,,,,
,,,,5.639315821,1.3045,space,0.4685,0,44,44,13,1,14,image/14.jpg,0,R_1RlIO1DP8koMWuo,2,2024-04-09_14h02.09.749,face trait task,2021.2.3,MacIntel,57.14285714,SONAid,,,,,,,
,,,,4.509366485,1.3875,space,0.9005,0,45,45,15,1,16,image/16.jpg,0,R_1RlIO1DP8koMWuo,2,2024-04-09_14h02.09.749,face trait task,2021.2.3,MacIntel,57.14285714,SONAid,,,,,,,
,,,,2.239888454,1.9784,space,0.5736,0,46,46,40,1,41,image/41.jpg,0,R_1RlIO1DP8koMWuo,2,2024-04-09_14h02.09.749,face trait task,2021.2.3,MacIntel,57.14285714,SONAid,,,,,,,
,,,,3.348475817,1.9867,space,0.2914,0,47,47,43,1,44,image/44.jpg,0,R_1RlIO1DP8koMWuo,2,2024-04-09_14h02.09.749,face trait task,2021.2.3,MacIntel,57.14285714,SONAid,,,,,,,
,,,,5.411135473,2.0042,space,0.3576,0,48,48,7,1,8,image/8.jpg,0,R_1RlIO1DP8koMWuo,2,2024-04-09_14h02.09.749,face trait task,2021.2.3,MacIntel,57.14285714,SONAid,,,,,,,
,,,,2.68510516,5.1636,space,0.795,0,49,49,37,1,38,image/38.jpg,0,R_1RlIO1DP8koMWuo,2,2024-04-09_14h02.09.749,face trait task,2021.2.3,MacIntel,57.14285714,SONAid,,,,,,,
,,,,2.471581233,4.0843,space,0.3734,0,50,50,47,1,48,image/48.jpg,0,R_1RlIO1DP8koMWuo,2,2024-04-09_14h02.09.749,face trait task,2021.2.3,MacIntel,57.14285714,SONAid,,,,,,,
,,,,4.650310797,2.1119,space,0.4327,0,51,51,2,1,3,image/3.jpg,0,R_1RlIO1DP8koMWuo,2,2024-04-09_14h02.09.749,face trait task,2021.2.3,MacIntel,57.14285714,SONAid,,,,,,,
,,,,4.621221475,6.3823,space,0.4083,0,52,52,4,1,5,image/5.jpg,0,R_1RlIO1DP8koMWuo,2,2024-04-09_14h02.09.749,face trait task,2021.2.3,MacIntel,57.14285714,SONAid,,,,,,,
,,,,,,,,,,,,,,,,R_1RlIO1DP8koMWuo,2,2024-04-09_14h02.09.749,face trait task,2021.2.3,MacIntel,57.14285714,SONAid,0,1,1,2,1,2,trustworthy.png
,,,,5.329391604,4.1224,space,0.6005,0,0,0,26,1,27,image/27.jpg,0,R_1RlIO1DP8koMWuo,2,2024-04-09_14h02.09.749,face trait task,2021.2.3,MacIntel,57.14285714,SONAid,,,,,,,
,,,,3.190799557,2.3792,space,0.5086,0,1,1,11,1,12,image/12.jpg,0,R_1RlIO1DP8koMWuo,2,2024-04-09_14h02.09.749,face trait task,2021.2.3,MacIntel,57.14285714,SONAid,,,,,,,
,,,,3.964811819,3.8869,space,0.2671,0,2,2,32,1,33,image/33.jpg,0,R_1RlIO1DP8koMWuo,2,2024-04-09_14h02.09.749,face trait task,2021.2.3,MacIntel,57.14285714,SONAid,,,,,,,
,,,,2.619678134,1.3447,space,0.1586,0,3,3,39,1,40,image/40.jpg,0,R_1RlIO1DP8koMWuo,2,2024-04-09_14h02.09.749,face trait task,2021.2.3,MacIntel,57.14285714,SONAid,,,,,,,
,,,,5.34580424,1.778,space,0.2374,0,4,4,42,1,43,image/43.jpg,0,R_1RlIO1DP8koMWuo,2,2024-04-09_14h02.09.749,face trait task,2021.2.3,MacIntel,57.14285714,SONAid,,,,,,,
,,,,1.551387943,1.4818,space,0.4507,0,5,5,41,1,42,image/42.jpg,0,R_1RlIO1DP8koMWuo,2,2024-04-09_14h02.09.749,face trait task,2021.2.3,MacIntel,57.14285714,SONAid,,,,,,,
,,,,2.61159954,2.2044,space,0.4846,0,6,6,2,1,3,image/3.jpg,0,R_1RlIO1DP8koMWuo,2,2024-04-09_14h02.09.749,face trait task,2021.2.3,MacIntel,57.14285714,SONAid,,,,,,,
,,,,5.589088045,2.85,space,1.626,0,7,7,10,1,11,image/11.jpg,0,R_1RlIO1DP8koMWuo,2,2024-04-09_14h02.09.749,face trait task,2021.2.3,MacIntel,57.14285714,SONAid,,,,,,,
,,,,4.580924302,1.5378,space,0.3363,0,8,8,50,1,58,image/58.jpg,1,R_1RlIO1DP8koMWuo,2,2024-04-09_14h02.09.749,face trait task,2021.2.3,MacIntel,57.14285714,SONAid,,,,,,,
,,,,2.941480756,1.1188,space,0.8602,0,9,9,19,1,20,image/20.jpg,0,R_1RlIO1DP8koMWuo,2,2024-04-09_14h02.09.749,face trait task,2021.2.3,MacIntel,57.14285714,SONAid,,,,,,,
,,,,4.597560456,1.8995,space,0.4418,0,10,10,52,1,56,image/56.jpg,1,R_1RlIO1DP8koMWuo,2,2024-04-09_14h02.09.749,face trait task,2021.2.3,MacIntel,57.14285714,SONAid,,,,,,,
,,,,4.597560456,1.218,space,0.3763,0,11,11,33,1,34,image/34.jpg,0,R_1RlIO1DP8koMWuo,2,2024-04-09_14h02.09.749,face trait task,2021.2.3,MacIntel,57.14285714,SONAid,,,,,,,
,,,,2.594133174,2.4455,space,0.3167,0,12,12,5,1,6,image/6.jpg,0,R_1RlIO1DP8koMWuo,2,2024-04-09_14h02.09.749,face trait task,2021.2.3,MacIntel,57.14285714,SONAid,,,,,,,
,,,,1.535039169,1.9057,space,0.3053,0,13,13,24,1,25,image/25.jpg,0,R_1RlIO1DP8koMWuo,2,2024-04-09_14h02.09.749,face trait task,2021.2.3,MacIntel,57.14285714,SONAid,,,,,,,
,,,,3.96618486,2.1396,space,0.3609,0,14,14,7,1,8,image/8.jpg,0,R_1RlIO1DP8koMWuo,2,2024-04-09_14h02.09.749,face trait task,2021.2.3,MacIntel,57.14285714,SONAid,,,,,,,
,,,,6.167298195,2.2542,space,0.4336,0,15,15,1,1,2,image/2.jpg,0,R_1RlIO1DP8koMWuo,2,2024-04-09_14h02.09.749,face trait task,2021.2.3,MacIntel,57.14285714,SONAid,,,,,,,
,,,,2.419086342,1.9531,space,0.29,0,16,16,46,1,47,image/47.jpg,0,R_1RlIO1DP8koMWuo,2,2024-04-09_14h02.09.749,face trait task,2021.2.3,MacIntel,57.14285714,SONAid,,,,,,,
,,,,4.021393903,1.3871,space,0.2823,0,17,17,31,1,32,image/32.jpg,0,R_1RlIO1DP8koMWuo,2,2024-04-09_14h02.09.749,face trait task,2021.2.3,MacIntel,57.14285714,SONAid,,,,,,,
,,,,5.490739952,1.6524,space,0.3908,0,18,18,18,1,19,image/19.jpg,0,R_1RlIO1DP8koMWuo,2,2024-04-09_14h02.09.749,face trait task,2021.2.3,MacIntel,57.14285714,SONAid,,,,,,,
,,,,6.335479819,1.6386,space,0.3774,0,19,19,16,1,17,image/17.jpg,0,R_1RlIO1DP8koMWuo,2,2024-04-09_14h02.09.749,face trait task,2021.2.3,MacIntel,57.14285714,SONAid,,,,,,,
,,,,5.983310627,1.898,space,0.3323,0,20,20,27,1,28,image/28.jpg,0,R_1RlIO1DP8koMWuo,2,2024-04-09_14h02.09.749,face trait task,2021.2.3,MacIntel,57.14285714,SONAid,,,,,,,
,,,,2.293788317,1.6765,space,0.3733,0,21,21,23,1,24,image/24.jpg,0,R_1RlIO1DP8koMWuo,2,2024-04-09_14h02.09.749,face trait task,2021.2.3,MacIntel,57.14285714,SONAid,,,,,,,
,,,,2.88192907,1.5153,space,0.4935,0,22,22,48,1,49,image/49.jpg,0,R_1RlIO1DP8koMWuo,2,2024-04-09_14h02.09.749,face trait task,2021.2.3,MacIntel,57.14285714,SONAid,,,,,,,
,,,,2.492496168,1.8114,space,0.3515,0,23,23,40,1,41,image/41.jpg,0,R_1RlIO1DP8koMWuo,2,2024-04-09_14h02.09.749,face trait task,2021.2.3,MacIntel,57.14285714,SONAid,,,,,,,
,,,,4.998456659,4.1284,space,0.9004,0,24,24,51,1,57,image/57.jpg,1,R_1RlIO1DP8koMWuo,2,2024-04-09_14h02.09.749,face trait task,2021.2.3,MacIntel,57.14285714,SONAid,,,,,,,
,,,,6.03641221,3.7371,space,0.4538,0,25,25,36,1,37,image/37.jpg,0,R_1RlIO1DP8koMWuo,2,2024-04-09_14h02.09.749,face trait task,2021.2.3,MacIntel,57.14285714,SONAid,,,,,,,
,,,,2.958947122,1.985,space,0.2603,0,26,26,35,1,36,image/36.jpg,0,R_1RlIO1DP8koMWuo,2,2024-04-09_14h02.09.749,face trait task,2021.2.3,MacIntel,57.14285714,SONAid,,,,,,,
,,,,4.417755875,2.5484,space,0.5172,0,27,27,0,1,1,image/1.jpg,0,R_1RlIO1DP8koMWuo,2,2024-04-09_14h02.09.749,face trait task,2021.2.3,MacIntel,57.14285714,SONAid,,,,,,,
,,,,5.943652078,1.364,space,0.7905,0,28,28,17,1,18,image/18.jpg,0,R_1RlIO1DP8koMWuo,2,2024-04-09_14h02.09.749,face trait task,2021.2.3,MacIntel,57.14285714,SONAid,,,,,,,
,,,,4.397990463,14.8561,space,0.3205,0,29,29,14,1,15,image/15.jpg,0,R_1RlIO1DP8koMWuo,2,2024-04-09_14h02.09.749,face trait task,2021.2.3,MacIntel,57.14285714,SONAid,,,,,,,
,,,,5.728914765,1.3211,space,0.3254,0,30,30,4,1,5,image/5.jpg,0,R_1RlIO1DP8koMWuo,2,2024-04-09_14h02.09.749,face trait task,2021.2.3,MacIntel,57.14285714,SONAid,,,,,,,
,,,,3.992112994,1.6488,space,0.1935,0,31,31,43,1,44,image/44.jpg,0,R_1RlIO1DP8koMWuo,2,2024-04-09_14h02.09.749,face trait task,2021.2.3,MacIntel,57.14285714,SONAid,,,,,,,
,,,,3.935083873,2.3554,space,0.2777,0,32,32,15,1,16,image/16.jpg,0,R_1RlIO1DP8koMWuo,2,2024-04-09_14h02.09.749,face trait task,2021.2.3,MacIntel,57.14285714,SONAid,,,,,,,
,,,,5.953678474,2.6894,space,0.3565,0,33,33,28,1,29,image/29.jpg,0,R_1RlIO1DP8koMWuo,2,2024-04-09_14h02.09.749,face trait task,2021.2.3,MacIntel,57.14285714,SONAid,,,,,,,
,,,,2.973380024,2.3148,space,0.2011,0,34,34,49,1,50,image/50.jpg,0,R_1RlIO1DP8koMWuo,2,2024-04-09_14h02.09.749,face trait task,2021.2.3,MacIntel,57.14285714,SONAid,,,,,,,
,,,,2.599401822,1.2454,space,0.2786,0,35,35,21,1,22,image/22.jpg,0,R_1RlIO1DP8koMWuo,2,2024-04-09_14h02.09.749,face trait task,2021.2.3,MacIntel,57.14285714,SONAid,,,,,,,
,,,,4.635047684,2.3954,space,0.3244,0,36,36,34,1,35,image/35.jpg,0,R_1RlIO1DP8koMWuo,2,2024-04-09_14h02.09.749,face trait task,2021.2.3,MacIntel,57.14285714,SONAid,,,,,,,
,,,,5.092015072,1.4784,space,0.5014,0,37,37,29,1,30,image/30.jpg,0,R_1RlIO1DP8koMWuo,2,2024-04-09_14h02.09.749,face trait task,2021.2.3,MacIntel,57.14285714,SONAid,,,,,,,
,,,,5.609875255,1.7896,space,0.2689,0,38,38,6,1,7,image/7.jpg,0,R_1RlIO1DP8koMWuo,2,2024-04-09_14h02.09.749,face trait task,2021.2.3,MacIntel,57.14285714,SONAid,,,,,,,
,,,,4.47408251,5.4536,space,0.5806,0,39,39,8,1,9,image/9.jpg,0,R_1RlIO1DP8koMWuo,2,2024-04-09_14h02.09.749,face trait task,2021.2.3,MacIntel,57.14285714,SONAid,,,,,,,
,,,,4.47408251,1.2544,space,0.3518,0,40,40,47,1,48,image/48.jpg,0,R_1RlIO1DP8koMWuo,2,2024-04-09_14h02.09.749,face trait task,2021.2.3,MacIntel,57.14285714,SONAid,,,,,,,
,,,,5.704072292,1.715,space,0.7584,0,41,41,20,1,21,image/21.jpg,0,R_1RlIO1DP8koMWuo,2,2024-04-09_14h02.09.749,face trait task,2021.2.3,MacIntel,57.14285714,SONAid,,,,,,,
,,,,2.724572122,1.6709,space,0.3157,0,42,42,22,1,23,image/23.jpg,0,R_1RlIO1DP8koMWuo,2,2024-04-09_14h02.09.749,face trait task,2021.2.3,MacIntel,57.14285714,SONAid,,,,,,,
,,,,4.780047258,2.2541,space,0.3093,0,43,43,13,1,14,image/14.jpg,0,R_1RlIO1DP8koMWuo,2,2024-04-09_14h02.09.749,face trait task,2021.2.3,MacIntel,57.14285714,SONAid,,,,,,,
,,,,5.650236291,1.7711,space,0.2675,0,44,44,25,1,26,image/26.jpg,0,R_1RlIO1DP8koMWuo,2,2024-04-09_14h02.09.749,face trait task,2021.2.3,MacIntel,57.14285714,SONAid,,,,,,,
,,,,3.603382578,2.0372,space,0.284,0,45,45,37,1,38,image/38.jpg,0,R_1RlIO1DP8koMWuo,2,2024-04-09_14h02.09.749,face trait task,2021.2.3,MacIntel,57.14285714,SONAid,,,,,,,
,,,,4.015103457,1.4374,space,0.4832,0,46,46,38,1,39,image/39.jpg,0,R_1RlIO1DP8koMWuo,2,2024-04-09_14h02.09.749,face trait task,2021.2.3,MacIntel,57.14285714,SONAid,,,,,,,
,,,,6.989303048,4.8545,space,1.7654,0,47,47,30,1,31,image/31.jpg,0,R_1RlIO1DP8koMWuo,2,2024-04-09_14h02.09.749,face trait task,2021.2.3,MacIntel,57.14285714,SONAid,,,,,,,
,,,,4.473635473,1.8928,space,0.5675,0,48,48,3,1,4,image/4.jpg,0,R_1RlIO1DP8koMWuo,2,2024-04-09_14h02.09.749,face trait task,2021.2.3,MacIntel,57.14285714,SONAid,,,,,,,
,,,,3.744199166,1.7938,space,0.3362,0,49,49,44,1,45,image/45.jpg,0,R_1RlIO1DP8koMWuo,2,2024-04-09_14h02.09.749,face trait task,2021.2.3,MacIntel,57.14285714,SONAid,,,,,,,
,,,,3.744199166,1.2761,space,0.6341,0,50,50,12,1,13,image/13.jpg,0,R_1RlIO1DP8koMWuo,2,2024-04-09_14h02.09.749,face trait task,2021.2.3,MacIntel,57.14285714,SONAid,,,,,,,
,,,,2.589151907,1.72,space,0.3955,0,51,51,9,1,10,image/10.jpg,0,R_1RlIO1DP8koMWuo,2,2024-04-09_14h02.09.749,face trait task,2021.2.3,MacIntel,57.14285714,SONAid,,,,,,,
,,,,4.494294959,1.2459,space,0.5339,0,52,52,45,1,46,image/46.jpg,0,R_1RlIO1DP8koMWuo,2,2024-04-09_14h02.09.749,face trait task,2021.2.3,MacIntel,57.14285714,SONAid,,,,,,,
,,,,,,,,,,,,,,,,R_1RlIO1DP8koMWuo,2,2024-04-09_14h02.09.749,face trait task,2021.2.3,MacIntel,57.14285714,SONAid,0,2,2,0,1,0,critical.png
,,,,5.466057136,1.7214,space,1.9117,0,0,0,49,1,50,image/50.jpg,0,R_1RlIO1DP8koMWuo,2,2024-04-09_14h02.09.749,face trait task,2021.2.3,MacIntel,57.14285714,SONAid,,,,,,,
,,,,5.466057136,1.1732,space,0.3187,0,1,1,1,1,2,image/2.jpg,0,R_1RlIO1DP8koMWuo,2,2024-04-09_14h02.09.749,face trait task,2021.2.3,MacIntel,57.14285714,SONAid,,,,,,,
,,,,3.65830424,1.2271,space,0.3098,0,2,2,47,1,48,image/48.jpg,0,R_1RlIO1DP8koMWuo,2,2024-04-09_14h02.09.749,face trait task,2021.2.3,MacIntel,57.14285714,SONAid,,,,,,,
,,,,3.183998212,1.5719,space,0.322,0,3,3,51,1,57,image/57.jpg,1,R_1RlIO1DP8koMWuo,2,2024-04-09_14h02.09.749,face trait task,2021.2.3,MacIntel,57.14285714,SONAid,,,,,,,
,,,,3.982246253,1.8083,space,0.6253,0,4,4,0,1,1,image/1.jpg,0,R_1RlIO1DP8koMWuo,2,2024-04-09_14h02.09.749,face trait task,2021.2.3,MacIntel,57.14285714,SONAid,,,,,,,
,,,,4.353574166,1.5729,space,0.4988,0,5,5,21,1,22,image/22.jpg,0,R_1RlIO1DP8koMWuo,2,2024-04-09_14h02.09.749,face trait task,2021.2.3,MacIntel,57.14285714,SONAid,,,,,,,
,,,,5.94770734,2.3099,space,0.353,0,6,6,34,1,35,image/35.jpg,0,R_1RlIO1DP8koMWuo,2,2024-04-09_14h02.09.749,face trait task,2021.2.3,MacIntel,57.14285714,SONAid,,,,,,,
,,,,5.043830892,1.926,space,0.4349,0,7,7,12,1,13,image/13.jpg,0,R_1RlIO1DP8koMWuo,2,2024-04-09_14h02.09.749,face trait task,2021.2.3,MacIntel,57.14285714,SONAid,,,,,,,
,,,,3.26357076,2.1046,space,0.2339,0,8,8,37,1,38,image/38.jpg,0,R_1RlIO1DP8koMWuo,2,2024-04-09_14h02.09.749,face trait task,2021.2.3,MacIntel,57.14285714,SONAid,,,,,,,
,,,,2.365314203,1.2474,space,0.475,0,9,9,15,1,16,image/16.jpg,0,R_1RlIO1DP8koMWuo,2,2024-04-09_14h02.09.749,face trait task,2021.2.3,MacIntel,57.14285714,SONAid,,,,,,,
,,,,4.898767456,1.2071,space,0.4667,0,10,10,17,1,18,image/18.jpg,0,R_1RlIO1DP8koMWuo,2,2024-04-09_14h02.09.749,face trait task,2021.2.3,MacIntel,57.14285714,SONAid,,,,,,,
,,,,5.94611078,2.1715,space,0.2499,0,11,11,11,1,12,image/12.jpg,0,R_1RlIO1DP8koMWuo,2,2024-04-09_14h02.09.749,face trait task,2021.2.3,MacIntel,57.14285714,SONAid,,,,,,,
,,,,4.474625341,1.6555,space,0.2332,0,12,12,45,1,46,image/46.jpg,0,R_1RlIO1DP8koMWuo,2,2024-04-09_14h02.09.749,face trait task,2021.2.3,MacIntel,57.14285714,SONAid,,,,,,,
,,,,2.632354819,1.8163,space,0.2831,0,13,13,44,1,45,image/45.jpg,0,R_1RlIO1DP8koMWuo,2,2024-04-09_14h02.09.749,face trait task,2021.2.3,MacIntel,57.14285714,SONAid,,,,,,,
,,,,1.585618188,2.7621,space,0.301,0,14,14,50,1,58,image/58.jpg,1,R_1RlIO1DP8koMWuo,2,2024-04-09_14h02.09.749,face trait task,2021.2.3,MacIntel,57.14285714,SONAid,,,,,,,
,,,,5.465163062,1.6586,space,0.2179,0,15,15,9,1,10,image/10.jpg,0,R_1RlIO1DP8koMWuo,2,2024-04-09_14h02.09.749,face trait task,2021.2.3,MacIntel,57.14285714,SONAid,,,,,,,
,,,,4.567321611,1.7206,space,0.1834,0,16,16,41,1,42,image/42.jpg,0,R_1RlIO1DP8koMWuo,2,2024-04-09_14h02.09.749,face trait task,2021.2.3,MacIntel,57.14285714,SONAid,,,,,,,
,,,,5.780930688,1.4047,space,0.2366,0,17,17,46,1,47,image/47.jpg,0,R_1RlIO1DP8koMWuo,2,2024-04-09_14h02.09.749,face trait task,2021.2.3,MacIntel,57.14285714,SONAid,,,,,,,
,,,,2.735396798,1.5487,space,0.3859,0,18,18,42,1,43,image/43.jpg,0,R_1RlIO1DP8koMWuo,2,2024-04-09_14h02.09.749,face trait task,2021.2.3,MacIntel,57.14285714,SONAid,,,,,,,
,,,,4.354979138,2.8187,space,1.1197,0,19,19,16,1,17,image/17.jpg,0,R_1RlIO1DP8koMWuo,2,2024-04-09_14h02.09.749,face trait task,2021.2.3,MacIntel,57.14285714,SONAid,,,,,,,
,,,,5.291393478,2.0883,space,0.3424,0,20,20,25,1,26,image/26.jpg,0,R_1RlIO1DP8koMWuo,2,2024-04-09_14h02.09.749,face trait task,2021.2.3,MacIntel,57.14285714,SONAid,,,,,,,
,,,,3.964460576,2.8031,space,0.337,0,21,21,32,1,33,image/33.jpg,0,R_1RlIO1DP8koMWuo,2,2024-04-09_14h02.09.749,face trait task,2021.2.3,MacIntel,57.14285714,SONAid,,,,,,,
,,,,4.077880194,76.7204,space,0.3815,0,22,22,22,1,23,image/23.jpg,0,R_1RlIO1DP8koMWuo,2,2024-04-09_14h02.09.749,face trait task,2021.2.3,MacIntel,57.14285714,SONAid,,,,,,,
,,,,3.025651396,1.5437,space,0.2028,0,23,23,38,1,39,image/39.jpg,0,R_1RlIO1DP8koMWuo,2,2024-04-09_14h02.09.749,face trait task,2021.2.3,MacIntel,57.14285714,SONAid,,,,,,,
,,,,4.20534954,180.3897,space,0.8074,0,24,24,18,1,19,image/19.jpg,0,R_1RlIO1DP8koMWuo,2,2024-04-09_14h02.09.749,face trait task,2021.2.3,MacIntel,57.14285714,SONAid,,,,,,,
,,,,5.208180773,1.0955,space,0.3068,0,25,25,3,1,4,image/4.jpg,0,R_1RlIO1DP8koMWuo,2,2024-04-09_14h02.09.749,face trait task,2021.2.3,MacIntel,57.14285714,SONAid,,,,,,,
,,,,2.019818631,2.2217,space,0.2618,0,26,26,30,1,31,image/31.jpg,0,R_1RlIO1DP8koMWuo,2,2024-04-09_14h02.09.749,face trait task,2021.2.3,MacIntel,57.14285714,SONAid,,,,,,,
,,,,4.015678219,1.5062,space,0.1618,0,27,27,31,1,32,image/32.jpg,0,R_1RlIO1DP8koMWuo,2,2024-04-09_14h02.09.749,face trait task,2021.2.3,MacIntel,57.14285714,SONAid,,,,,,,
,,,,4.083595879,1.1716,space,0.3353,0,28,28,26,1,27,image/27.jpg,0,R_1RlIO1DP8koMWuo,2,2024-04-09_14h02.09.749,face trait task,2021.2.3,MacIntel,57.14285714,SONAid,,,,,,,
,,,,5.187457425,1.3459,space,0.2095,0,29,29,33,1,34,image/34.jpg,0,R_1RlIO1DP8koMWuo,2,2024-04-09_14h02.09.749,face trait task,2021.2.3,MacIntel,57.14285714,SONAid,,,,,,,
,,,,5.32635814,1.9286,space,0.4582,0,30,30,48,1,49,image/49.jpg,0,R_1RlIO1DP8koMWuo,2,2024-04-09_14h02.09.749,face trait task,2021.2.3,MacIntel,57.14285714,SONAid,,,,,,,
,,,,3.52167064,1.7888,space,0.1783,0,31,31,19,1,20,image/20.jpg,0,R_1RlIO1DP8koMWuo,2,2024-04-09_14h02.09.749,face trait task,2021.2.3,MacIntel,57.14285714,SONAid,,,,,,,
,,,,1.473603542,2.3244,space,0.2199,0,32,32,36,1,37,image/37.jpg,0,R_1RlIO1DP8koMWuo,2,2024-04-09_14h02.09.749,face trait task,2021.2.3,MacIntel,57.14285714,SONAid,,,,,,,
,,,,5.318407272,1.3207,space,0.1844,0,33,33,35,1,36,image/36.jpg,0,R_1RlIO1DP8koMWuo,2,2024-04-09_14h02.09.749,face trait task,2021.2.3,MacIntel,57.14285714,SONAid,,,,,,,
,,,,2.910347837,1.3706,space,0.3006,0,34,34,10,1,11,image/11.jpg,0,R_1RlIO1DP8koMWuo,2,2024-04-09_14h02.09.749,face trait task,2021.2.3,MacIntel,57.14285714,SONAid,,,,,,,
,,,,4.445791468,91.5319,space,0.2313,0,35,35,27,1,28,image/28.jpg,0,R_1RlIO1DP8koMWuo,2,2024-04-09_14h02.09.749,face trait task,2021.2.3,MacIntel,57.14285714,SONAid,,,,,,,
,,,,4.521021373,0.9202,space,0.728,0,36,36,28,1,29,image/29.jpg,0,R_1RlIO1DP8koMWuo,2,2024-04-09_14h02.09.749,face trait task,2021.2.3,MacIntel,57.14285714,SONAid,,,,,,,
,,,,5.442172599,1.0631,space,0.4251,0,37,37,29,1,30,image/30.jpg,0,R_1RlIO1DP8koMWuo,2,2024-04-09_14h02.09.749,face trait task,2021.2.3,MacIntel,57.14285714,SONAid,,,,,,,
,,,,5.442172599,0.986,space,0.3574,0,38,38,24,1,25,image/25.jpg,0,R_1RlIO1DP8koMWuo,2,2024-04-09_14h02.09.749,face trait task,2021.2.3,MacIntel,57.14285714,SONAid,,,,,,,
,,,,4.035539424,83.8958,space,0.3329,0,39,39,5,1,6,image/6.jpg,0,R_1RlIO1DP8koMWuo,2,2024-04-09_14h02.09.749,face trait task,2021.2.3,MacIntel,57.14285714,SONAid,,,,,,,
,,,,3.499510388,1.7791,space,0.2869,0,40,40,14,1,15,image/15.jpg,0,R_1RlIO1DP8koMWuo,2,2024-04-09_14h02.09.749,face trait task,2021.2.3,MacIntel,57.14285714,SONAid,,,,,,,
,,,,5.423716366,1.4972,space,0.183,0,41,41,20,1,21,image/21.jpg,0,R_1RlIO1DP8koMWuo,2,2024-04-09_14h02.09.749,face trait task,2021.2.3,MacIntel,57.14285714,SONAid,,,,,,,
,,,,5.423716366,1.1691,space,1.2127,0,42,42,4,1,5,image/5.jpg,0,R_1RlIO1DP8koMWuo,2,2024-04-09_14h02.09.749,face trait task,2021.2.3,MacIntel,57.14285714,SONAid,,,,,,,
,,,,4.784645351,1.3778,space,0.2009,0,43,43,2,1,3,image/3.jpg,0,R_1RlIO1DP8koMWuo,2,2024-04-09_14h02.09.749,face trait task,2021.2.3,MacIntel,57.14285714,SONAid,,,,,,,
,,,,4.020723348,1.7142,space,0.3249,0,44,44,6,1,7,image/7.jpg,0,R_1RlIO1DP8koMWuo,2,2024-04-09_14h02.09.749,face trait task,2021.2.3,MacIntel,57.14285714,SONAid,,,,,,,
,,,,3.452060627,2.0366,space,4.2026,0,45,45,52,1,56,image/56.jpg,1,R_1RlIO1DP8koMWuo,2,2024-04-09_14h02.09.749,face trait task,2021.2.3,MacIntel,57.14285714,SONAid,,,,,,,
,,,,3.452060627,1.4868,space,0.2024,0,46,46,13,1,14,image/14.jpg,0,R_1RlIO1DP8koMWuo,2,2024-04-09_14h02.09.749,face trait task,2021.2.3,MacIntel,57.14285714,SONAid,,,,,,,
,,,,4.409836938,1.3035,space,0.7331,0,47,47,43,1,44,image/44.jpg,0,R_1RlIO1DP8koMWuo,2,2024-04-09_14h02.09.749,face trait task,2021.2.3,MacIntel,57.14285714,SONAid,,,,,,,
,,,,1.411688948,3.7707,space,0.4018,0,48,48,40,1,41,image/41.jpg,0,R_1RlIO1DP8koMWuo,2,2024-04-09_14h02.09.749,face trait task,2021.2.3,MacIntel,57.14285714,SONAid,,,,,,,
,,,,2.587906591,2.5975,space,0.4591,0,49,49,23,1,24,image/24.jpg,0,R_1RlIO1DP8koMWuo,2,2024-04-09_14h02.09.749,face trait task,2021.2.3,MacIntel,57.14285714,SONAid,,,,,,,
,,,,4.241336001,1.9571,space,0.7154,0,50,50,7,1,8,image/8.jpg,0,R_1RlIO1DP8koMWuo,2,2024-04-09_14h02.09.749,face trait task,2021.2.3,MacIntel,57.14285714,SONAid,,,,,,,
,,,,3.050206488,2.0895,space,0.3084,0,51,51,8,1,9,image/9.jpg,0,R_1RlIO1DP8koMWuo,2,2024-04-09_14h02.09.749,face trait task,2021.2.3,MacIntel,57.14285714,SONAid,,,,,,,
,,,,2.886207851,1.1435,space,0.3153,0,52,52,39,1,40,image/40.jpg,0,R_1RlIO1DP8koMWuo,2,2024-04-09_14h02.09.749,face trait task,2021.2.3,MacIntel,57.14285714,SONAid,,,,,,,
,,,,,,,,,,,,,,,,R_1RlIO1DP8koMWuo,2,2024-04-09_14h02.09.749,face trait task,2021.2.3,MacIntel,57.14285714,SONAid,0,3,3,3,1,3,friendly.png
