choose_trial,key_resp.keys,key_resp.rt,key_resp_4.keys,key_resp_4.rt,session_trait,slider_face_judge.response,slider_face_judge.rt,key_resp_3.keys,key_resp_3.rt,face_loop.thisRepN,face_loop.thisTrialN,face_loop.thisN,face_loop.thisIndex,face_loop.ran,face_serial,image_name,isCheck,answer,check_question,participant,session,date,expName,psychopyVersion,OS,frameRate,SONAid,session.thisRepN,session.thisTrialN,session.thisN,session.thisIndex,session.ran,session_serial,slider_judge_img
"[0,1,2,3,4,5,6,7,8,9,10,11,12,13,14,15,16,17,18,19,20,21,22,23,24,25,26,27,28,29,30,31,32,33,34,35,36,37,38,39,40,41,42,43,44,45,46,47,48,49,53,55,53]",space,4.966,space,9.3593,trustworthy,7,12.9048,space,5.3689,0,0,0,51,1,56,image/fill_img.png,1,7,Please move the slider all the way to the RIGHT to show that you are paying attention.,R_1WtVKNu6flh5Sp7,2,2024-04-29_17h12.29.858,face trait task,2021.2.3,Win32,59.52380952,SONAid,,,,,,,
,,,,,,3.983333588,4.8305,space,0.8558,0,1,1,6,1,7,image/7.jpg,0,0,,R_1WtVKNu6flh5Sp7,2,2024-04-29_17h12.29.858,face trait task,2021.2.3,Win32,59.52380952,SONAid,,,,,,,
,,,,,,3.983333588,1.2226,space,0.3724,0,2,2,7,1,8,image/8.jpg,0,0,,R_1WtVKNu6flh5Sp7,2,2024-04-29_17h12.29.858,face trait task,2021.2.3,Win32,59.52380952,SONAid,,,,,,,
,,,,,,4.305555556,2.3698,space,3.5019,0,3,3,28,1,29,image/29.jpg,0,0,,R_1WtVKNu6flh5Sp7,2,2024-04-29_17h12.29.858,face trait task,2021.2.3,Win32,59.52380952,SONAid,,,,,,,
,,,,,,3.988889058,1.9784,space,0.459,0,4,4,35,1,36,image/36.jpg,0,0,,R_1WtVKNu6flh5Sp7,2,2024-04-29_17h12.29.858,face trait task,2021.2.3,Win32,59.52380952,SONAid,,,,,,,
,,,,,,4.383333418,2.67,space,2.3179,0,5,5,18,1,19,image/19.jpg,0,0,,R_1WtVKNu6flh5Sp7,2,2024-04-29_17h12.29.858,face trait task,2021.2.3,Win32,59.52380952,SONAid,,,,,,,
,,,,,,4.39444436,5.8883,space,3.552,0,6,6,4,1,5,image/5.jpg,0,0,,R_1WtVKNu6flh5Sp7,2,2024-04-29_17h12.29.858,face trait task,2021.2.3,Win32,59.52380952,SONAid,,,,,,,
,,,,,,4.011111365,3.8356,space,1.408,0,7,7,36,1,37,image/37.jpg,0,0,,R_1WtVKNu6flh5Sp7,2,2024-04-29_17h12.29.858,face trait task,2021.2.3,Win32,59.52380952,SONAid,,,,,,,
,,,,,,3.466666751,4.645,space,2.3781,0,8,8,49,1,50,image/50.jpg,0,0,,R_1WtVKNu6flh5Sp7,2,2024-04-29_17h12.29.858,face trait task,2021.2.3,Win32,59.52380952,SONAid,,,,,,,
,,,,,,4.272222307,3.5543,space,0.6228,0,9,9,16,1,17,image/17.jpg,0,0,,R_1WtVKNu6flh5Sp7,2,2024-04-29_17h12.29.858,face trait task,2021.2.3,Win32,59.52380952,SONAid,,,,,,,
,,,,,,4.35555564,3.3176,space,1.4508,0,10,10,19,1,20,image/20.jpg,0,0,,R_1WtVKNu6flh5Sp7,2,2024-04-29_17h12.29.858,face trait task,2021.2.3,Win32,59.52380952,SONAid,,,,,,,
,,,,,,4.377777947,2.0853,space,0.4817,0,11,11,15,1,16,image/16.jpg,0,0,,R_1WtVKNu6flh5Sp7,2,2024-04-29_17h12.29.858,face trait task,2021.2.3,Win32,59.52380952,SONAid,,,,,,,
,,,,,,4.35000017,1.9239,space,0.4426,0,12,12,29,1,30,image/30.jpg,0,0,,R_1WtVKNu6flh5Sp7,2,2024-04-29_17h12.29.858,face trait task,2021.2.3,Win32,59.52380952,SONAid,,,,,,,
,,,,,,4.011111365,1.9455,space,0.357,0,13,13,38,1,39,image/39.jpg,0,0,,R_1WtVKNu6flh5Sp7,2,2024-04-29_17h12.29.858,face trait task,2021.2.3,Win32,59.52380952,SONAid,,,,,,,
,,,,,,4.449999915,1.9136,space,0.6235,0,14,14,33,1,34,image/34.jpg,0,0,,R_1WtVKNu6flh5Sp7,2,2024-04-29_17h12.29.858,face trait task,2021.2.3,Win32,59.52380952,SONAid,,,,,,,
,,,,,,3.988889058,1.9119,space,0.4635,0,15,15,24,1,25,image/25.jpg,0,0,,R_1WtVKNu6flh5Sp7,2,2024-04-29_17h12.29.858,face trait task,2021.2.3,Win32,59.52380952,SONAid,,,,,,,
,,,,,,3.988889058,1.0615,space,0.3179,0,16,16,10,1,11,image/11.jpg,0,0,,R_1WtVKNu6flh5Sp7,2,2024-04-29_17h12.29.858,face trait task,2021.2.3,Win32,59.52380952,SONAid,,,,,,,
,,,,,,4.488889058,4.8235,space,0.6624,0,17,17,21,1,22,image/22.jpg,0,0,,R_1WtVKNu6flh5Sp7,2,2024-04-29_17h12.29.858,face trait task,2021.2.3,Win32,59.52380952,SONAid,,,,,,,
,,,,,,4.488889058,1.111,space,0.5224,0,18,18,13,1,14,image/14.jpg,0,0,,R_1WtVKNu6flh5Sp7,2,2024-04-29_17h12.29.858,face trait task,2021.2.3,Win32,59.52380952,SONAid,,,,,,,
,,,,,,3.983333588,1.4607,space,0.3332,0,19,19,48,1,49,image/49.jpg,0,0,,R_1WtVKNu6flh5Sp7,2,2024-04-29_17h12.29.858,face trait task,2021.2.3,Win32,59.52380952,SONAid,,,,,,,
,,,,,,1.005555683,2.7464,space,0.325,0,20,20,52,1,54,image/fill_img.png,1,1,Please move the slider all the way to the LEFT to show that you are paying attention.,R_1WtVKNu6flh5Sp7,2,2024-04-29_17h12.29.858,face trait task,2021.2.3,Win32,59.52380952,SONAid,,,,,,,
,,,,,,5.027777778,3.454,space,0.334,0,21,21,0,1,1,image/1.jpg,0,0,,R_1WtVKNu6flh5Sp7,2,2024-04-29_17h12.29.858,face trait task,2021.2.3,Win32,59.52380952,SONAid,,,,,,,
,,,,,,1.005555683,2.8544,space,0.8983,0,22,22,50,1,54,image/fill_img.png,1,1,Please move the slider all the way to the LEFT to show that you are paying attention.,R_1WtVKNu6flh5Sp7,2,2024-04-29_17h12.29.858,face trait task,2021.2.3,Win32,59.52380952,SONAid,,,,,,,
,,,,,,4.527777778,4.285,space,1.8842,0,23,23,26,1,27,image/27.jpg,0,0,,R_1WtVKNu6flh5Sp7,2,2024-04-29_17h12.29.858,face trait task,2021.2.3,Win32,59.52380952,SONAid,,,,,,,
,,,,,,4.011111365,1.6389,space,0.2582,0,24,24,5,1,6,image/6.jpg,0,0,,R_1WtVKNu6flh5Sp7,2,2024-04-29_17h12.29.858,face trait task,2021.2.3,Win32,59.52380952,SONAid,,,,,,,
,,,,,,4.011111365,1.2455,space,0.2695,0,25,25,41,1,42,image/42.jpg,0,0,,R_1WtVKNu6flh5Sp7,2,2024-04-29_17h12.29.858,face trait task,2021.2.3,Win32,59.52380952,SONAid,,,,,,,
,,,,,,4.627777947,1.845,space,0.3155,0,26,26,14,1,15,image/15.jpg,0,0,,R_1WtVKNu6flh5Sp7,2,2024-04-29_17h12.29.858,face trait task,2021.2.3,Win32,59.52380952,SONAid,,,,,,,
,,,,,,4.561111026,1.7018,space,0.3068,0,27,27,25,1,26,image/26.jpg,0,0,,R_1WtVKNu6flh5Sp7,2,2024-04-29_17h12.29.858,face trait task,2021.2.3,Win32,59.52380952,SONAid,,,,,,,
,,,,,,2,3.5434,space,5.5415,0,28,28,45,1,46,image/46.jpg,0,0,,R_1WtVKNu6flh5Sp7,2,2024-04-29_17h12.29.858,face trait task,2021.2.3,Win32,59.52380952,SONAid,,,,,,,
,,,,,,4.494444529,2.0253,space,0.22,0,29,29,30,1,31,image/31.jpg,0,0,,R_1WtVKNu6flh5Sp7,2,2024-04-29_17h12.29.858,face trait task,2021.2.3,Win32,59.52380952,SONAid,,,,,,,
,,,,,,3.411111196,1.2442,space,0.2678,0,30,30,9,1,10,image/10.jpg,0,0,,R_1WtVKNu6flh5Sp7,2,2024-04-29_17h12.29.858,face trait task,2021.2.3,Win32,59.52380952,SONAid,,,,,,,
,,,,,,4.505555471,1.4367,space,0.2439,0,31,31,1,1,2,image/2.jpg,0,0,,R_1WtVKNu6flh5Sp7,2,2024-04-29_17h12.29.858,face trait task,2021.2.3,Win32,59.52380952,SONAid,,,,,,,
,,,,,,3.738889058,2.2978,space,1.0585,0,32,32,44,1,45,image/45.jpg,0,0,,R_1WtVKNu6flh5Sp7,2,2024-04-29_17h12.29.858,face trait task,2021.2.3,Win32,59.52380952,SONAid,,,,,,,
,,,,,,3.983333588,1.8027,space,0.2218,0,33,33,43,1,44,image/44.jpg,0,0,,R_1WtVKNu6flh5Sp7,2,2024-04-29_17h12.29.858,face trait task,2021.2.3,Win32,59.52380952,SONAid,,,,,,,
,,,,,,4.466666751,2.0523,space,1.1115,0,34,34,27,1,28,image/28.jpg,0,0,,R_1WtVKNu6flh5Sp7,2,2024-04-29_17h12.29.858,face trait task,2021.2.3,Win32,59.52380952,SONAid,,,,,,,
,,,,,,4.005555471,1.9482,space,0.2944,0,35,35,22,1,23,image/23.jpg,0,0,,R_1WtVKNu6flh5Sp7,2,2024-04-29_17h12.29.858,face trait task,2021.2.3,Win32,59.52380952,SONAid,,,,,,,
,,,,,,4.016666836,1.2415,space,0.2428,0,36,36,11,1,12,image/12.jpg,0,0,,R_1WtVKNu6flh5Sp7,2,2024-04-29_17h12.29.858,face trait task,2021.2.3,Win32,59.52380952,SONAid,,,,,,,
,,,,,,2.983333588,1.5686,space,0.3319,0,37,37,8,1,9,image/9.jpg,0,0,,R_1WtVKNu6flh5Sp7,2,2024-04-29_17h12.29.858,face trait task,2021.2.3,Win32,59.52380952,SONAid,,,,,,,
,,,,,,3.544444614,1.4244,space,0.2888,0,38,38,39,1,40,image/40.jpg,0,0,,R_1WtVKNu6flh5Sp7,2,2024-04-29_17h12.29.858,face trait task,2021.2.3,Win32,59.52380952,SONAid,,,,,,,
,,,,,,5.70555581,3.8149,space,1.3586,0,39,39,3,1,4,image/4.jpg,0,0,,R_1WtVKNu6flh5Sp7,2,2024-04-29_17h12.29.858,face trait task,2021.2.3,Win32,59.52380952,SONAid,,,,,,,
,,,,,,3.977777693,1.4688,space,0.222,0,40,40,37,1,38,image/38.jpg,0,0,,R_1WtVKNu6flh5Sp7,2,2024-04-29_17h12.29.858,face trait task,2021.2.3,Win32,59.52380952,SONAid,,,,,,,
,,,,,,4,6.4516,space,3.7254,0,41,41,23,1,24,image/24.jpg,0,0,,R_1WtVKNu6flh5Sp7,2,2024-04-29_17h12.29.858,face trait task,2021.2.3,Win32,59.52380952,SONAid,,,,,,,
,,,,,,4,1.0167,space,0.2367,0,42,42,42,1,43,image/43.jpg,0,0,,R_1WtVKNu6flh5Sp7,2,2024-04-29_17h12.29.858,face trait task,2021.2.3,Win32,59.52380952,SONAid,,,,,,,
,,,,,,3.983333588,2.6647,space,1.0613,0,43,43,2,1,3,image/3.jpg,0,0,,R_1WtVKNu6flh5Sp7,2,2024-04-29_17h12.29.858,face trait task,2021.2.3,Win32,59.52380952,SONAid,,,,,,,
,,,,,,4.800000085,3.2016,space,1.9175,0,44,44,31,1,32,image/32.jpg,0,0,,R_1WtVKNu6flh5Sp7,2,2024-04-29_17h12.29.858,face trait task,2021.2.3,Win32,59.52380952,SONAid,,,,,,,
,,,,,,4.472222222,3.4503,space,2.1339,0,45,45,12,1,13,image/13.jpg,0,0,,R_1WtVKNu6flh5Sp7,2,2024-04-29_17h12.29.858,face trait task,2021.2.3,Win32,59.52380952,SONAid,,,,,,,
,,,,,,2.972222222,1.747,space,0.2601,0,46,46,40,1,41,image/41.jpg,0,0,,R_1WtVKNu6flh5Sp7,2,2024-04-29_17h12.29.858,face trait task,2021.2.3,Win32,59.52380952,SONAid,,,,,,,
,,,,,,4.60555564,1.7493,space,0.2787,0,47,47,17,1,18,image/18.jpg,0,0,,R_1WtVKNu6flh5Sp7,2,2024-04-29_17h12.29.858,face trait task,2021.2.3,Win32,59.52380952,SONAid,,,,,,,
,,,,,,3.527777778,3.5314,space,0.2085,0,48,48,46,1,47,image/47.jpg,0,0,,R_1WtVKNu6flh5Sp7,2,2024-04-29_17h12.29.858,face trait task,2021.2.3,Win32,59.52380952,SONAid,,,,,,,
,,,,,,4.016666836,2.3225,space,1.3898,0,49,49,47,1,48,image/48.jpg,0,0,,R_1WtVKNu6flh5Sp7,2,2024-04-29_17h12.29.858,face trait task,2021.2.3,Win32,59.52380952,SONAid,,,,,,,
,,,,,,4.494444529,2.0259,space,1.5289,0,50,50,32,1,33,image/33.jpg,0,0,,R_1WtVKNu6flh5Sp7,2,2024-04-29_17h12.29.858,face trait task,2021.2.3,Win32,59.52380952,SONAid,,,,,,,
,,,,,,4.522222307,7.7576,space,5.6181,0,51,51,20,1,21,image/21.jpg,0,0,,R_1WtVKNu6flh5Sp7,2,2024-04-29_17h12.29.858,face trait task,2021.2.3,Win32,59.52380952,SONAid,,,,,,,
,,,,,,4.227777693,5.5358,space,3.5559,0,52,52,34,1,35,image/35.jpg,0,0,,R_1WtVKNu6flh5Sp7,2,2024-04-29_17h12.29.858,face trait task,2021.2.3,Win32,59.52380952,SONAid,,,,,,,
,,,,,,,,,,,,,,,,,,,,R_1WtVKNu6flh5Sp7,2,2024-04-29_17h12.29.858,face trait task,2021.2.3,Win32,59.52380952,SONAid,0,0,0,2,1,2,trustworthy.png
,,,,,critical,2.972222222,2.9811,space,0.5418,0,0,0,31,1,32,image/32.jpg,0,0,,R_1WtVKNu6flh5Sp7,2,2024-04-29_17h12.29.858,face trait task,2021.2.3,Win32,59.52380952,SONAid,,,,,,,
,,,,,,3.533333249,3.7634,space,0.7767,0,1,1,46,1,47,image/47.jpg,0,0,,R_1WtVKNu6flh5Sp7,2,2024-04-29_17h12.29.858,face trait task,2021.2.3,Win32,59.52380952,SONAid,,,,,,,
,,,,,,3.983333588,2.8545,space,0.1764,0,2,2,4,1,5,image/5.jpg,0,0,,R_1WtVKNu6flh5Sp7,2,2024-04-29_17h12.29.858,face trait task,2021.2.3,Win32,59.52380952,SONAid,,,,,,,
,,,,,,1.050000085,4.3905,space,1.202,0,3,3,52,1,54,image/fill_img.png,1,1,Please move the slider all the way to the LEFT to show that you are paying attention.,R_1WtVKNu6flh5Sp7,2,2024-04-29_17h12.29.858,face trait task,2021.2.3,Win32,59.52380952,SONAid,,,,,,,
,,,,,,2.39444436,6.9387,space,0.6489,0,4,4,23,1,24,image/24.jpg,0,0,,R_1WtVKNu6flh5Sp7,2,2024-04-29_17h12.29.858,face trait task,2021.2.3,Win32,59.52380952,SONAid,,,,,,,
,,,,,,6.633333842,4.843,space,2.534,0,5,5,47,1,48,image/48.jpg,0,0,,R_1WtVKNu6flh5Sp7,2,2024-04-29_17h12.29.858,face trait task,2021.2.3,Win32,59.52380952,SONAid,,,,,,,
,,,,,,4.983333588,2.5625,space,1.6189,0,6,6,45,1,46,image/46.jpg,0,0,,R_1WtVKNu6flh5Sp7,2,2024-04-29_17h12.29.858,face trait task,2021.2.3,Win32,59.52380952,SONAid,,,,,,,
,,,,,,6.977778117,5.7224,space,2.8188,0,7,7,1,1,2,image/2.jpg,0,0,,R_1WtVKNu6flh5Sp7,2,2024-04-29_17h12.29.858,face trait task,2021.2.3,Win32,59.52380952,SONAid,,,,,,,
,,,,,,5.011111365,2.9072,space,1.0937,0,8,8,25,1,26,image/26.jpg,0,0,,R_1WtVKNu6flh5Sp7,2,2024-04-29_17h12.29.858,face trait task,2021.2.3,Win32,59.52380952,SONAid,,,,,,,
,,,,,,2.966666751,1.9942,space,1.2665,0,9,9,29,1,30,image/30.jpg,0,0,,R_1WtVKNu6flh5Sp7,2,2024-04-29_17h12.29.858,face trait task,2021.2.3,Win32,59.52380952,SONAid,,,,,,,
,,,,,,4.405555725,2.999,space,0.7477,0,10,10,42,1,43,image/43.jpg,0,0,,R_1WtVKNu6flh5Sp7,2,2024-04-29_17h12.29.858,face trait task,2021.2.3,Win32,59.52380952,SONAid,,,,,,,
,,,,,,3.988889058,2.3152,space,1.7504,0,11,11,11,1,12,image/12.jpg,0,0,,R_1WtVKNu6flh5Sp7,2,2024-04-29_17h12.29.858,face trait task,2021.2.3,Win32,59.52380952,SONAid,,,,,,,
,,,,,,5.877777947,2.2424,space,1.2279,0,12,12,9,1,10,image/10.jpg,0,0,,R_1WtVKNu6flh5Sp7,2,2024-04-29_17h12.29.858,face trait task,2021.2.3,Win32,59.52380952,SONAid,,,,,,,
,,,,,,6.538888719,2.2869,space,0.4142,0,13,13,44,1,45,image/45.jpg,0,0,,R_1WtVKNu6flh5Sp7,2,2024-04-29_17h12.29.858,face trait task,2021.2.3,Win32,59.52380952,SONAid,,,,,,,
,,,,,,3.061111026,1.8882,space,1.0353,0,14,14,32,1,33,image/33.jpg,0,0,,R_1WtVKNu6flh5Sp7,2,2024-04-29_17h12.29.858,face trait task,2021.2.3,Win32,59.52380952,SONAid,,,,,,,
,,,,,,4.766666836,2.9091,space,1.7131,0,15,15,28,1,29,image/29.jpg,0,0,,R_1WtVKNu6flh5Sp7,2,2024-04-29_17h12.29.858,face trait task,2021.2.3,Win32,59.52380952,SONAid,,,,,,,
,,,,,,4.805555556,2.4275,space,0.7221,0,16,16,7,1,8,image/8.jpg,0,0,,R_1WtVKNu6flh5Sp7,2,2024-04-29_17h12.29.858,face trait task,2021.2.3,Win32,59.52380952,SONAid,,,,,,,
,,,,,,3.738889058,2.5018,space,0.5963,0,17,17,14,1,15,image/15.jpg,0,0,,R_1WtVKNu6flh5Sp7,2,2024-04-29_17h12.29.858,face trait task,2021.2.3,Win32,59.52380952,SONAid,,,,,,,
,,,,,,3.972222222,2.0765,space,0.6974,0,18,18,22,1,23,image/23.jpg,0,0,,R_1WtVKNu6flh5Sp7,2,2024-04-29_17h12.29.858,face trait task,2021.2.3,Win32,59.52380952,SONAid,,,,,,,
,,,,,,5.072222392,3.4426,space,1.5528,0,19,19,15,1,16,image/16.jpg,0,0,,R_1WtVKNu6flh5Sp7,2,2024-04-29_17h12.29.858,face trait task,2021.2.3,Win32,59.52380952,SONAid,,,,,,,
,,,,,,5.816666497,2.3227,space,1.418,0,20,20,30,1,31,image/31.jpg,0,0,,R_1WtVKNu6flh5Sp7,2,2024-04-29_17h12.29.858,face trait task,2021.2.3,Win32,59.52380952,SONAid,,,,,,,
,,,,,,2.616666582,3.9281,space,1.1003,0,21,21,40,1,41,image/41.jpg,0,0,,R_1WtVKNu6flh5Sp7,2,2024-04-29_17h12.29.858,face trait task,2021.2.3,Win32,59.52380952,SONAid,,,,,,,
,,,,,,4.983333588,1.6089,space,0.7336,0,22,22,13,1,14,image/14.jpg,0,0,,R_1WtVKNu6flh5Sp7,2,2024-04-29_17h12.29.858,face trait task,2021.2.3,Win32,59.52380952,SONAid,,,,,,,
,,,,,,1.022222307,3.5031,space,0.4461,0,23,23,50,1,54,image/fill_img.png,1,1,Please move the slider all the way to the LEFT to show that you are paying attention.,R_1WtVKNu6flh5Sp7,2,2024-04-29_17h12.29.858,face trait task,2021.2.3,Win32,59.52380952,SONAid,,,,,,,
,,,,,,4.044444614,2.413,space,0.4722,0,24,24,24,1,25,image/25.jpg,0,0,,R_1WtVKNu6flh5Sp7,2,2024-04-29_17h12.29.858,face trait task,2021.2.3,Win32,59.52380952,SONAid,,,,,,,
,,,,,,2.927778032,1.6102,space,0.641,0,25,25,48,1,49,image/49.jpg,0,0,,R_1WtVKNu6flh5Sp7,2,2024-04-29_17h12.29.858,face trait task,2021.2.3,Win32,59.52380952,SONAid,,,,,,,
,,,,,,2.011111153,3.1508,space,0.4171,0,26,26,2,1,3,image/3.jpg,0,0,,R_1WtVKNu6flh5Sp7,2,2024-04-29_17h12.29.858,face trait task,2021.2.3,Win32,59.52380952,SONAid,,,,,,,
,,,,,,2.444444444,1.8384,space,1.0237,0,27,27,17,1,18,image/18.jpg,0,0,,R_1WtVKNu6flh5Sp7,2,2024-04-29_17h12.29.858,face trait task,2021.2.3,Win32,59.52380952,SONAid,,,,,,,
,,,,,,3.027777778,2.4978,space,1.5663,0,28,28,19,1,20,image/20.jpg,0,0,,R_1WtVKNu6flh5Sp7,2,2024-04-29_17h12.29.858,face trait task,2021.2.3,Win32,59.52380952,SONAid,,,,,,,
,,,,,,3.827777863,3.8586,space,0.7251,0,29,29,6,1,7,image/7.jpg,0,0,,R_1WtVKNu6flh5Sp7,2,2024-04-29_17h12.29.858,face trait task,2021.2.3,Win32,59.52380952,SONAid,,,,,,,
,,,,,,3.449999915,1.8246,space,0.8021,0,30,30,10,1,11,image/11.jpg,0,0,,R_1WtVKNu6flh5Sp7,2,2024-04-29_17h12.29.858,face trait task,2021.2.3,Win32,59.52380952,SONAid,,,,,,,
,,,,,,3.427778032,3.8192,space,0.4631,0,31,31,33,1,34,image/34.jpg,0,0,,R_1WtVKNu6flh5Sp7,2,2024-04-29_17h12.29.858,face trait task,2021.2.3,Win32,59.52380952,SONAid,,,,,,,
,,,,,,3.561111026,2.7064,space,0.5813,0,32,32,36,1,37,image/37.jpg,0,0,,R_1WtVKNu6flh5Sp7,2,2024-04-29_17h12.29.858,face trait task,2021.2.3,Win32,59.52380952,SONAid,,,,,,,
,,,,,,3.95555581,2.8636,space,1.5946,0,33,33,35,1,36,image/36.jpg,0,0,,R_1WtVKNu6flh5Sp7,2,2024-04-29_17h12.29.858,face trait task,2021.2.3,Win32,59.52380952,SONAid,,,,,,,
,,,,,,5.438888974,2.6361,space,0.6637,0,34,34,8,1,9,image/9.jpg,0,0,,R_1WtVKNu6flh5Sp7,2,2024-04-29_17h12.29.858,face trait task,2021.2.3,Win32,59.52380952,SONAid,,,,,,,
,,,,,,4.005555471,2.437,space,0.5267,0,35,35,34,1,35,image/35.jpg,0,0,,R_1WtVKNu6flh5Sp7,2,2024-04-29_17h12.29.858,face trait task,2021.2.3,Win32,59.52380952,SONAid,,,,,,,
,,,,,,5.166666667,1.8296,space,0.7134,0,36,36,38,1,39,image/39.jpg,0,0,,R_1WtVKNu6flh5Sp7,2,2024-04-29_17h12.29.858,face trait task,2021.2.3,Win32,59.52380952,SONAid,,,,,,,
,,,,,,3.194444444,2.1271,space,1.0777,0,37,37,43,1,44,image/44.jpg,0,0,,R_1WtVKNu6flh5Sp7,2,2024-04-29_17h12.29.858,face trait task,2021.2.3,Win32,59.52380952,SONAid,,,,,,,
,,,,,,2.438888974,2.1112,space,0.5144,0,38,38,18,1,19,image/19.jpg,0,0,,R_1WtVKNu6flh5Sp7,2,2024-04-29_17h12.29.858,face trait task,2021.2.3,Win32,59.52380952,SONAid,,,,,,,
,,,,,,4.60000017,2.2024,space,0.9321,0,39,39,39,1,40,image/40.jpg,0,0,,R_1WtVKNu6flh5Sp7,2,2024-04-29_17h12.29.858,face trait task,2021.2.3,Win32,59.52380952,SONAid,,,,,,,
,,,,,,4,1.5798,space,0.2859,0,40,40,41,1,42,image/42.jpg,0,0,,R_1WtVKNu6flh5Sp7,2,2024-04-29_17h12.29.858,face trait task,2021.2.3,Win32,59.52380952,SONAid,,,,,,,
,,,,,,7,4.2832,space,1.3374,0,41,41,51,1,56,image/fill_img.png,1,7,Please move the slider all the way to the RIGHT to show that you are paying attention.,R_1WtVKNu6flh5Sp7,2,2024-04-29_17h12.29.858,face trait task,2021.2.3,Win32,59.52380952,SONAid,,,,,,,
,,,,,,5,3.7492,space,0.83,0,42,42,0,1,1,image/1.jpg,0,0,,R_1WtVKNu6flh5Sp7,2,2024-04-29_17h12.29.858,face trait task,2021.2.3,Win32,59.52380952,SONAid,,,,,,,
,,,,,,6.627777947,2.9343,space,0.4007,0,43,43,3,1,4,image/4.jpg,0,0,,R_1WtVKNu6flh5Sp7,2,2024-04-29_17h12.29.858,face trait task,2021.2.3,Win32,59.52380952,SONAid,,,,,,,
,,,,,,3.538889143,2.522,space,0.5081,0,44,44,37,1,38,image/38.jpg,0,0,,R_1WtVKNu6flh5Sp7,2,2024-04-29_17h12.29.858,face trait task,2021.2.3,Win32,59.52380952,SONAid,,,,,,,
,,,,,,4.138888889,5.8466,space,0.3539,0,45,45,49,1,50,image/50.jpg,0,0,,R_1WtVKNu6flh5Sp7,2,2024-04-29_17h12.29.858,face trait task,2021.2.3,Win32,59.52380952,SONAid,,,,,,,
,,,,,,5.077777863,2.8921,space,1.7158,0,46,46,27,1,28,image/28.jpg,0,0,,R_1WtVKNu6flh5Sp7,2,2024-04-29_17h12.29.858,face trait task,2021.2.3,Win32,59.52380952,SONAid,,,,,,,
,,,,,,5.699999915,3.0185,space,0.7673,0,47,47,12,1,13,image/13.jpg,0,0,,R_1WtVKNu6flh5Sp7,2,2024-04-29_17h12.29.858,face trait task,2021.2.3,Win32,59.52380952,SONAid,,,,,,,
,,,,,,6.072222392,3.9711,space,0.4314,0,48,48,21,1,22,image/22.jpg,0,0,,R_1WtVKNu6flh5Sp7,2,2024-04-29_17h12.29.858,face trait task,2021.2.3,Win32,59.52380952,SONAid,,,,,,,
,,,,,,3.538889143,3.457,space,0.7111,0,49,49,20,1,21,image/21.jpg,0,0,,R_1WtVKNu6flh5Sp7,2,2024-04-29_17h12.29.858,face trait task,2021.2.3,Win32,59.52380952,SONAid,,,,,,,
,,,,,,2.977777693,4.862,space,1.0236,0,50,50,16,1,17,image/17.jpg,0,0,,R_1WtVKNu6flh5Sp7,2,2024-04-29_17h12.29.858,face trait task,2021.2.3,Win32,59.52380952,SONAid,,,,,,,
,,,,,,2.961111281,3.0762,space,0.2038,0,51,51,26,1,27,image/27.jpg,0,0,,R_1WtVKNu6flh5Sp7,2,2024-04-29_17h12.29.858,face trait task,2021.2.3,Win32,59.52380952,SONAid,,,,,,,
,,,,,,3.70555581,2.5869,space,0.3707,0,52,52,5,1,6,image/6.jpg,0,0,,R_1WtVKNu6flh5Sp7,2,2024-04-29_17h12.29.858,face trait task,2021.2.3,Win32,59.52380952,SONAid,,,,,,,
,,,,,,,,,,,,,,,,,,,,R_1WtVKNu6flh5Sp7,2,2024-04-29_17h12.29.858,face trait task,2021.2.3,Win32,59.52380952,SONAid,0,1,1,0,1,0,critical.png
,,,,,friendly,5.988889058,3.3896,space,0.2941,0,0,0,15,1,16,image/16.jpg,0,0,,R_1WtVKNu6flh5Sp7,2,2024-04-29_17h12.29.858,face trait task,2021.2.3,Win32,59.52380952,SONAid,,,,,,,
,,,,,,4.911111196,2.3285,space,0.3291,0,1,1,37,1,38,image/38.jpg,0,0,,R_1WtVKNu6flh5Sp7,2,2024-04-29_17h12.29.858,face trait task,2021.2.3,Win32,59.52380952,SONAid,,,,,,,
,,,,,,6.055555556,2.6447,space,0.2999,0,2,2,26,1,27,image/27.jpg,0,0,,R_1WtVKNu6flh5Sp7,2,2024-04-29_17h12.29.858,face trait task,2021.2.3,Win32,59.52380952,SONAid,,,,,,,
,,,,,,4.588888804,1.5214,space,0.4053,0,3,3,41,1,42,image/42.jpg,0,0,,R_1WtVKNu6flh5Sp7,2,2024-04-29_17h12.29.858,face trait task,2021.2.3,Win32,59.52380952,SONAid,,,,,,,
,,,,,,6.761110942,1.7038,space,0.2639,0,4,4,22,1,23,image/23.jpg,0,0,,R_1WtVKNu6flh5Sp7,2,2024-04-29_17h12.29.858,face trait task,2021.2.3,Win32,59.52380952,SONAid,,,,,,,
,,,,,,3.488889058,4.787,space,2.8641,0,5,5,9,1,10,image/10.jpg,0,0,,R_1WtVKNu6flh5Sp7,2,2024-04-29_17h12.29.858,face trait task,2021.2.3,Win32,59.52380952,SONAid,,,,,,,
,,,,,,5.477777693,2.306,space,0.3752,0,6,6,40,1,41,image/41.jpg,0,0,,R_1WtVKNu6flh5Sp7,2,2024-04-29_17h12.29.858,face trait task,2021.2.3,Win32,59.52380952,SONAid,,,,,,,
,,,,,,5.505555471,3.5582,space,0.9083,0,7,7,4,1,5,image/5.jpg,0,0,,R_1WtVKNu6flh5Sp7,2,2024-04-29_17h12.29.858,face trait task,2021.2.3,Win32,59.52380952,SONAid,,,,,,,
,,,,,,1.050000085,2.5103,space,0.3856,0,8,8,52,1,54,image/fill_img.png,1,1,Please move the slider all the way to the LEFT to show that you are paying attention.,R_1WtVKNu6flh5Sp7,2,2024-04-29_17h12.29.858,face trait task,2021.2.3,Win32,59.52380952,SONAid,,,,,,,
,,,,,,6.994444953,2.9732,space,0.2344,0,9,9,34,1,35,image/35.jpg,0,0,,R_1WtVKNu6flh5Sp7,2,2024-04-29_17h12.29.858,face trait task,2021.2.3,Win32,59.52380952,SONAid,,,,,,,
,,,,,,4.388888889,2.0602,space,0.3352,0,10,10,19,1,20,image/20.jpg,0,0,,R_1WtVKNu6flh5Sp7,2,2024-04-29_17h12.29.858,face trait task,2021.2.3,Win32,59.52380952,SONAid,,,,,,,
,,,,,,6.983333164,3.7489,space,0.5077,0,11,11,51,1,56,image/fill_img.png,1,7,Please move the slider all the way to the RIGHT to show that you are paying attention.,R_1WtVKNu6flh5Sp7,2,2024-04-29_17h12.29.858,face trait task,2021.2.3,Win32,59.52380952,SONAid,,,,,,,
,,,,,,3.044444614,3.2632,space,0.3141,0,12,12,0,1,1,image/1.jpg,0,0,,R_1WtVKNu6flh5Sp7,2,2024-04-29_17h12.29.858,face trait task,2021.2.3,Win32,59.52380952,SONAid,,,,,,,
,,,,,,1.03333346,2.2535,space,0.2759,0,13,13,50,1,54,image/fill_img.png,1,1,Please move the slider all the way to the LEFT to show that you are paying attention.,R_1WtVKNu6flh5Sp7,2,2024-04-29_17h12.29.858,face trait task,2021.2.3,Win32,59.52380952,SONAid,,,,,,,
,,,,,,1.905555513,2.7229,space,2.4018,0,14,14,30,1,31,image/31.jpg,0,0,,R_1WtVKNu6flh5Sp7,2,2024-04-29_17h12.29.858,face trait task,2021.2.3,Win32,59.52380952,SONAid,,,,,,,
,,,,,,2.438888974,2.1458,space,1.0089,0,15,15,16,1,17,image/17.jpg,0,0,,R_1WtVKNu6flh5Sp7,2,2024-04-29_17h12.29.858,face trait task,2021.2.3,Win32,59.52380952,SONAid,,,,,,,
,,,,,,4.016666836,2.3682,space,0.9526,0,16,16,14,1,15,image/15.jpg,0,0,,R_1WtVKNu6flh5Sp7,2,2024-04-29_17h12.29.858,face trait task,2021.2.3,Win32,59.52380952,SONAid,,,,,,,
,,,,,,4.70555581,2.8742,space,0.4965,0,17,17,32,1,33,image/33.jpg,0,0,,R_1WtVKNu6flh5Sp7,2,2024-04-29_17h12.29.858,face trait task,2021.2.3,Win32,59.52380952,SONAid,,,,,,,
,,,,,,2.011111153,3.0777,space,1.3736,0,18,18,18,1,19,image/19.jpg,0,0,,R_1WtVKNu6flh5Sp7,2,2024-04-29_17h12.29.858,face trait task,2021.2.3,Win32,59.52380952,SONAid,,,,,,,
,,,,,,4.927778032,3.0016,space,0.6681,0,19,19,3,1,4,image/4.jpg,0,0,,R_1WtVKNu6flh5Sp7,2,2024-04-29_17h12.29.858,face trait task,2021.2.3,Win32,59.52380952,SONAid,,,,,,,
,,,,,,3.005555471,3.4906,space,0.4434,0,20,20,38,1,39,image/39.jpg,0,0,,R_1WtVKNu6flh5Sp7,2,2024-04-29_17h12.29.858,face trait task,2021.2.3,Win32,59.52380952,SONAid,,,,,,,
,,,,,,4.527777778,3.1137,space,1.0033,0,21,21,25,1,26,image/26.jpg,0,0,,R_1WtVKNu6flh5Sp7,2,2024-04-29_17h12.29.858,face trait task,2021.2.3,Win32,59.52380952,SONAid,,,,,,,
,,,,,,3.994444529,3.1238,space,0.3205,0,22,22,46,1,47,image/47.jpg,0,0,,R_1WtVKNu6flh5Sp7,2,2024-04-29_17h12.29.858,face trait task,2021.2.3,Win32,59.52380952,SONAid,,,,,,,
,,,,,,5.538889143,2.3908,space,1.1612,0,23,23,43,1,44,image/44.jpg,0,0,,R_1WtVKNu6flh5Sp7,2,2024-04-29_17h12.29.858,face trait task,2021.2.3,Win32,59.52380952,SONAid,,,,,,,
,,,,,,2.983333588,1.9146,space,0.4595,0,24,24,27,1,28,image/28.jpg,0,0,,R_1WtVKNu6flh5Sp7,2,2024-04-29_17h12.29.858,face trait task,2021.2.3,Win32,59.52380952,SONAid,,,,,,,
,,,,,,1.405555513,3.0747,space,0.4182,0,25,25,8,1,9,image/9.jpg,0,0,,R_1WtVKNu6flh5Sp7,2,2024-04-29_17h12.29.858,face trait task,2021.2.3,Win32,59.52380952,SONAid,,,,,,,
,,,,,,3.883333418,2.8604,space,0.9002,0,26,26,45,1,46,image/46.jpg,0,0,,R_1WtVKNu6flh5Sp7,2,2024-04-29_17h12.29.858,face trait task,2021.2.3,Win32,59.52380952,SONAid,,,,,,,
,,,,,,2.572222392,2.0568,space,0.2418,0,27,27,23,1,24,image/24.jpg,0,0,,R_1WtVKNu6flh5Sp7,2,2024-04-29_17h12.29.858,face trait task,2021.2.3,Win32,59.52380952,SONAid,,,,,,,
,,,,,,4.133333418,2.1517,space,0.3925,0,28,28,10,1,11,image/11.jpg,0,0,,R_1WtVKNu6flh5Sp7,2,2024-04-29_17h12.29.858,face trait task,2021.2.3,Win32,59.52380952,SONAid,,,,,,,
,,,,,,4.972222222,2.6859,space,1.1001,0,29,29,1,1,2,image/2.jpg,0,0,,R_1WtVKNu6flh5Sp7,2,2024-04-29_17h12.29.858,face trait task,2021.2.3,Win32,59.52380952,SONAid,,,,,,,
,,,,,,3.805555556,4.3031,space,2.6442,0,30,30,28,1,29,image/29.jpg,0,0,,R_1WtVKNu6flh5Sp7,2,2024-04-29_17h12.29.858,face trait task,2021.2.3,Win32,59.52380952,SONAid,,,,,,,
,,,,,,3.983333588,2.8187,space,0.3528,0,31,31,5,1,6,image/6.jpg,0,0,,R_1WtVKNu6flh5Sp7,2,2024-04-29_17h12.29.858,face trait task,2021.2.3,Win32,59.52380952,SONAid,,,,,,,
,,,,,,3.050000085,2.5519,space,0.8674,0,32,32,13,1,14,image/14.jpg,0,0,,R_1WtVKNu6flh5Sp7,2,2024-04-29_17h12.29.858,face trait task,2021.2.3,Win32,59.52380952,SONAid,,,,,,,
,,,,,,5,2.1786,space,0.5125,0,33,33,17,1,18,image/18.jpg,0,0,,R_1WtVKNu6flh5Sp7,2,2024-04-29_17h12.29.858,face trait task,2021.2.3,Win32,59.52380952,SONAid,,,,,,,
,,,,,,5.466666751,2.2521,space,0.2724,0,34,34,35,1,36,image/36.jpg,0,0,,R_1WtVKNu6flh5Sp7,2,2024-04-29_17h12.29.858,face trait task,2021.2.3,Win32,59.52380952,SONAid,,,,,,,
,,,,,,4.577777863,2.4509,space,0.5677,0,35,35,31,1,32,image/32.jpg,0,0,,R_1WtVKNu6flh5Sp7,2,2024-04-29_17h12.29.858,face trait task,2021.2.3,Win32,59.52380952,SONAid,,,,,,,
,,,,,,3.994444529,4.6915,space,3.4832,0,36,36,6,1,7,image/7.jpg,0,0,,R_1WtVKNu6flh5Sp7,2,2024-04-29_17h12.29.858,face trait task,2021.2.3,Win32,59.52380952,SONAid,,,,,,,
,,,,,,2.488889058,2.3164,space,0.3678,0,37,37,21,1,22,image/22.jpg,0,0,,R_1WtVKNu6flh5Sp7,2,2024-04-29_17h12.29.858,face trait task,2021.2.3,Win32,59.52380952,SONAid,,,,,,,
,,,,,,4.60000017,3.0175,space,0.5099,0,38,38,12,1,13,image/13.jpg,0,0,,R_1WtVKNu6flh5Sp7,2,2024-04-29_17h12.29.858,face trait task,2021.2.3,Win32,59.52380952,SONAid,,,,,,,
,,,,,,2.511111365,2.485,space,0.8681,0,39,39,44,1,45,image/45.jpg,0,0,,R_1WtVKNu6flh5Sp7,2,2024-04-29_17h12.29.858,face trait task,2021.2.3,Win32,59.52380952,SONAid,,,,,,,
,,,,,,2.966666751,2.285,space,0.4228,0,40,40,42,1,43,image/43.jpg,0,0,,R_1WtVKNu6flh5Sp7,2,2024-04-29_17h12.29.858,face trait task,2021.2.3,Win32,59.52380952,SONAid,,,,,,,
,,,,,,2.966666751,1.5683,space,0.474,0,41,41,29,1,30,image/30.jpg,0,0,,R_1WtVKNu6flh5Sp7,2,2024-04-29_17h12.29.858,face trait task,2021.2.3,Win32,59.52380952,SONAid,,,,,,,
,,,,,,5.516666836,3.0348,space,1.3211,0,42,42,20,1,21,image/21.jpg,0,0,,R_1WtVKNu6flh5Sp7,2,2024-04-29_17h12.29.858,face trait task,2021.2.3,Win32,59.52380952,SONAid,,,,,,,
,,,,,,5.011111365,3.0639,space,0.5699,0,43,43,49,1,50,image/50.jpg,0,0,,R_1WtVKNu6flh5Sp7,2,2024-04-29_17h12.29.858,face trait task,2021.2.3,Win32,59.52380952,SONAid,,,,,,,
,,,,,,5.511111365,2.2439,space,0.3376,0,44,44,11,1,12,image/12.jpg,0,0,,R_1WtVKNu6flh5Sp7,2,2024-04-29_17h12.29.858,face trait task,2021.2.3,Win32,59.52380952,SONAid,,,,,,,
,,,,,,5,4.2056,space,0.5367,0,45,45,48,1,49,image/49.jpg,0,0,,R_1WtVKNu6flh5Sp7,2,2024-04-29_17h12.29.858,face trait task,2021.2.3,Win32,59.52380952,SONAid,,,,,,,
,,,,,,2.466666751,2.2685,space,0.3195,0,46,46,39,1,40,image/40.jpg,0,0,,R_1WtVKNu6flh5Sp7,2,2024-04-29_17h12.29.858,face trait task,2021.2.3,Win32,59.52380952,SONAid,,,,,,,
,,,,,,4.938888974,4.4011,space,1.1443,0,47,47,47,1,48,image/48.jpg,0,0,,R_1WtVKNu6flh5Sp7,2,2024-04-29_17h12.29.858,face trait task,2021.2.3,Win32,59.52380952,SONAid,,,,,,,
,,,,,,6.544444614,1.8783,space,0.5177,0,48,48,33,1,34,image/34.jpg,0,0,,R_1WtVKNu6flh5Sp7,2,2024-04-29_17h12.29.858,face trait task,2021.2.3,Win32,59.52380952,SONAid,,,,,,,
,,,,,,4.994444529,1.9399,space,0.4923,0,49,49,7,1,8,image/8.jpg,0,0,,R_1WtVKNu6flh5Sp7,2,2024-04-29_17h12.29.858,face trait task,2021.2.3,Win32,59.52380952,SONAid,,,,,,,
,,,,,,4.449999915,4.2004,space,2.7543,0,50,50,36,1,37,image/37.jpg,0,0,,R_1WtVKNu6flh5Sp7,2,2024-04-29_17h12.29.858,face trait task,2021.2.3,Win32,59.52380952,SONAid,,,,,,,
,,,,,,5.022222307,4.2042,space,0.604,0,51,51,2,1,3,image/3.jpg,0,0,,R_1WtVKNu6flh5Sp7,2,2024-04-29_17h12.29.858,face trait task,2021.2.3,Win32,59.52380952,SONAid,,,,,,,
,,,,,,5.494444529,3.1739,space,0.2294,0,52,52,24,1,25,image/25.jpg,0,0,,R_1WtVKNu6flh5Sp7,2,2024-04-29_17h12.29.858,face trait task,2021.2.3,Win32,59.52380952,SONAid,,,,,,,
,,,,,,,,,,,,,,,,,,,,R_1WtVKNu6flh5Sp7,2,2024-04-29_17h12.29.858,face trait task,2021.2.3,Win32,59.52380952,SONAid,0,2,2,3,1,3,friendly.png
,,,,,competent,6.966667175,4.7403,space,3.564,0,0,0,48,1,49,image/49.jpg,0,0,,R_1WtVKNu6flh5Sp7,2,2024-04-29_17h12.29.858,face trait task,2021.2.3,Win32,59.52380952,SONAid,,,,,,,
,,,,,,6.977778117,3.1268,space,0.431,0,1,1,51,1,56,image/fill_img.png,1,7,Please move the slider all the way to the RIGHT to show that you are paying attention.,R_1WtVKNu6flh5Sp7,2,2024-04-29_17h12.29.858,face trait task,2021.2.3,Win32,59.52380952,SONAid,,,,,,,
,,,,,,6.977778117,2.5927,space,0.6164,0,2,2,17,1,18,image/18.jpg,0,0,,R_1WtVKNu6flh5Sp7,2,2024-04-29_17h12.29.858,face trait task,2021.2.3,Win32,59.52380952,SONAid,,,,,,,
,,,,,,6.977778117,0.9682,space,0.7236,0,3,3,23,1,24,image/24.jpg,0,0,,R_1WtVKNu6flh5Sp7,2,2024-04-29_17h12.29.858,face trait task,2021.2.3,Win32,59.52380952,SONAid,,,,,,,
,,,,,,6.972222222,0.9822,space,0.6343,0,4,4,37,1,38,image/38.jpg,0,0,,R_1WtVKNu6flh5Sp7,2,2024-04-29_17h12.29.858,face trait task,2021.2.3,Win32,59.52380952,SONAid,,,,,,,
,,,,,,6.972222222,1.0846,space,0.6316,0,5,5,33,1,34,image/34.jpg,0,0,,R_1WtVKNu6flh5Sp7,2,2024-04-29_17h12.29.858,face trait task,2021.2.3,Win32,59.52380952,SONAid,,,,,,,
,,,,,,6.494444953,2.7553,space,2.3854,0,6,6,18,1,19,image/19.jpg,0,0,,R_1WtVKNu6flh5Sp7,2,2024-04-29_17h12.29.858,face trait task,2021.2.3,Win32,59.52380952,SONAid,,,,,,,
,,,,,,6.983333164,3.7485,space,0.3079,0,7,7,49,1,50,image/50.jpg,0,0,,R_1WtVKNu6flh5Sp7,2,2024-04-29_17h12.29.858,face trait task,2021.2.3,Win32,59.52380952,SONAid,,,,,,,
,,,,,,6.983333164,1.1591,space,0.2774,0,8,8,7,1,8,image/8.jpg,0,0,,R_1WtVKNu6flh5Sp7,2,2024-04-29_17h12.29.858,face trait task,2021.2.3,Win32,59.52380952,SONAid,,,,,,,
,,,,,,6.983333164,0.9106,space,0.9894,0,9,9,2,1,3,image/3.jpg,0,0,,R_1WtVKNu6flh5Sp7,2,2024-04-29_17h12.29.858,face trait task,2021.2.3,Win32,59.52380952,SONAid,,,,,,,
,,,,,,6.983333164,0.9584,space,0.4136,0,10,10,10,1,11,image/11.jpg,0,0,,R_1WtVKNu6flh5Sp7,2,2024-04-29_17h12.29.858,face trait task,2021.2.3,Win32,59.52380952,SONAid,,,,,,,
,,,,,,6.983333164,1.0697,space,0.3129,0,11,11,45,1,46,image/46.jpg,0,0,,R_1WtVKNu6flh5Sp7,2,2024-04-29_17h12.29.858,face trait task,2021.2.3,Win32,59.52380952,SONAid,,,,,,,
,,,,,,6.688889398,4.7542,space,0.7219,0,12,12,36,1,37,image/37.jpg,0,0,,R_1WtVKNu6flh5Sp7,2,2024-04-29_17h12.29.858,face trait task,2021.2.3,Win32,59.52380952,SONAid,,,,,,,
,,,,,,6.966667175,1.4785,space,0.3149,0,13,13,0,1,1,image/1.jpg,0,0,,R_1WtVKNu6flh5Sp7,2,2024-04-29_17h12.29.858,face trait task,2021.2.3,Win32,59.52380952,SONAid,,,,,,,
,,,,,,1.011111153,2.6759,space,0.2851,0,14,14,50,1,54,image/fill_img.png,1,1,Please move the slider all the way to the LEFT to show that you are paying attention.,R_1WtVKNu6flh5Sp7,2,2024-04-29_17h12.29.858,face trait task,2021.2.3,Win32,59.52380952,SONAid,,,,,,,
,,,,,,6.977778117,2.1478,space,0.2726,0,15,15,20,1,21,image/21.jpg,0,0,,R_1WtVKNu6flh5Sp7,2,2024-04-29_17h12.29.858,face trait task,2021.2.3,Win32,59.52380952,SONAid,,,,,,,
,,,,,,6.977778117,0.9215,space,0.3,0,16,16,19,1,20,image/20.jpg,0,0,,R_1WtVKNu6flh5Sp7,2,2024-04-29_17h12.29.858,face trait task,2021.2.3,Win32,59.52380952,SONAid,,,,,,,
,,,,,,6.977778117,1.4308,space,0.2762,0,17,17,16,1,17,image/17.jpg,0,0,,R_1WtVKNu6flh5Sp7,2,2024-04-29_17h12.29.858,face trait task,2021.2.3,Win32,59.52380952,SONAid,,,,,,,
,,,,,,6.977778117,0.9187,space,0.2717,0,18,18,43,1,44,image/44.jpg,0,0,,R_1WtVKNu6flh5Sp7,2,2024-04-29_17h12.29.858,face trait task,2021.2.3,Win32,59.52380952,SONAid,,,,,,,
,,,,,,6.977778117,0.9047,space,0.3344,0,19,19,13,1,14,image/14.jpg,0,0,,R_1WtVKNu6flh5Sp7,2,2024-04-29_17h12.29.858,face trait task,2021.2.3,Win32,59.52380952,SONAid,,,,,,,
,,,,,,6.977778117,0.9583,space,0.6187,0,20,20,42,1,43,image/43.jpg,0,0,,R_1WtVKNu6flh5Sp7,2,2024-04-29_17h12.29.858,face trait task,2021.2.3,Win32,59.52380952,SONAid,,,,,,,
,,,,,,6.977778117,1.3519,space,0.2957,0,21,21,14,1,15,image/15.jpg,0,0,,R_1WtVKNu6flh5Sp7,2,2024-04-29_17h12.29.858,face trait task,2021.2.3,Win32,59.52380952,SONAid,,,,,,,
,,,,,,6.988889058,1.2291,space,0.3066,0,22,22,35,1,36,image/36.jpg,0,0,,R_1WtVKNu6flh5Sp7,2,2024-04-29_17h12.29.858,face trait task,2021.2.3,Win32,59.52380952,SONAid,,,,,,,
,,,,,,6.511110942,3.0199,space,2.7193,0,23,23,1,1,2,image/2.jpg,0,0,,R_1WtVKNu6flh5Sp7,2,2024-04-29_17h12.29.858,face trait task,2021.2.3,Win32,59.52380952,SONAid,,,,,,,
,,,,,,5.977778117,4.0942,space,0.2842,0,24,24,32,1,33,image/33.jpg,0,0,,R_1WtVKNu6flh5Sp7,2,2024-04-29_17h12.29.858,face trait task,2021.2.3,Win32,59.52380952,SONAid,,,,,,,
,,,,,,6.983333164,2.7207,space,0.2485,0,25,25,12,1,13,image/13.jpg,0,0,,R_1WtVKNu6flh5Sp7,2,2024-04-29_17h12.29.858,face trait task,2021.2.3,Win32,59.52380952,SONAid,,,,,,,
,,,,,,6.527777778,2.3525,space,2.1623,0,26,26,21,1,22,image/22.jpg,0,0,,R_1WtVKNu6flh5Sp7,2,2024-04-29_17h12.29.858,face trait task,2021.2.3,Win32,59.52380952,SONAid,,,,,,,
,,,,,,6.983333164,3.1286,space,0.346,0,27,27,27,1,28,image/28.jpg,0,0,,R_1WtVKNu6flh5Sp7,2,2024-04-29_17h12.29.858,face trait task,2021.2.3,Win32,59.52380952,SONAid,,,,,,,
,,,,,,6.983333164,0.6074,space,0.5508,0,28,28,30,1,31,image/31.jpg,0,0,,R_1WtVKNu6flh5Sp7,2,2024-04-29_17h12.29.858,face trait task,2021.2.3,Win32,59.52380952,SONAid,,,,,,,
,,,,,,6.983333164,0.5256,space,0.5978,0,29,29,29,1,30,image/30.jpg,0,0,,R_1WtVKNu6flh5Sp7,2,2024-04-29_17h12.29.858,face trait task,2021.2.3,Win32,59.52380952,SONAid,,,,,,,
,,,,,,6.983333164,1.0119,space,0.8669,0,30,30,15,1,16,image/16.jpg,0,0,,R_1WtVKNu6flh5Sp7,2,2024-04-29_17h12.29.858,face trait task,2021.2.3,Win32,59.52380952,SONAid,,,,,,,
,,,,,,6.983333164,1.0638,space,0.4106,0,31,31,40,1,41,image/41.jpg,0,0,,R_1WtVKNu6flh5Sp7,2,2024-04-29_17h12.29.858,face trait task,2021.2.3,Win32,59.52380952,SONAid,,,,,,,
,,,,,,6.983333164,0.9968,space,0.3164,0,32,32,41,1,42,image/42.jpg,0,0,,R_1WtVKNu6flh5Sp7,2,2024-04-29_17h12.29.858,face trait task,2021.2.3,Win32,59.52380952,SONAid,,,,,,,
,,,,,,1.038888931,2.3596,space,0.4521,0,33,33,52,1,54,image/fill_img.png,1,1,Please move the slider all the way to the LEFT to show that you are paying attention.,R_1WtVKNu6flh5Sp7,2,2024-04-29_17h12.29.858,face trait task,2021.2.3,Win32,59.52380952,SONAid,,,,,,,
,,,,,,6.977778117,3.1103,space,0.3244,0,34,34,31,1,32,image/32.jpg,0,0,,R_1WtVKNu6flh5Sp7,2,2024-04-29_17h12.29.858,face trait task,2021.2.3,Win32,59.52380952,SONAid,,,,,,,
,,,,,,6.977778117,1.1292,space,0.2796,0,35,35,24,1,25,image/25.jpg,0,0,,R_1WtVKNu6flh5Sp7,2,2024-04-29_17h12.29.858,face trait task,2021.2.3,Win32,59.52380952,SONAid,,,,,,,
,,,,,,6.977778117,0.7275,space,0.3829,0,36,36,6,1,7,image/7.jpg,0,0,,R_1WtVKNu6flh5Sp7,2,2024-04-29_17h12.29.858,face trait task,2021.2.3,Win32,59.52380952,SONAid,,,,,,,
,,,,,,6.461111281,2.6284,space,0.6885,0,37,37,9,1,10,image/10.jpg,0,0,,R_1WtVKNu6flh5Sp7,2,2024-04-29_17h12.29.858,face trait task,2021.2.3,Win32,59.52380952,SONAid,,,,,,,
,,,,,,6.994444953,1.5456,space,0.8925,0,38,38,4,1,5,image/5.jpg,0,0,,R_1WtVKNu6flh5Sp7,2,2024-04-29_17h12.29.858,face trait task,2021.2.3,Win32,59.52380952,SONAid,,,,,,,
,,,,,,6.994444953,0.9718,space,0.4093,0,39,39,25,1,26,image/26.jpg,0,0,,R_1WtVKNu6flh5Sp7,2,2024-04-29_17h12.29.858,face trait task,2021.2.3,Win32,59.52380952,SONAid,,,,,,,
,,,,,,6.977778117,4.7616,space,0.3051,0,40,40,38,1,39,image/39.jpg,0,0,,R_1WtVKNu6flh5Sp7,2,2024-04-29_17h12.29.858,face trait task,2021.2.3,Win32,59.52380952,SONAid,,,,,,,
,,,,,,6.977778117,0.8705,space,0.4386,0,41,41,39,1,40,image/40.jpg,0,0,,R_1WtVKNu6flh5Sp7,2,2024-04-29_17h12.29.858,face trait task,2021.2.3,Win32,59.52380952,SONAid,,,,,,,
,,,,,,6.977778117,0.9611,space,0.3347,0,42,42,3,1,4,image/4.jpg,0,0,,R_1WtVKNu6flh5Sp7,2,2024-04-29_17h12.29.858,face trait task,2021.2.3,Win32,59.52380952,SONAid,,,,,,,
,,,,,,6.977778117,0.8621,space,0.8025,0,43,43,44,1,45,image/45.jpg,0,0,,R_1WtVKNu6flh5Sp7,2,2024-04-29_17h12.29.858,face trait task,2021.2.3,Win32,59.52380952,SONAid,,,,,,,
,,,,,,6.977778117,0.809,space,0.3713,0,44,44,34,1,35,image/35.jpg,0,0,,R_1WtVKNu6flh5Sp7,2,2024-04-29_17h12.29.858,face trait task,2021.2.3,Win32,59.52380952,SONAid,,,,,,,
,,,,,,6.977778117,1.3478,space,5.6268,0,45,45,8,1,9,image/9.jpg,0,0,,R_1WtVKNu6flh5Sp7,2,2024-04-29_17h12.29.858,face trait task,2021.2.3,Win32,59.52380952,SONAid,,,,,,,
,,,,,,6.977778117,1.8978,space,0.2552,0,46,46,22,1,23,image/23.jpg,0,0,,R_1WtVKNu6flh5Sp7,2,2024-04-29_17h12.29.858,face trait task,2021.2.3,Win32,59.52380952,SONAid,,,,,,,
,,,,,,6.977778117,0.8904,space,0.3534,0,47,47,47,1,48,image/48.jpg,0,0,,R_1WtVKNu6flh5Sp7,2,2024-04-29_17h12.29.858,face trait task,2021.2.3,Win32,59.52380952,SONAid,,,,,,,
,,,,,,6.977778117,0.8584,space,0.479,0,48,48,46,1,47,image/47.jpg,0,0,,R_1WtVKNu6flh5Sp7,2,2024-04-29_17h12.29.858,face trait task,2021.2.3,Win32,59.52380952,SONAid,,,,,,,
,,,,,,6.977778117,0.7647,space,0.4179,0,49,49,26,1,27,image/27.jpg,0,0,,R_1WtVKNu6flh5Sp7,2,2024-04-29_17h12.29.858,face trait task,2021.2.3,Win32,59.52380952,SONAid,,,,,,,
,,,,,,6.977778117,0.8865,space,0.4286,0,50,50,5,1,6,image/6.jpg,0,0,,R_1WtVKNu6flh5Sp7,2,2024-04-29_17h12.29.858,face trait task,2021.2.3,Win32,59.52380952,SONAid,,,,,,,
,,,,,,6.977778117,0.8911,space,0.3536,0,51,51,11,1,12,image/12.jpg,0,0,,R_1WtVKNu6flh5Sp7,2,2024-04-29_17h12.29.858,face trait task,2021.2.3,Win32,59.52380952,SONAid,,,,,,,
,,,,,,6.977778117,0.9042,space,0.7728,0,52,52,28,1,29,image/29.jpg,0,0,,R_1WtVKNu6flh5Sp7,2,2024-04-29_17h12.29.858,face trait task,2021.2.3,Win32,59.52380952,SONAid,,,,,,,
,,,,,,,,,,,,,,,,,,,,R_1WtVKNu6flh5Sp7,2,2024-04-29_17h12.29.858,face trait task,2021.2.3,Win32,59.52380952,SONAid,0,3,3,1,1,1,competent.png
