chooserow,ParID,pre_instru_resp_2.keys,pre_instru_resp_2.rt,pre_instru_resp_3.keys,pre_instru_resp_3.rt,pre_instru_resp_9.keys,pre_instru_resp_9.rt,pre_instru_resp_8.keys,pre_instru_resp_8.rt,pre_instru_resp_4.keys,pre_instru_resp_4.rt,pre_instru_resp_5.keys,pre_instru_resp_5.rt,pre_instru_resp_6.keys,pre_instru_resp_6.rt,key_resp_3.keys,key_resp_3.rt,key_resp_4.keys,key_resp_4.rt,key_resp_5.keys,key_resp_5.rt,key_resp_6.keys,key_resp_6.rt,key_resp_7.keys,key_resp_7.rt,trials_2.thisRepN,trials_2.thisTrialN,trials_2.thisN,trials_2.thisIndex,trials_2.ran,participant,session,date,expName,psychopyVersion,OS,frameRate,pre_instru_resp.keys,pre_instru_resp.rt,clicked,judge_2.x,judge_2.y,judge_2.leftButton,judge_2.midButton,judge_2.rightButton,judge_2.clicked_name,trials.thisRepN,trials.thisTrialN,trials.thisN,trials.thisIndex,trials.ran,prac_answer,prac_dot_sti,dotlefttext,dotrighttext,prac_acc,judge.x,judge.y,judge.leftButton,judge.midButton,judge.rightButton,judge.clicked_name,clicked_guilt,slider_guilt.response,slider_guilt.rt,key_guilt.keys,key_guilt.rt,share_slider.response,share_slider.rt,key_share.keys,slider_apology.response,slider_apology.rt,key_apology.keys,slider_hide.response,slider_hide.rt,slider_forgiveness.response,slider_forgiveness.rt,key_forgiveness.keys,slider_mad.response,slider_mad.rt,trialseq.thisRepN,trialseq.thisTrialN,trialseq.thisN,trialseq.thisIndex,trialseq.ran,type_trial,stipic,DV,picture,answer,number,key_forgiveness.rt,key_share.rt,key_apology.rt,incompleteTrials,trials_redo.thisRepN,trials_redo.thisTrialN,trials_redo.thisN,trials_redo.thisIndex,trials_redo.ran
"[101,100,96,16,12,20,180,187,191,74,82,73,152,147,154,115,110,119,122,126,124,117,111,119,187,180,186,91,90,89,120,121,122,180,183,191,98,101,99,7,3,1,168,178,169,53,52,50,197,200]",R_21BWPLE20uoyM7G,space,75.1012,space,10.7271,space,38.9412,space,150.5252,space,150.3639,space,22.2767,space,5.9903,3,19.9654,2,17.4376,2,17.3649,2,5.76,3,11.8495,0,0,0,0,1,R_21BWPLE20uoyM7G,1,2024-03-16_02h03.39.196,interaction task,2021.2.3,Win32,60.24096386,,,,,,,,,,,,,,,,,,,,,,,,,,,,,,,,,,,,,,,,,,,,,,,,,,,,,,,,,,,,,,,
,,,,space,3.1996,space,1.0654,space,0.273,space,0.3952,space,0.6152,space,0.1971,3,2.0538,1,16.356,2,4.5857,2,4.8008,2,5.1888,1,0,1,0,1,R_21BWPLE20uoyM7G,1,2024-03-16_02h03.39.196,interaction task,2021.2.3,Win32,60.24096386,,,,,,,,,,,,,,,,,,,,,,,,,,,,,,,,,,,,,,,,,,,,,,,,,,,,,,,,,,,,,,,
,,,,space,0.518,space,0.1508,space,0.1495,space,0.1282,space,2.4389,space,0.4929,3,1.4021,1,3.1603,3,12.3878,2,3.7376,2,1.3348,2,0,2,0,1,R_21BWPLE20uoyM7G,1,2024-03-16_02h03.39.196,interaction task,2021.2.3,Win32,60.24096386,,,,,,,,,,,,,,,,,,,,,,,,,,,,,,,,,,,,,,,,,,,,,,,,,,,,,,,,,,,,,,,
,,,,,,,,,,,,,,,,,,,,,,,,,,,,,,,R_21BWPLE20uoyM7G,1,2024-03-16_02h03.39.196,interaction task,2021.2.3,Win32,60.24096386,space,4.7684,"[""LeftButton_2""]",-0.290625,-0.325,1,0,0,LeftButton_2,0,0,0,0,1,LeftButton_2,9dot2.png,Smaller,Greater,,,,,,,,,,,,,,,,,,,,,,,,,,,,,,,,,,,,,,,,,,,,,
,,,,,,,,,,,,,,,,,,,,,,,,,,,,,,,R_21BWPLE20uoyM7G,1,2024-03-16_02h03.39.196,interaction task,2021.2.3,Win32,60.24096386,,,"[""RightButton_2""]",0.30625,-0.337963019,1,0,0,RightButton_2,0,1,1,1,1,LeftButton_2,11dot1.png,Greater,Smaller,,,,,,,,,,,,,,,,,,,,,,,,,,,,,,,,,,,,,,,,,,,,,
,,,,,,,,,,,,,,,,,,,,,,,,,,,,,,,R_21BWPLE20uoyM7G,1,2024-03-16_02h03.39.196,interaction task,2021.2.3,Win32,60.24096386,,,"[""RightButton_2""]",0.308333397,-0.275,1,0,0,RightButton_2,0,2,2,2,1,RightButton_2,9dot1.png,Greater,Smaller,,,,,,,,,,,,,,,,,,,,,,,,,,,,,,,,,,,,,,,,,,,,,
,,,,,,,,,,,,,,,,,,,,,,,,,,,,,,,R_21BWPLE20uoyM7G,1,2024-03-16_02h03.39.196,interaction task,2021.2.3,Win32,60.24096386,,,,,,,,,,,,,,,,,Greater,Smaller,0.4,-0.300520802,-0.529629686,1,0,0,LeftButton,"[""LeftButton""]",10,14.4578,space,8.3661,,,,,,,,,,,,,,0,0,0,0,1,2,only_sub_right.png,0,RandomDot18.png,No answer,21,,,,,,,,,
,,,,,,,,,,,,,,,,,,,,,,,,,,,,,,,R_21BWPLE20uoyM7G,1,2024-03-16_02h03.39.196,interaction task,2021.2.3,Win32,60.24096386,,,,,,,,,,,,,,,,,Greater,Smaller,,-0.263541651,-0.499074131,1,0,0,LeftButton,"[""LeftButton""]",12,5.7022,space,8.9667,,,,,,,,,,,,,,0,1,1,1,1,2,only_sub_right.png,0,RandomDot33.png,No answer,21,,,,,,,,,
,,,,,,,,,,,,,,,,,,,,,,,,,,,,,,,R_21BWPLE20uoyM7G,1,2024-03-16_02h03.39.196,interaction task,2021.2.3,Win32,60.24096386,,,,,,,,,,,,,,,,,Smaller,Greater,,0.271354198,-0.544444444,1,0,0,RightButton,"[""RightButton""]",,,,,,,,,,,,,79.35606061,7.713,space,19.90740901,12.3965,0,2,2,7,1,3,only_sub_wrong.png,3,RandomDot18.png,No answer,21,3.4345,,,,,,,,
,,,,,,,,,,,,,,,,,,,,,,,,,,,,,,,R_21BWPLE20uoyM7G,1,2024-03-16_02h03.39.196,interaction task,2021.2.3,Win32,60.24096386,,,,,,,,,,,,,,,,,Smaller,Greater,,0.296354198,-0.495370483,1,0,0,RightButton,"[""RightButton""]",,,,,2.091145992,11.8557,space,,,,,,,,,,,0,3,3,17,1,2,only_sub_right.png,1,RandomDot38.png,No answer,19,,1.6762,,,,,,,
,,,,,,,,,,,,,,,,,,,,,,,,,,,,,,,R_21BWPLE20uoyM7G,1,2024-03-16_02h03.39.196,interaction task,2021.2.3,Win32,60.24096386,,,,,,,,,,,,,,,,,Greater,Smaller,,-0.292708302,-0.512963019,1,0,0,LeftButton,"[""LeftButton""]",31,7.4664,space,2.6907,,,,,,,,,,,,,,0,4,4,13,1,3,only_sub_wrong.png,0,RandomDot5.png,No answer,20,,,,,,,,,
,,,,,,,,,,,,,,,,,,,,,,,,,,,,,,,R_21BWPLE20uoyM7G,1,2024-03-16_02h03.39.196,interaction task,2021.2.3,Win32,60.24096386,,,,,,,,,,,,,,,,,Smaller,Greater,,0.300520897,-0.494444444,1,0,0,RightButton,"[""RightButton""]",,,,,2.502604485,7.2679,space,,,,,,,,,,,0,5,5,23,1,2,only_sub_right.png,1,RandomDot38.png,No answer,19,,4.3735,,,,,,,
,,,,,,,,,,,,,,,,,,,,,,,,,,,,,,,R_21BWPLE20uoyM7G,1,2024-03-16_02h03.39.196,interaction task,2021.2.3,Win32,60.24096386,,,,,,,,,,,,,,,,,Greater,Smaller,,-0.325520802,-0.524074131,1,0,0,LeftButton,"[""LeftButton""]",,,,,,,,,,,,,69.72853535,1.2357,space,18.90782828,2.0859,0,6,6,25,1,3,only_sub_wrong.png,3,RandomDot20.png,No answer,19,2.2999,,,,,,,,
,,,,,,,,,,,,,,,,,,,,,,,,,,,,,,,R_21BWPLE20uoyM7G,1,2024-03-16_02h03.39.196,interaction task,2021.2.3,Win32,60.24096386,,,,,,,,,,,,,,,,,Smaller,Greater,,-0.302604151,-0.519444444,1,0,0,LeftButton,"[""LeftButton""]",,,,,,,,,,,,,70.35984848,1.9326,space,12.22643419,3.2617,0,7,7,35,1,3,only_sub_wrong.png,3,RandomDot36.png,No answer,21,1.3844,,,,,,,,
,,,,,,,,,,,,,,,,,,,,,,,,,,,,,,,R_21BWPLE20uoyM7G,1,2024-03-16_02h03.39.196,interaction task,2021.2.3,Win32,60.24096386,,,,,,,,,,,,,,,,,Smaller,Greater,,0.261458397,-0.503703817,1,0,0,RightButton,"[""RightButton""]",,,,,,,,0,6.2836,space,0,17.2496,,,,,,0,8,8,10,1,1,both_wrong.png,2,RandomDot7.png,No answer,21,,,1.4915,,,,,,
,,,,,,,,,,,,,,,,,,,,,,,,,,,,,,,R_21BWPLE20uoyM7G,1,2024-03-16_02h03.39.196,interaction task,2021.2.3,Win32,60.24096386,,,,,,,,,,,,,,,,,Greater,Smaller,,0.26875,-0.524074131,1,0,0,RightButton,"[""RightButton""]",8,8.6698,space,2.0965,,,,,,,,,,,,,,0,9,9,47,1,1,both_wrong.png,0,RandomDot12.png,No answer,21,,,,,,,,,
,,,,,,,,,,,,,,,,,,,,,,,,,,,,,,,R_21BWPLE20uoyM7G,1,2024-03-16_02h03.39.196,interaction task,2021.2.3,Win32,60.24096386,,,,,,,,,,,,,,,,,Greater,Smaller,,-0.2546875,-0.495370483,1,0,0,LeftButton,"[""LeftButton""]",,,,,,,,,,,,,,,,,,0,10,10,3,1,0,both_right.png,1,RandomDot12.png,No answer,21,,,,,,,,,
,,,,,,,,,,,,,,,,,,,,,,,,,,,,,,,R_21BWPLE20uoyM7G,1,2024-03-16_02h03.39.196,interaction task,2021.2.3,Win32,60.24096386,,,,,,,,,,,,,,,,,Greater,Smaller,,0.2671875,-0.521296353,1,0,0,RightButton,"[""RightButton""]",,,,,,,,,,,,,,,,,,0,11,11,49,1,5,both_right.png,10,RandomDot42.png,RightButton,20,,,,,,,,,
,,,,,,,,,,,,,,,,,,,,,,,,,,,,,,,R_21BWPLE20uoyM7G,1,2024-03-16_02h03.39.196,interaction task,2021.2.3,Win32,60.24096386,,,,,,,,,,,,,,,,,Greater,Smaller,,-0.300520802,-0.525,1,0,0,LeftButton,"[""LeftButton""]",0,3.8836,space,1.7321,,,,,,,,,,,,,,0,12,12,37,1,2,only_sub_right.png,0,RandomDot18.png,No answer,21,,,,,,,,,
,,,,,,,,,,,,,,,,,,,,,,,,,,,,,,,R_21BWPLE20uoyM7G,1,2024-03-16_02h03.39.196,interaction task,2021.2.3,Win32,60.24096386,,,,,,,,,,,,,,,,,Smaller,Greater,,-0.361458302,-0.487963019,1,0,0,LeftButton,"[""LeftButton""]",,,,,,,,,,,,,90.61448454,5.0242,space,10.59554033,8.5649,0,13,13,8,1,3,only_sub_wrong.png,3,RandomDot36.png,No answer,21,2.6505,,,,,,,,
,,,,,,,,,,,,,,,,,,,,,,,,,,,,,,,R_21BWPLE20uoyM7G,1,2024-03-16_02h03.39.196,interaction task,2021.2.3,Win32,60.24096386,,,,,,,,,,,,,,,,,Greater,Smaller,,-0.3390625,-0.524074131,1,0,0,LeftButton,"[""LeftButton""]",,,,,,,,,,,,,,,,,,0,14,14,4,1,0,both_right.png,1,RandomDot30.png,No answer,20,,,,,,,,,
,,,,,,,,,,,,,,,,,,,,,,,,,,,,,,,R_21BWPLE20uoyM7G,1,2024-03-16_02h03.39.196,interaction task,2021.2.3,Win32,60.24096386,,,,,,,,,,,,,,,,,Smaller,Greater,,0.281770897,-0.537963019,1,0,0,RightButton,"[""RightButton""]",,,,,,,,,,,,,88.45749479,2.1973,space,13.0155756,3.1634,0,15,15,24,1,3,only_sub_wrong.png,3,RandomDot18.png,No answer,21,0.5563,,,,,,,,
,,,,,,,,,,,,,,,,,,,,,,,,,,,,,,,R_21BWPLE20uoyM7G,1,2024-03-16_02h03.39.196,interaction task,2021.2.3,Win32,60.24096386,,,,,,,,,,,,,,,,,Smaller,Greater,,-0.305208302,-0.486111111,1,0,0,LeftButton,"[""LeftButton""]",,,,,,,,,,,,,,,,,,0,16,16,5,1,0,both_right.png,1,RandomDot3.png,No answer,19,,,,,,,,,
,,,,,,,,,,,,,,,,,,,,,,,,,,,,,,,R_21BWPLE20uoyM7G,1,2024-03-16_02h03.39.196,interaction task,2021.2.3,Win32,60.24096386,,,,,,,,,,,,,,,,,Greater,Smaller,,-0.284895802,-0.524074131,1,0,0,LeftButton,"[""LeftButton""]",,,,,,,,0,5.4665,space,0,8.9164,,,,,,0,17,17,32,1,2,only_sub_right.png,2,RandomDot33.png,No answer,20,,,2.2863,,,,,,
,,,,,,,,,,,,,,,,,,,,,,,,,,,,,,,R_21BWPLE20uoyM7G,1,2024-03-16_02h03.39.196,interaction task,2021.2.3,Win32,60.24096386,,,,,,,,,,,,,,,,,Greater,Smaller,,0.3,-0.51203715,1,0,0,RightButton,"[""RightButton""]",,,,,,,,,,,,,77.14646465,4.2039,space,8.912040248,6.6352,0,18,18,6,1,3,only_sub_wrong.png,3,RandomDot20.png,No answer,19,1.5239,,,,,,,,
,,,,,,,,,,,,,,,,,,,,,,,,,,,,,,,R_21BWPLE20uoyM7G,1,2024-03-16_02h03.39.196,interaction task,2021.2.3,Win32,60.24096386,,,,,,,,,,,,,,,,,Greater,Smaller,,-0.315625,-0.498148261,1,0,0,LeftButton,"[""LeftButton""]",0,5.967,space,2.2103,,,,,,,,,,,,,,0,19,19,36,1,2,only_sub_right.png,0,RandomDot16.png,No answer,20,,,,,,,,,
,,,,,,,,,,,,,,,,,,,,,,,,,,,,,,,R_21BWPLE20uoyM7G,1,2024-03-16_02h03.39.196,interaction task,2021.2.3,Win32,60.24096386,,,,,,,,,,,,,,,,,Smaller,Greater,,0.301041698,-0.542592706,1,0,0,RightButton,"[""RightButton""]",,,,,,,,,,,,,87.93140373,2.2417,space,12.43686869,3.45,0,20,20,26,1,3,only_sub_wrong.png,3,RandomDot9.png,No answer,19,0.5427,,,,,,,,
,,,,,,,,,,,,,,,,,,,,,,,,,,,,,,,R_21BWPLE20uoyM7G,1,2024-03-16_02h03.39.196,interaction task,2021.2.3,Win32,60.24096386,,,,,,,,,,,,,,,,,Greater,Smaller,,-0.3515625,-0.504629686,1,0,0,LeftButton,"[""LeftButton""]",,,,,,,,,,,,,75.04209075,3.118,space,12.80513629,4.1157,0,21,21,34,1,3,only_sub_wrong.png,3,RandomDot17.png,No answer,19,0.5974,,,,,,,,
,,,,,,,,,,,,,,,,,,,,,,,,,,,,,,,R_21BWPLE20uoyM7G,1,2024-03-16_02h03.39.196,interaction task,2021.2.3,Win32,60.24096386,,,,,,,,,,,,,,,,,Greater,Smaller,,-0.3,-0.533333333,1,0,0,LeftButton,"[""LeftButton""]",,,,,,,,51,11.8155,space,69,10.2279,,,,,,0,22,22,42,1,3,only_sub_wrong.png,2,RandomDot13.png,No answer,21,,,3.2364,,,,,,
,,,,,,,,,,,,,,,,,,,,,,,,,,,,,,,R_21BWPLE20uoyM7G,1,2024-03-16_02h03.39.196,interaction task,2021.2.3,Win32,60.24096386,,,,,,,,,,,,,,,,,Greater,Smaller,,0.305208397,-0.522222222,1,0,0,RightButton,"[""RightButton""]",0,3.6043,space,1.2026,,,,,,,,,,,,,,0,23,23,45,1,1,both_wrong.png,0,RandomDot32.png,No answer,19,,,,,,,,,
,,,,,,,,,,,,,,,,,,,,,,,,,,,,,,,R_21BWPLE20uoyM7G,1,2024-03-16_02h03.39.196,interaction task,2021.2.3,Win32,60.24096386,,,,,,,,,,,,,,,,,Greater,Smaller,,-0.322395802,-0.5,1,0,0,LeftButton,"[""LeftButton""]",0,3.0653,space,0.791,,,,,,,,,,,,,,0,24,24,46,1,1,both_wrong.png,0,RandomDot10.png,No answer,20,,,,,,,,,
,,,,,,,,,,,,,,,,,,,,,,,,,,,,,,,R_21BWPLE20uoyM7G,1,2024-03-16_02h03.39.196,interaction task,2021.2.3,Win32,60.24096386,,,,,,,,,,,,,,,,,Greater,Smaller,,0.274479198,-0.510185242,1,0,0,RightButton,"[""RightButton""]",,,,,,,,0,10.7285,space,0,12.6978,,,,,,0,25,25,9,1,1,both_wrong.png,2,RandomDot16.png,No answer,20,,,1.7027,,,,,,
,,,,,,,,,,,,,,,,,,,,,,,,,,,,,,,R_21BWPLE20uoyM7G,1,2024-03-16_02h03.39.196,interaction task,2021.2.3,Win32,60.24096386,,,,,,,,,,,,,,,,,Smaller,Greater,,-0.343229151,-0.476851908,1,0,0,LeftButton,"[""LeftButton""]",,,,,1,7.4986,space,,,,,,,,,,,0,26,26,21,1,2,only_sub_right.png,1,RandomDot27.png,No answer,21,,2.4824,,,,,,,
,,,,,,,,,,,,,,,,,,,,,,,,,,,,,,,R_21BWPLE20uoyM7G,1,2024-03-16_02h03.39.196,interaction task,2021.2.3,Win32,60.24096386,,,,,,,,,,,,,,,,,Smaller,Greater,,0.278125,-0.499074131,1,0,0,RightButton,"[""RightButton""]",,,,,,,,,,,,,,,,,,0,27,27,39,1,0,both_right.png,0,RandomDot27.png,No answer,19,,,,,,,,,
,,,,,,,,,,,,,,,,,,,,,,,,,,,,,,,R_21BWPLE20uoyM7G,1,2024-03-16_02h03.39.196,interaction task,2021.2.3,Win32,60.24096386,,,,,,,,,,,,,,,,,Greater,Smaller,,0.180729198,0.01851849,0,0,0,,[],,,,,,,,,,,,,,,,,,0,28,28,30,1,2,only_sub_right.png,2,RandomDot21.png,No answer,21,,,,90,,,,,
,,,,,,,,,,,,,,,,,,,,,,,,,,,,,,,R_21BWPLE20uoyM7G,1,2024-03-16_02h03.39.196,interaction task,2021.2.3,Win32,60.24096386,,,,,,,,,,,,,,,,,Greater,Smaller,,-0.233333302,-0.496296353,1,0,0,LeftButton,"[""LeftButton""]",0,3.1383,space,1.1875,,,,,,,,,,,,,,0,29,29,38,1,2,only_sub_right.png,0,RandomDot21.png,No answer,19,,,,,,,,,
,,,,,,,,,,,,,,,,,,,,,,,,,,,,,,,R_21BWPLE20uoyM7G,1,2024-03-16_02h03.39.196,interaction task,2021.2.3,Win32,60.24096386,,,,,,,,,,,,,,,,,Greater,Smaller,,-0.280208302,-0.529629686,1,0,0,LeftButton,"[""LeftButton""]",,,,,,,,,,,,,99.82113116,2.7664,space,0,6.0094,0,30,30,29,1,1,both_wrong.png,3,RandomDot6.png,No answer,21,1.3687,,,,,,,,
,,,,,,,,,,,,,,,,,,,,,,,,,,,,,,,R_21BWPLE20uoyM7G,1,2024-03-16_02h03.39.196,interaction task,2021.2.3,Win32,60.24096386,,,,,,,,,,,,,,,,,Smaller,Greater,,0.228645897,-0.528703817,1,0,0,RightButton,"[""RightButton""]",,,,,0.0234375,7.4005,space,,,,,,,,,,,0,31,31,15,1,2,only_sub_right.png,1,RandomDot14.png,No answer,20,,3.3245,,,,,,,
,,,,,,,,,,,,,,,,,,,,,,,,,,,,,,,R_21BWPLE20uoyM7G,1,2024-03-16_02h03.39.196,interaction task,2021.2.3,Win32,60.24096386,,,,,,,,,,,,,,,,,Smaller,Greater,,0.275520897,-0.494444444,1,0,0,RightButton,"[""RightButton""]",,,,,,,,,,,,,98.87416146,10.0235,space,0,11.1307,0,32,32,28,1,1,both_wrong.png,3,RandomDot29.png,No answer,19,0.9767,,,,,,,,
,,,,,,,,,,,,,,,,,,,,,,,,,,,,,,,R_21BWPLE20uoyM7G,1,2024-03-16_02h03.39.196,interaction task,2021.2.3,Win32,60.24096386,,,,,,,,,,,,,,,,,Greater,Smaller,,0.242708397,-0.508333333,1,0,0,RightButton,"[""RightButton""]",,,,,,,,0,4.1633,space,0,6.1221,,,,,,0,33,33,11,1,1,both_wrong.png,2,RandomDot24.png,No answer,19,,,1.306,,,,,,
,,,,,,,,,,,,,,,,,,,,,,,,,,,,,,,R_21BWPLE20uoyM7G,1,2024-03-16_02h03.39.196,interaction task,2021.2.3,Win32,60.24096386,,,,,,,,,,,,,,,,,Greater,Smaller,,0.319270897,-0.466666667,1,0,0,RightButton,"[""RightButton""]",,,,,,,,,,,,,,,,,,0,34,34,40,1,0,both_right.png,0,RandomDot22.png,No answer,21,,,,,,,,,
,,,,,,,,,,,,,,,,,,,,,,,,,,,,,,,R_21BWPLE20uoyM7G,1,2024-03-16_02h03.39.196,interaction task,2021.2.3,Win32,60.24096386,,,,,,,,,,,,,,,,,Smaller,Greater,,0.2890625,-0.533333333,1,0,0,RightButton,"[""RightButton""]",,,,,,,,0,3.8312,space,0,6.1843,,,,,,0,35,35,19,1,2,only_sub_right.png,2,RandomDot34.png,No answer,20,,,1.5674,,,,,,
,,,,,,,,,,,,,,,,,,,,,,,,,,,,,,,R_21BWPLE20uoyM7G,1,2024-03-16_02h03.39.196,interaction task,2021.2.3,Win32,60.24096386,,,,,,,,,,,,,,,,,Greater,Smaller,,0.302083397,-0.544444444,1,0,0,RightButton,"[""RightButton""]",,,,,0.010416746,3.0729,space,,,,,,,,,,,0,36,36,16,1,2,only_sub_right.png,1,RandomDot6.png,No answer,21,,10.2997,,,,,,,
,,,,,,,,,,,,,,,,,,,,,,,,,,,,,,,R_21BWPLE20uoyM7G,1,2024-03-16_02h03.39.196,interaction task,2021.2.3,Win32,60.24096386,,,,,,,,,,,,,,,,,Greater,Smaller,,0.346354198,-0.500926039,1,0,0,RightButton,"[""RightButton""]",0,6.4381,space,5.4992,,,,,,,,,,,,,,0,37,37,2,1,2,only_sub_right.png,0,RandomDot26.png,No answer,19,,,,,,,,,
,,,,,,,,,,,,,,,,,,,,,,,,,,,,,,,R_21BWPLE20uoyM7G,1,2024-03-16_02h03.39.196,interaction task,2021.2.3,Win32,60.24096386,,,,,,,,,,,,,,,,,Greater,Smaller,,-0.318229151,-0.511111111,1,0,0,LeftButton,"[""LeftButton""]",,,,,,,,0,4.7499,space,0,6.555,,,,,,0,38,38,20,1,2,only_sub_right.png,2,RandomDot20.png,No answer,20,,,1.4168,,,,,,
,,,,,,,,,,,,,,,,,,,,,,,,,,,,,,,R_21BWPLE20uoyM7G,1,2024-03-16_02h03.39.196,interaction task,2021.2.3,Win32,60.24096386,,,,,,,,,,,,,,,,,Greater,Smaller,,0.2921875,-0.510185242,1,0,0,RightButton,"[""RightButton""]",,,,,,,,0,4.9761,space,0,6.14,,,,,,0,39,39,31,1,2,only_sub_right.png,2,RandomDot18.png,No answer,19,,,1.0966,,,,,,
,,,,,,,,,,,,,,,,,,,,,,,,,,,,,,,R_21BWPLE20uoyM7G,1,2024-03-16_02h03.39.196,interaction task,2021.2.3,Win32,60.24096386,,,,,,,,,,,,,,,,,Greater,Smaller,,-0.36875,-0.459259372,1,0,0,LeftButton,"[""LeftButton""]",,,,,,,,0,2.4076,space,0,3.6776,,,,,,0,40,40,18,1,2,only_sub_right.png,2,RandomDot33.png,No answer,20,,,1.2873,,,,,,
,,,,,,,,,,,,,,,,,,,,,,,,,,,,,,,R_21BWPLE20uoyM7G,1,2024-03-16_02h03.39.196,interaction task,2021.2.3,Win32,60.24096386,,,,,,,,,,,,,,,,,Smaller,Greater,,0.331770897,-0.522222222,1,0,0,RightButton,"[""RightButton""]",71,3.7728,space,1.2328,,,,,,,,,,,,,,0,41,41,14,1,3,only_sub_wrong.png,0,RandomDot25.png,No answer,21,,,,,,,,,
,,,,,,,,,,,,,,,,,,,,,,,,,,,,,,,R_21BWPLE20uoyM7G,1,2024-03-16_02h03.39.196,interaction task,2021.2.3,Win32,60.24096386,,,,,,,,,,,,,,,,,Smaller,Greater,,0.31875,-0.51203715,1,0,0,RightButton,"[""RightButton""]",,,,,,,,,,,,,99.71590909,4.1483,space,0.231484693,5.5313,0,42,42,27,1,1,both_wrong.png,3,RandomDot23.png,No answer,20,1.799,,,,,,,,
,,,,,,,,,,,,,,,,,,,,,,,,,,,,,,,R_21BWPLE20uoyM7G,1,2024-03-16_02h03.39.196,interaction task,2021.2.3,Win32,60.24096386,,,,,,,,,,,,,,,,,Greater,Smaller,,0.319270897,-0.504629686,1,0,0,RightButton,"[""RightButton""]",,,,,,,,,,,,,90.9301411,3.2017,space,3.966752447,4.5561,0,43,43,33,1,3,only_sub_wrong.png,3,RandomDot20.png,No answer,19,1.2661,,,,,,,,
,,,,,,,,,,,,,,,,,,,,,,,,,,,,,,,R_21BWPLE20uoyM7G,1,2024-03-16_02h03.39.196,interaction task,2021.2.3,Win32,60.24096386,,,,,,,,,,,,,,,,,Smaller,Greater,,0.30625,-0.535185242,1,0,0,RightButton,"[""RightButton""]",77,5.8254,space,0.9776,,,,,,,,,,,,,,0,44,44,12,1,3,only_sub_wrong.png,0,RandomDot9.png,No answer,19,,,,,,,,,
,,,,,,,,,,,,,,,,,,,,,,,,,,,,,,,R_21BWPLE20uoyM7G,1,2024-03-16_02h03.39.196,interaction task,2021.2.3,Win32,60.24096386,,,,,,,,,,,,,,,,,Smaller,Greater,,0.293229198,-0.475926039,1,0,0,RightButton,"[""RightButton""]",,,,,,,,,,,,,,,,,,0,45,45,48,1,4,both_right.png,10,RandomDot41.png,RightButton,5,,,,,,,,,
,,,,,,,,,,,,,,,,,,,,,,,,,,,,,,,R_21BWPLE20uoyM7G,1,2024-03-16_02h03.39.196,interaction task,2021.2.3,Win32,60.24096386,,,,,,,,,,,,,,,,,Greater,Smaller,,-0.294791651,-0.496296353,1,0,0,LeftButton,"[""LeftButton""]",,,,,0.0234375,4.5533,space,,,,,,,,,,,0,46,46,22,1,2,only_sub_right.png,1,RandomDot4.png,No answer,19,,2.2662,,,,,,,
,,,,,,,,,,,,,,,,,,,,,,,,,,,,,,,R_21BWPLE20uoyM7G,1,2024-03-16_02h03.39.196,interaction task,2021.2.3,Win32,60.24096386,,,,,,,,,,,,,,,,,Greater,Smaller,,-0.29375,-0.526851908,1,0,0,LeftButton,"[""LeftButton""]",,,,,,,,92,5.2008,space,44,8.5154,,,,,,0,47,47,44,1,3,only_sub_wrong.png,2,RandomDot1.png,No answer,20,,,3.7322,,,,,,
,,,,,,,,,,,,,,,,,,,,,,,,,,,,,,,R_21BWPLE20uoyM7G,1,2024-03-16_02h03.39.196,interaction task,2021.2.3,Win32,60.24096386,,,,,,,,,,,,,,,,,Greater,Smaller,,-0.271875,-0.482407464,1,0,0,LeftButton,"[""LeftButton""]",,,,,,,,,,,,,,,,,,0,48,48,41,1,0,both_right.png,0,RandomDot36.png,No answer,21,,,,,,,,,
,,,,,,,,,,,,,,,,,,,,,,,,,,,,,,,R_21BWPLE20uoyM7G,1,2024-03-16_02h03.39.196,interaction task,2021.2.3,Win32,60.24096386,,,,,,,,,,,,,,,,,Smaller,Greater,,0.309375,-0.51203715,1,0,0,RightButton,"[""RightButton""]",,,,,,,,85,2.8296,space,54,5.552,,,,,,0,49,49,43,1,3,only_sub_wrong.png,2,RandomDot22.png,No answer,19,,,1.2551,,,,,,
,,,,,,,,,,,,,,,,,,,,,,,,,,,,,,,R_21BWPLE20uoyM7G,1,2024-03-16_02h03.39.196,interaction task,2021.2.3,Win32,60.24096386,,,,,,,,,,,,,,,,,Smaller,Greater,,0.341666698,-0.493518575,1,0,0,RightButton,"[""RightButton""]",,,,,,,,,,,,,98.87416146,3.3126,space,2.914565501,4.3655,,,,,,1,both_wrong.png,3,RandomDot29.png,No answer,19,0.8665,,,,0,0,0,0,1
