choose_trial,key_resp.keys,key_resp.rt,key_resp_4.keys,key_resp_4.rt,session_trait,slider_face_judge.response,slider_face_judge.rt,key_resp_3.keys,key_resp_3.rt,face_loop.thisRepN,face_loop.thisTrialN,face_loop.thisN,face_loop.thisIndex,face_loop.ran,face_serial,image_name,isCheck,answer,check_question,participant,session,date,expName,psychopyVersion,OS,frameRate,SONAid,session.thisRepN,session.thisTrialN,session.thisN,session.thisIndex,session.ran,session_serial,slider_judge_img
"[0,1,2,3,4,5,6,7,8,9,10,11,12,13,14,15,16,17,18,19,20,21,22,23,24,25,26,27,28,29,30,31,32,33,34,35,36,37,38,39,40,41,42,43,44,45,46,47,48,49,55,52,53]",space,0.957,space,0.614,trustworthy,4.130434783,3.145,space,0.45,0,0,0,16,1,17,image/17.jpg,0,0,,R_23fCGTf5Bw4sfo3,2,2024-05-14_14h38.43.566,face trait task,2021.2.3,MacIntel,30.3030303,121574,,,,,,,
,,,,,,4.404347826,2.482,space,0.597,0,1,1,25,1,26,image/26.jpg,0,0,,R_23fCGTf5Bw4sfo3,2,2024-05-14_14h38.43.566,face trait task,2021.2.3,MacIntel,30.3030303,121574,,,,,,,
,,,,,,2.852173913,1.91,space,0.421,0,2,2,39,1,40,image/40.jpg,0,0,,R_23fCGTf5Bw4sfo3,2,2024-05-14_14h38.43.566,face trait task,2021.2.3,MacIntel,30.3030303,121574,,,,,,,
,,,,,,2.741304348,1.492,space,0.131,0,3,3,42,1,43,image/43.jpg,0,0,,R_23fCGTf5Bw4sfo3,2,2024-05-14_14h38.43.566,face trait task,2021.2.3,MacIntel,30.3030303,121574,,,,,,,
,,,,,,2.760869565,1.993,space,1.109,0,4,4,49,1,50,image/50.jpg,0,0,,R_23fCGTf5Bw4sfo3,2,2024-05-14_14h38.43.566,face trait task,2021.2.3,MacIntel,30.3030303,121574,,,,,,,
,,,,,,1.932608696,2.796,space,0.141,0,5,5,38,1,39,image/39.jpg,0,0,,R_23fCGTf5Bw4sfo3,2,2024-05-14_14h38.43.566,face trait task,2021.2.3,MacIntel,30.3030303,121574,,,,,,,
,,,,,,2.519565217,1.633,space,1.185,0,6,6,46,1,47,image/47.jpg,0,0,,R_23fCGTf5Bw4sfo3,2,2024-05-14_14h38.43.566,face trait task,2021.2.3,MacIntel,30.3030303,121574,,,,,,,
,,,,,,2.389130435,1.721,space,0.331,0,7,7,30,1,31,image/31.jpg,0,0,,R_23fCGTf5Bw4sfo3,2,2024-05-14_14h38.43.566,face trait task,2021.2.3,MacIntel,30.3030303,121574,,,,,,,
,,,,,,3.739130435,2.008,space,0.368,0,8,8,5,1,6,image/6.jpg,0,0,,R_23fCGTf5Bw4sfo3,2,2024-05-14_14h38.43.566,face trait task,2021.2.3,MacIntel,30.3030303,121574,,,,,,,
,,,,,,3.563043478,1.469,space,0.296,0,9,9,34,1,35,image/35.jpg,0,0,,R_23fCGTf5Bw4sfo3,2,2024-05-14_14h38.43.566,face trait task,2021.2.3,MacIntel,30.3030303,121574,,,,,,,
,,,,,,4.019565217,2.166,space,0.274,0,10,10,24,1,25,image/25.jpg,0,0,,R_23fCGTf5Bw4sfo3,2,2024-05-14_14h38.43.566,face trait task,2021.2.3,MacIntel,30.3030303,121574,,,,,,,
,,,,,,1.873913043,2.027,space,0.353,0,11,11,36,1,37,image/37.jpg,0,0,,R_23fCGTf5Bw4sfo3,2,2024-05-14_14h38.43.566,face trait task,2021.2.3,MacIntel,30.3030303,121574,,,,,,,
,,,,,,4.032608696,2.357,space,0.175,0,12,12,41,1,42,image/42.jpg,0,0,,R_23fCGTf5Bw4sfo3,2,2024-05-14_14h38.43.566,face trait task,2021.2.3,MacIntel,30.3030303,121574,,,,,,,
,,,,,,4.032608696,0.975,space,0.109,0,13,13,17,1,18,image/18.jpg,0,0,,R_23fCGTf5Bw4sfo3,2,2024-05-14_14h38.43.566,face trait task,2021.2.3,MacIntel,30.3030303,121574,,,,,,,
,,,,,,4.058695652,1.186,space,0.865,0,14,14,35,1,36,image/36.jpg,0,0,,R_23fCGTf5Bw4sfo3,2,2024-05-14_14h38.43.566,face trait task,2021.2.3,MacIntel,30.3030303,121574,,,,,,,
,,,,,,3.315217391,1.616,space,0.353,0,15,15,18,1,19,image/19.jpg,0,0,,R_23fCGTf5Bw4sfo3,2,2024-05-14_14h38.43.566,face trait task,2021.2.3,MacIntel,30.3030303,121574,,,,,,,
,,,,,,3.32173913,1.171,space,0.357,0,16,16,23,1,24,image/24.jpg,0,0,,R_23fCGTf5Bw4sfo3,2,2024-05-14_14h38.43.566,face trait task,2021.2.3,MacIntel,30.3030303,121574,,,,,,,
,,,,,,4.313043478,3.922,space,2.492,0,17,17,6,1,7,image/7.jpg,0,0,,R_23fCGTf5Bw4sfo3,2,2024-05-14_14h38.43.566,face trait task,2021.2.3,MacIntel,30.3030303,121574,,,,,,,
,,,,,,2.57173913,2.702,space,0.457,0,18,18,40,1,41,image/41.jpg,0,0,,R_23fCGTf5Bw4sfo3,2,2024-05-14_14h38.43.566,face trait task,2021.2.3,MacIntel,30.3030303,121574,,,,,,,
,,,,,,2.493478261,2.508,space,0.421,0,19,19,47,1,48,image/48.jpg,0,0,,R_23fCGTf5Bw4sfo3,2,2024-05-14_14h38.43.566,face trait task,2021.2.3,MacIntel,30.3030303,121574,,,,,,,
,,,,,,3.413043478,1.867,space,0.245,0,20,20,7,1,8,image/8.jpg,0,0,,R_23fCGTf5Bw4sfo3,2,2024-05-14_14h38.43.566,face trait task,2021.2.3,MacIntel,30.3030303,121574,,,,,,,
,,,,,,3.413043478,1.011,space,0.322,0,21,21,8,1,9,image/9.jpg,0,0,,R_23fCGTf5Bw4sfo3,2,2024-05-14_14h38.43.566,face trait task,2021.2.3,MacIntel,30.3030303,121574,,,,,,,
,,,,,,2.513043478,2.212,space,0.075,0,22,22,14,1,15,image/15.jpg,0,0,,R_23fCGTf5Bw4sfo3,2,2024-05-14_14h38.43.566,face trait task,2021.2.3,MacIntel,30.3030303,121574,,,,,,,
,,,,,,2.447826087,1.901,space,0.377,0,23,23,44,1,45,image/45.jpg,0,0,,R_23fCGTf5Bw4sfo3,2,2024-05-14_14h38.43.566,face trait task,2021.2.3,MacIntel,30.3030303,121574,,,,,,,
,,,,,,2.989130435,3.607,space,0.212,0,24,24,1,1,2,image/2.jpg,0,0,,R_23fCGTf5Bw4sfo3,2,2024-05-14_14h38.43.566,face trait task,2021.2.3,MacIntel,30.3030303,121574,,,,,,,
,,,,,,2.447826087,2.365,space,0.845,0,25,25,37,1,38,image/38.jpg,0,0,,R_23fCGTf5Bw4sfo3,2,2024-05-14_14h38.43.566,face trait task,2021.2.3,MacIntel,30.3030303,121574,,,,,,,
,,,,,,2.963043478,3.803,space,1.768,0,26,26,33,1,34,image/34.jpg,0,0,,R_23fCGTf5Bw4sfo3,2,2024-05-14_14h38.43.566,face trait task,2021.2.3,MacIntel,30.3030303,121574,,,,,,,
,,,,,,2.969565217,1.372,space,0.325,0,27,27,27,1,28,image/28.jpg,0,0,,R_23fCGTf5Bw4sfo3,2,2024-05-14_14h38.43.566,face trait task,2021.2.3,MacIntel,30.3030303,121574,,,,,,,
,,,,,,2.969565217,1.169,space,0.517,0,28,28,0,1,1,image/1.jpg,0,0,,R_23fCGTf5Bw4sfo3,2,2024-05-14_14h38.43.566,face trait task,2021.2.3,MacIntel,30.3030303,121574,,,,,,,
,,,,,,6.817391304,3.925,space,0.408,0,29,29,50,1,56,image/fill_img.png,1,7,Please move the slider all the way to the RIGHT to show that you are paying attention.,R_23fCGTf5Bw4sfo3,2,2024-05-14_14h38.43.566,face trait task,2021.2.3,MacIntel,30.3030303,121574,,,,,,,
,,,,,,1.084782609,6.134,space,3.855,0,30,30,52,1,54,image/fill_img.png,1,1,Please move the slider all the way to the LEFT to show that you are paying attention.,R_23fCGTf5Bw4sfo3,2,2024-05-14_14h38.43.566,face trait task,2021.2.3,MacIntel,30.3030303,121574,,,,,,,
,,,,,,2.532608696,3.259,space,0.322,0,31,31,21,1,22,image/22.jpg,0,0,,R_23fCGTf5Bw4sfo3,2,2024-05-14_14h38.43.566,face trait task,2021.2.3,MacIntel,30.3030303,121574,,,,,,,
,,,,,,3.002173913,2.374,space,0.127,0,32,32,11,1,12,image/12.jpg,0,0,,R_23fCGTf5Bw4sfo3,2,2024-05-14_14h38.43.566,face trait task,2021.2.3,MacIntel,30.3030303,121574,,,,,,,
,,,,,,2.467391304,2.53,space,0.976,0,33,33,19,1,20,image/20.jpg,0,0,,R_23fCGTf5Bw4sfo3,2,2024-05-14_14h38.43.566,face trait task,2021.2.3,MacIntel,30.3030303,121574,,,,,,,
,,,,,,2.506521739,1.205,space,1.275,0,34,34,4,1,5,image/5.jpg,0,0,,R_23fCGTf5Bw4sfo3,2,2024-05-14_14h38.43.566,face trait task,2021.2.3,MacIntel,30.3030303,121574,,,,,,,
,,,,,,2.506521739,1.121,space,0.354,0,35,35,28,1,29,image/29.jpg,0,0,,R_23fCGTf5Bw4sfo3,2,2024-05-14_14h38.43.566,face trait task,2021.2.3,MacIntel,30.3030303,121574,,,,,,,
,,,,,,3.158695652,1.641,space,0.725,0,36,36,12,1,13,image/13.jpg,0,0,,R_23fCGTf5Bw4sfo3,2,2024-05-14_14h38.43.566,face trait task,2021.2.3,MacIntel,30.3030303,121574,,,,,,,
,,,,,,3.17173913,1.087,space,0.593,0,37,37,29,1,30,image/30.jpg,0,0,,R_23fCGTf5Bw4sfo3,2,2024-05-14_14h38.43.566,face trait task,2021.2.3,MacIntel,30.3030303,121574,,,,,,,
,,,,,,3.341304348,1.118,space,0.456,0,38,38,20,1,21,image/21.jpg,0,0,,R_23fCGTf5Bw4sfo3,2,2024-05-14_14h38.43.566,face trait task,2021.2.3,MacIntel,30.3030303,121574,,,,,,,
,,,,,,2.486956522,1.604,space,0.412,0,39,39,15,1,16,image/16.jpg,0,0,,R_23fCGTf5Bw4sfo3,2,2024-05-14_14h38.43.566,face trait task,2021.2.3,MacIntel,30.3030303,121574,,,,,,,
,,,,,,2.030434783,2.044,space,0.384,0,40,40,22,1,23,image/23.jpg,0,0,,R_23fCGTf5Bw4sfo3,2,2024-05-14_14h38.43.566,face trait task,2021.2.3,MacIntel,30.3030303,121574,,,,,,,
,,,,,,2.552173913,2.369,space,0.428,0,41,41,31,1,32,image/32.jpg,0,0,,R_23fCGTf5Bw4sfo3,2,2024-05-14_14h38.43.566,face trait task,2021.2.3,MacIntel,30.3030303,121574,,,,,,,
,,,,,,2.982608696,2.813,space,0.094,0,42,42,10,1,11,image/11.jpg,0,0,,R_23fCGTf5Bw4sfo3,2,2024-05-14_14h38.43.566,face trait task,2021.2.3,MacIntel,30.3030303,121574,,,,,,,
,,,,,,2.441304348,2.653,space,0.494,0,43,43,9,1,10,image/10.jpg,0,0,,R_23fCGTf5Bw4sfo3,2,2024-05-14_14h38.43.566,face trait task,2021.2.3,MacIntel,30.3030303,121574,,,,,,,
,,,,,,3.569565217,2.713,space,0.321,0,44,44,2,1,3,image/3.jpg,0,0,,R_23fCGTf5Bw4sfo3,2,2024-05-14_14h38.43.566,face trait task,2021.2.3,MacIntel,30.3030303,121574,,,,,,,
,,,,,,2.513043478,2.062,space,0.475,0,45,45,26,1,27,image/27.jpg,0,0,,R_23fCGTf5Bw4sfo3,2,2024-05-14_14h38.43.566,face trait task,2021.2.3,MacIntel,30.3030303,121574,,,,,,,
,,,,,,2.513043478,0.992,space,1.17,0,46,46,13,1,14,image/14.jpg,0,0,,R_23fCGTf5Bw4sfo3,2,2024-05-14_14h38.43.566,face trait task,2021.2.3,MacIntel,30.3030303,121574,,,,,,,
,,,,,,2.513043478,0.545,space,0.736,0,47,47,45,1,46,image/46.jpg,0,0,,R_23fCGTf5Bw4sfo3,2,2024-05-14_14h38.43.566,face trait task,2021.2.3,MacIntel,30.3030303,121574,,,,,,,
,,,,,,1.67173913,1.584,space,0.428,0,48,48,32,1,33,image/33.jpg,0,0,,R_23fCGTf5Bw4sfo3,2,2024-05-14_14h38.43.566,face trait task,2021.2.3,MacIntel,30.3030303,121574,,,,,,,
,,,,,,1.019565217,2.919,space,0.387,0,49,49,51,1,53,image/fill_img.png,1,1,Please move the slider all the way to the LEFT to show that you are paying attention.,R_23fCGTf5Bw4sfo3,2,2024-05-14_14h38.43.566,face trait task,2021.2.3,MacIntel,30.3030303,121574,,,,,,,
,,,,,,3.093478261,2.342,space,0.376,0,50,50,43,1,44,image/44.jpg,0,0,,R_23fCGTf5Bw4sfo3,2,2024-05-14_14h38.43.566,face trait task,2021.2.3,MacIntel,30.3030303,121574,,,,,,,
,,,,,,3.458695652,1.605,space,0.442,0,51,51,3,1,4,image/4.jpg,0,0,,R_23fCGTf5Bw4sfo3,2,2024-05-14_14h38.43.566,face trait task,2021.2.3,MacIntel,30.3030303,121574,,,,,,,
,,,,,,2.597826087,1.635,space,0.446,0,52,52,48,1,49,image/49.jpg,0,0,,R_23fCGTf5Bw4sfo3,2,2024-05-14_14h38.43.566,face trait task,2021.2.3,MacIntel,30.3030303,121574,,,,,,,
,,,,,,,,,,,,,,,,,,,,R_23fCGTf5Bw4sfo3,2,2024-05-14_14h38.43.566,face trait task,2021.2.3,MacIntel,30.3030303,121574,0,0,0,2,1,2,trustworthy.png
,,,,,competent,3.967391304,5.115,space,0.496,0,0,0,3,1,4,image/4.jpg,0,0,,R_23fCGTf5Bw4sfo3,2,2024-05-14_14h38.43.566,face trait task,2021.2.3,MacIntel,30.3030303,121574,,,,,,,
,,,,,,4.606521739,2.091,space,0.353,0,1,1,18,1,19,image/19.jpg,0,0,,R_23fCGTf5Bw4sfo3,2,2024-05-14_14h38.43.566,face trait task,2021.2.3,MacIntel,30.3030303,121574,,,,,,,
,,,,,,3.4,2.035,space,0.307,0,2,2,4,1,5,image/5.jpg,0,0,,R_23fCGTf5Bw4sfo3,2,2024-05-14_14h38.43.566,face trait task,2021.2.3,MacIntel,30.3030303,121574,,,,,,,
,,,,,,4.965217391,1.739,space,0.293,0,3,3,11,1,12,image/12.jpg,0,0,,R_23fCGTf5Bw4sfo3,2,2024-05-14_14h38.43.566,face trait task,2021.2.3,MacIntel,30.3030303,121574,,,,,,,
,,,,,,2.936956522,1.745,space,0.458,0,4,4,8,1,9,image/9.jpg,0,0,,R_23fCGTf5Bw4sfo3,2,2024-05-14_14h38.43.566,face trait task,2021.2.3,MacIntel,30.3030303,121574,,,,,,,
,,,,,,5.017391304,2.189,space,0.167,0,5,5,0,1,1,image/1.jpg,0,0,,R_23fCGTf5Bw4sfo3,2,2024-05-14_14h38.43.566,face trait task,2021.2.3,MacIntel,30.3030303,121574,,,,,,,
,,,,,,6.993478261,3.893,space,0.343,0,6,6,50,1,56,image/fill_img.png,1,7,Please move the slider all the way to the RIGHT to show that you are paying attention.,R_23fCGTf5Bw4sfo3,2,2024-05-14_14h38.43.566,face trait task,2021.2.3,MacIntel,30.3030303,121574,,,,,,,
,,,,,,2.056521739,3.486,space,1.193,0,7,7,43,1,44,image/44.jpg,0,0,,R_23fCGTf5Bw4sfo3,2,2024-05-14_14h38.43.566,face trait task,2021.2.3,MacIntel,30.3030303,121574,,,,,,,
,,,,,,2.12173913,1.925,space,0.422,0,8,8,26,1,27,image/27.jpg,0,0,,R_23fCGTf5Bw4sfo3,2,2024-05-14_14h38.43.566,face trait task,2021.2.3,MacIntel,30.3030303,121574,,,,,,,
,,,,,,5.05,2.263,space,0.276,0,9,9,20,1,21,image/21.jpg,0,0,,R_23fCGTf5Bw4sfo3,2,2024-05-14_14h38.43.566,face trait task,2021.2.3,MacIntel,30.3030303,121574,,,,,,,
,,,,,,3.02826087,1.425,space,0.509,0,10,10,37,1,38,image/38.jpg,0,0,,R_23fCGTf5Bw4sfo3,2,2024-05-14_14h38.43.566,face trait task,2021.2.3,MacIntel,30.3030303,121574,,,,,,,
,,,,,,3.015217391,0.993,space,0.343,0,11,11,39,1,40,image/40.jpg,0,0,,R_23fCGTf5Bw4sfo3,2,2024-05-14_14h38.43.566,face trait task,2021.2.3,MacIntel,30.3030303,121574,,,,,,,
,,,,,,3.02173913,0.943,space,0.355,0,12,12,38,1,39,image/39.jpg,0,0,,R_23fCGTf5Bw4sfo3,2,2024-05-14_14h38.43.566,face trait task,2021.2.3,MacIntel,30.3030303,121574,,,,,,,
,,,,,,3.02173913,0.957,space,0.187,0,13,13,41,1,42,image/42.jpg,0,0,,R_23fCGTf5Bw4sfo3,2,2024-05-14_14h38.43.566,face trait task,2021.2.3,MacIntel,30.3030303,121574,,,,,,,
,,,,,,4.639130435,2.041,space,0.153,0,14,14,29,1,30,image/30.jpg,0,0,,R_23fCGTf5Bw4sfo3,2,2024-05-14_14h38.43.566,face trait task,2021.2.3,MacIntel,30.3030303,121574,,,,,,,
,,,,,,3.25,1.37,space,0.956,0,15,15,40,1,41,image/41.jpg,0,0,,R_23fCGTf5Bw4sfo3,2,2024-05-14_14h38.43.566,face trait task,2021.2.3,MacIntel,30.3030303,121574,,,,,,,
,,,,,,3.256521739,1.117,space,1.3,0,16,16,46,1,47,image/47.jpg,0,0,,R_23fCGTf5Bw4sfo3,2,2024-05-14_14h38.43.566,face trait task,2021.2.3,MacIntel,30.3030303,121574,,,,,,,
,,,,,,2.473913043,1.965,space,0.722,0,17,17,30,1,31,image/31.jpg,0,0,,R_23fCGTf5Bw4sfo3,2,2024-05-14_14h38.43.566,face trait task,2021.2.3,MacIntel,30.3030303,121574,,,,,,,
,,,,,,2.480434783,0.978,space,0.499,0,18,18,14,1,15,image/15.jpg,0,0,,R_23fCGTf5Bw4sfo3,2,2024-05-14_14h38.43.566,face trait task,2021.2.3,MacIntel,30.3030303,121574,,,,,,,
,,,,,,4.626086957,1.887,space,0.327,0,19,19,23,1,24,image/24.jpg,0,0,,R_23fCGTf5Bw4sfo3,2,2024-05-14_14h38.43.566,face trait task,2021.2.3,MacIntel,30.3030303,121574,,,,,,,
,,,,,,2.715217391,1.431,space,0.687,0,20,20,34,1,35,image/35.jpg,0,0,,R_23fCGTf5Bw4sfo3,2,2024-05-14_14h38.43.566,face trait task,2021.2.3,MacIntel,30.3030303,121574,,,,,,,
,,,,,,2.480434783,2.834,space,0.588,0,21,21,6,1,7,image/7.jpg,0,0,,R_23fCGTf5Bw4sfo3,2,2024-05-14_14h38.43.566,face trait task,2021.2.3,MacIntel,30.3030303,121574,,,,,,,
,,,,,,2.480434783,0.99,space,0.557,0,22,22,1,1,2,image/2.jpg,0,0,,R_23fCGTf5Bw4sfo3,2,2024-05-14_14h38.43.566,face trait task,2021.2.3,MacIntel,30.3030303,121574,,,,,,,
,,,,,,4.710869565,2.367,space,1.787,0,23,23,9,1,10,image/10.jpg,0,0,,R_23fCGTf5Bw4sfo3,2,2024-05-14_14h38.43.566,face trait task,2021.2.3,MacIntel,30.3030303,121574,,,,,,,
,,,,,,2.330434783,1.805,space,0.257,0,24,24,31,1,32,image/32.jpg,0,0,,R_23fCGTf5Bw4sfo3,2,2024-05-14_14h38.43.566,face trait task,2021.2.3,MacIntel,30.3030303,121574,,,,,,,
,,,,,,4.756521739,1.525,space,0.188,0,25,25,7,1,8,image/8.jpg,0,0,,R_23fCGTf5Bw4sfo3,2,2024-05-14_14h38.43.566,face trait task,2021.2.3,MacIntel,30.3030303,121574,,,,,,,
,,,,,,2.076086957,2.398,space,1.57,0,26,26,32,1,33,image/33.jpg,0,0,,R_23fCGTf5Bw4sfo3,2,2024-05-14_14h38.43.566,face trait task,2021.2.3,MacIntel,30.3030303,121574,,,,,,,
,,,,,,4,3.789,space,1.26,0,27,27,15,1,16,image/16.jpg,0,0,,R_23fCGTf5Bw4sfo3,2,2024-05-14_14h38.43.566,face trait task,2021.2.3,MacIntel,30.3030303,121574,,,,,,,
,,,,,,2.982608696,1.504,space,0.444,0,28,28,42,1,43,image/43.jpg,0,0,,R_23fCGTf5Bw4sfo3,2,2024-05-14_14h38.43.566,face trait task,2021.2.3,MacIntel,30.3030303,121574,,,,,,,
,,,,,,3.034782609,1.856,space,0.366,0,29,29,25,1,26,image/26.jpg,0,0,,R_23fCGTf5Bw4sfo3,2,2024-05-14_14h38.43.566,face trait task,2021.2.3,MacIntel,30.3030303,121574,,,,,,,
,,,,,,3.015217391,1.79,space,0.576,0,30,30,36,1,37,image/37.jpg,0,0,,R_23fCGTf5Bw4sfo3,2,2024-05-14_14h38.43.566,face trait task,2021.2.3,MacIntel,30.3030303,121574,,,,,,,
,,,,,,4.958695652,2.732,space,1.102,0,31,31,17,1,18,image/18.jpg,0,0,,R_23fCGTf5Bw4sfo3,2,2024-05-14_14h38.43.566,face trait task,2021.2.3,MacIntel,30.3030303,121574,,,,,,,
,,,,,,3.152173913,1.597,space,0.298,0,32,32,47,1,48,image/48.jpg,0,0,,R_23fCGTf5Bw4sfo3,2,2024-05-14_14h38.43.566,face trait task,2021.2.3,MacIntel,30.3030303,121574,,,,,,,
,,,,,,5.004347826,2.941,space,1.718,0,33,33,21,1,22,image/22.jpg,0,0,,R_23fCGTf5Bw4sfo3,2,2024-05-14_14h38.43.566,face trait task,2021.2.3,MacIntel,30.3030303,121574,,,,,,,
,,,,,,4.189130435,2.245,space,0.421,0,34,34,44,1,45,image/45.jpg,0,0,,R_23fCGTf5Bw4sfo3,2,2024-05-14_14h38.43.566,face trait task,2021.2.3,MacIntel,30.3030303,121574,,,,,,,
,,,,,,5.017391304,3.26,space,0.268,0,35,35,19,1,20,image/20.jpg,0,0,,R_23fCGTf5Bw4sfo3,2,2024-05-14_14h38.43.566,face trait task,2021.2.3,MacIntel,30.3030303,121574,,,,,,,
,,,,,,4.965217391,1.023,space,0.391,0,36,36,45,1,46,image/46.jpg,0,0,,R_23fCGTf5Bw4sfo3,2,2024-05-14_14h38.43.566,face trait task,2021.2.3,MacIntel,30.3030303,121574,,,,,,,
,,,,,,4.965217391,0.936,space,0.265,0,37,37,5,1,6,image/6.jpg,0,0,,R_23fCGTf5Bw4sfo3,2,2024-05-14_14h38.43.566,face trait task,2021.2.3,MacIntel,30.3030303,121574,,,,,,,
,,,,,,4.965217391,1.606,space,0.359,0,38,38,24,1,25,image/25.jpg,0,0,,R_23fCGTf5Bw4sfo3,2,2024-05-14_14h38.43.566,face trait task,2021.2.3,MacIntel,30.3030303,121574,,,,,,,
,,,,,,4.965217391,0.735,space,0.396,0,39,39,27,1,28,image/28.jpg,0,0,,R_23fCGTf5Bw4sfo3,2,2024-05-14_14h38.43.566,face trait task,2021.2.3,MacIntel,30.3030303,121574,,,,,,,
,,,,,,4.965217391,1.206,space,0.41,0,40,40,2,1,3,image/3.jpg,0,0,,R_23fCGTf5Bw4sfo3,2,2024-05-14_14h38.43.566,face trait task,2021.2.3,MacIntel,30.3030303,121574,,,,,,,
,,,,,,1.019565217,2.406,space,0.311,0,41,41,51,1,53,image/fill_img.png,1,1,Please move the slider all the way to the LEFT to show that you are paying attention.,R_23fCGTf5Bw4sfo3,2,2024-05-14_14h38.43.566,face trait task,2021.2.3,MacIntel,30.3030303,121574,,,,,,,
,,,,,,4.665217391,2.743,space,0.212,0,42,42,22,1,23,image/23.jpg,0,0,,R_23fCGTf5Bw4sfo3,2,2024-05-14_14h38.43.566,face trait task,2021.2.3,MacIntel,30.3030303,121574,,,,,,,
,,,,,,4.67826087,1.118,space,0.354,0,43,43,12,1,13,image/13.jpg,0,0,,R_23fCGTf5Bw4sfo3,2,2024-05-14_14h38.43.566,face trait task,2021.2.3,MacIntel,30.3030303,121574,,,,,,,
,,,,,,3.595652174,1.559,space,0.144,0,44,44,48,1,49,image/49.jpg,0,0,,R_23fCGTf5Bw4sfo3,2,2024-05-14_14h38.43.566,face trait task,2021.2.3,MacIntel,30.3030303,121574,,,,,,,
,,,,,,1.006521739,2.752,space,0.28,0,45,45,52,1,54,image/fill_img.png,1,1,Please move the slider all the way to the LEFT to show that you are paying attention.,R_23fCGTf5Bw4sfo3,2,2024-05-14_14h38.43.566,face trait task,2021.2.3,MacIntel,30.3030303,121574,,,,,,,
,,,,,,4.541304348,3.27,space,0.036,0,46,46,28,1,29,image/29.jpg,0,0,,R_23fCGTf5Bw4sfo3,2,2024-05-14_14h38.43.566,face trait task,2021.2.3,MacIntel,30.3030303,121574,,,,,,,
,,,,,,4.573913043,1.358,space,0.221,0,47,47,10,1,11,image/11.jpg,0,0,,R_23fCGTf5Bw4sfo3,2,2024-05-14_14h38.43.566,face trait task,2021.2.3,MacIntel,30.3030303,121574,,,,,,,
,,,,,,5.010869565,1.248,space,0.358,0,48,48,49,1,50,image/50.jpg,0,0,,R_23fCGTf5Bw4sfo3,2,2024-05-14_14h38.43.566,face trait task,2021.2.3,MacIntel,30.3030303,121574,,,,,,,
,,,,,,3.008695652,1.469,space,0.108,0,49,49,16,1,17,image/17.jpg,0,0,,R_23fCGTf5Bw4sfo3,2,2024-05-14_14h38.43.566,face trait task,2021.2.3,MacIntel,30.3030303,121574,,,,,,,
,,,,,,4.091304348,1.175,space,0.262,0,50,50,35,1,36,image/36.jpg,0,0,,R_23fCGTf5Bw4sfo3,2,2024-05-14_14h38.43.566,face trait task,2021.2.3,MacIntel,30.3030303,121574,,,,,,,
,,,,,,3.576086957,1.471,space,0.231,0,51,51,13,1,14,image/14.jpg,0,0,,R_23fCGTf5Bw4sfo3,2,2024-05-14_14h38.43.566,face trait task,2021.2.3,MacIntel,30.3030303,121574,,,,,,,
,,,,,,3.732608696,1.932,space,0.352,0,52,52,33,1,34,image/34.jpg,0,0,,R_23fCGTf5Bw4sfo3,2,2024-05-14_14h38.43.566,face trait task,2021.2.3,MacIntel,30.3030303,121574,,,,,,,
,,,,,,,,,,,,,,,,,,,,R_23fCGTf5Bw4sfo3,2,2024-05-14_14h38.43.566,face trait task,2021.2.3,MacIntel,30.3030303,121574,0,1,1,1,1,1,competent.png
,,,,,friendly,3.034782609,3.416,space,0.792,0,0,0,13,1,14,image/14.jpg,0,0,,R_23fCGTf5Bw4sfo3,2,2024-05-14_14h38.43.566,face trait task,2021.2.3,MacIntel,30.3030303,121574,,,,,,,
,,,,,,4.013043478,2.032,space,0.101,0,1,1,27,1,28,image/28.jpg,0,0,,R_23fCGTf5Bw4sfo3,2,2024-05-14_14h38.43.566,face trait task,2021.2.3,MacIntel,30.3030303,121574,,,,,,,
,,,,,,1.052173913,2.219,space,0.453,0,2,2,52,1,54,image/fill_img.png,1,1,Please move the slider all the way to the LEFT to show that you are paying attention.,R_23fCGTf5Bw4sfo3,2,2024-05-14_14h38.43.566,face trait task,2021.2.3,MacIntel,30.3030303,121574,,,,,,,
,,,,,,5.004347826,2.351,space,0.301,0,3,3,3,1,4,image/4.jpg,0,0,,R_23fCGTf5Bw4sfo3,2,2024-05-14_14h38.43.566,face trait task,2021.2.3,MacIntel,30.3030303,121574,,,,,,,
,,,,,,2.069565217,2.944,space,0.426,0,4,4,37,1,38,image/38.jpg,0,0,,R_23fCGTf5Bw4sfo3,2,2024-05-14_14h38.43.566,face trait task,2021.2.3,MacIntel,30.3030303,121574,,,,,,,
,,,,,,2.069565217,2.434,space,0.375,0,5,5,1,1,2,image/2.jpg,0,0,,R_23fCGTf5Bw4sfo3,2,2024-05-14_14h38.43.566,face trait task,2021.2.3,MacIntel,30.3030303,121574,,,,,,,
,,,,,,1.945652174,1.394,space,0.326,0,6,6,19,1,20,image/20.jpg,0,0,,R_23fCGTf5Bw4sfo3,2,2024-05-14_14h38.43.566,face trait task,2021.2.3,MacIntel,30.3030303,121574,,,,,,,
,,,,,,1.991304348,1.263,space,0.42,0,7,7,30,1,31,image/31.jpg,0,0,,R_23fCGTf5Bw4sfo3,2,2024-05-14_14h38.43.566,face trait task,2021.2.3,MacIntel,30.3030303,121574,,,,,,,
,,,,,,4.032608696,2.179,space,1.611,0,8,8,33,1,34,image/34.jpg,0,0,,R_23fCGTf5Bw4sfo3,2,2024-05-14_14h38.43.566,face trait task,2021.2.3,MacIntel,30.3030303,121574,,,,,,,
,,,,,,1.919565217,2.684,space,0.962,0,9,9,28,1,29,image/29.jpg,0,0,,R_23fCGTf5Bw4sfo3,2,2024-05-14_14h38.43.566,face trait task,2021.2.3,MacIntel,30.3030303,121574,,,,,,,
,,,,,,1.430434783,1.824,space,0.154,0,10,10,29,1,30,image/30.jpg,0,0,,R_23fCGTf5Bw4sfo3,2,2024-05-14_14h38.43.566,face trait task,2021.2.3,MacIntel,30.3030303,121574,,,,,,,
,,,,,,3.047826087,1.992,space,0.362,0,11,11,18,1,19,image/19.jpg,0,0,,R_23fCGTf5Bw4sfo3,2,2024-05-14_14h38.43.566,face trait task,2021.2.3,MacIntel,30.3030303,121574,,,,,,,
,,,,,,2.036956522,2.123,space,0.176,0,12,12,38,1,39,image/39.jpg,0,0,,R_23fCGTf5Bw4sfo3,2,2024-05-14_14h38.43.566,face trait task,2021.2.3,MacIntel,30.3030303,121574,,,,,,,
,,,,,,2.043478261,2.884,space,0.456,0,13,13,6,1,7,image/7.jpg,0,0,,R_23fCGTf5Bw4sfo3,2,2024-05-14_14h38.43.566,face trait task,2021.2.3,MacIntel,30.3030303,121574,,,,,,,
,,,,,,2.87173913,1.973,space,0.688,0,14,14,41,1,42,image/42.jpg,0,0,,R_23fCGTf5Bw4sfo3,2,2024-05-14_14h38.43.566,face trait task,2021.2.3,MacIntel,30.3030303,121574,,,,,,,
,,,,,,4.945652174,2.188,space,1.288,0,15,15,49,1,50,image/50.jpg,0,0,,R_23fCGTf5Bw4sfo3,2,2024-05-14_14h38.43.566,face trait task,2021.2.3,MacIntel,30.3030303,121574,,,,,,,
,,,,,,5.069565217,1.645,space,0.391,0,16,16,36,1,37,image/37.jpg,0,0,,R_23fCGTf5Bw4sfo3,2,2024-05-14_14h38.43.566,face trait task,2021.2.3,MacIntel,30.3030303,121574,,,,,,,
,,,,,,5.05,1.413,space,0.474,0,17,17,5,1,6,image/6.jpg,0,0,,R_23fCGTf5Bw4sfo3,2,2024-05-14_14h38.43.566,face trait task,2021.2.3,MacIntel,30.3030303,121574,,,,,,,
,,,,,,2.017391304,1.622,space,0.169,0,18,18,32,1,33,image/33.jpg,0,0,,R_23fCGTf5Bw4sfo3,2,2024-05-14_14h38.43.566,face trait task,2021.2.3,MacIntel,30.3030303,121574,,,,,,,
,,,,,,2.043478261,1.404,space,0.436,0,19,19,17,1,18,image/18.jpg,0,0,,R_23fCGTf5Bw4sfo3,2,2024-05-14_14h38.43.566,face trait task,2021.2.3,MacIntel,30.3030303,121574,,,,,,,
,,,,,,2.056521739,1.143,space,0.335,0,20,20,4,1,5,image/5.jpg,0,0,,R_23fCGTf5Bw4sfo3,2,2024-05-14_14h38.43.566,face trait task,2021.2.3,MacIntel,30.3030303,121574,,,,,,,
,,,,,,2.056521739,0.941,space,0.177,0,21,21,40,1,41,image/41.jpg,0,0,,R_23fCGTf5Bw4sfo3,2,2024-05-14_14h38.43.566,face trait task,2021.2.3,MacIntel,30.3030303,121574,,,,,,,
,,,,,,2.069565217,1.717,space,0.198,0,22,22,15,1,16,image/16.jpg,0,0,,R_23fCGTf5Bw4sfo3,2,2024-05-14_14h38.43.566,face trait task,2021.2.3,MacIntel,30.3030303,121574,,,,,,,
,,,,,,4.358695652,3.494,space,0.121,0,23,23,2,1,3,image/3.jpg,0,0,,R_23fCGTf5Bw4sfo3,2,2024-05-14_14h38.43.566,face trait task,2021.2.3,MacIntel,30.3030303,121574,,,,,,,
,,,,,,4.326086957,2.323,space,0.542,0,24,24,47,1,48,image/48.jpg,0,0,,R_23fCGTf5Bw4sfo3,2,2024-05-14_14h38.43.566,face trait task,2021.2.3,MacIntel,30.3030303,121574,,,,,,,
,,,,,,4.945652174,2.497,space,0.431,0,25,25,44,1,45,image/45.jpg,0,0,,R_23fCGTf5Bw4sfo3,2,2024-05-14_14h38.43.566,face trait task,2021.2.3,MacIntel,30.3030303,121574,,,,,,,
,,,,,,2.989130435,2.039,space,0.429,0,26,26,8,1,9,image/9.jpg,0,0,,R_23fCGTf5Bw4sfo3,2,2024-05-14_14h38.43.566,face trait task,2021.2.3,MacIntel,30.3030303,121574,,,,,,,
,,,,,,5.010869565,2.606,space,0.291,0,27,27,31,1,32,image/32.jpg,0,0,,R_23fCGTf5Bw4sfo3,2,2024-05-14_14h38.43.566,face trait task,2021.2.3,MacIntel,30.3030303,121574,,,,,,,
,,,,,,2.023913043,2.652,space,0.269,0,28,28,39,1,40,image/40.jpg,0,0,,R_23fCGTf5Bw4sfo3,2,2024-05-14_14h38.43.566,face trait task,2021.2.3,MacIntel,30.3030303,121574,,,,,,,
,,,,,,4.864285714,2.38,space,0.301,0,29,29,22,1,23,image/23.jpg,0,0,,R_23fCGTf5Bw4sfo3,2,2024-05-14_14h38.43.566,face trait task,2021.2.3,MacIntel,30.3030303,121574,,,,,,,
,,,,,,2.992857143,2.032,space,0.476,0,30,30,14,1,15,image/15.jpg,0,0,,R_23fCGTf5Bw4sfo3,2,2024-05-14_14h38.43.566,face trait task,2021.2.3,MacIntel,30.3030303,121574,,,,,,,
,,,,,,3.264285714,1.822,space,0.268,0,31,31,25,1,26,image/26.jpg,0,0,,R_23fCGTf5Bw4sfo3,2,2024-05-14_14h38.43.566,face trait task,2021.2.3,MacIntel,30.3030303,121574,,,,,,,
,,,,,,3.278571429,1.189,space,0.284,0,32,32,34,1,35,image/35.jpg,0,0,,R_23fCGTf5Bw4sfo3,2,2024-05-14_14h38.43.566,face trait task,2021.2.3,MacIntel,30.3030303,121574,,,,,,,
,,,,,,4.964285714,1.589,space,0.375,0,33,33,11,1,12,image/12.jpg,0,0,,R_23fCGTf5Bw4sfo3,2,2024-05-14_14h38.43.566,face trait task,2021.2.3,MacIntel,30.3030303,121574,,,,,,,
,,,,,,4.95,2.233,space,0.329,0,34,34,24,1,25,image/25.jpg,0,0,,R_23fCGTf5Bw4sfo3,2,2024-05-14_14h38.43.566,face trait task,2021.2.3,MacIntel,30.3030303,121574,,,,,,,
,,,,,,4.957142857,0.854,space,0.357,0,35,35,23,1,24,image/24.jpg,0,0,,R_23fCGTf5Bw4sfo3,2,2024-05-14_14h38.43.566,face trait task,2021.2.3,MacIntel,30.3030303,121574,,,,,,,
,,,,,,3.128571429,2.118,space,0.435,0,36,36,45,1,46,image/46.jpg,0,0,,R_23fCGTf5Bw4sfo3,2,2024-05-14_14h38.43.566,face trait task,2021.2.3,MacIntel,30.3030303,121574,,,,,,,
,,,,,,2.635714286,2.232,space,0.307,0,37,37,7,1,8,image/8.jpg,0,0,,R_23fCGTf5Bw4sfo3,2,2024-05-14_14h38.43.566,face trait task,2021.2.3,MacIntel,30.3030303,121574,,,,,,,
,,,,,,6.985714286,1.939,space,0.219,0,38,38,50,1,56,image/fill_img.png,1,7,Please move the slider all the way to the RIGHT to show that you are paying attention.,R_23fCGTf5Bw4sfo3,2,2024-05-14_14h38.43.566,face trait task,2021.2.3,MacIntel,30.3030303,121574,,,,,,,
,,,,,,4.942857143,2.003,space,0.388,0,39,39,12,1,13,image/13.jpg,0,0,,R_23fCGTf5Bw4sfo3,2,2024-05-14_14h38.43.566,face trait task,2021.2.3,MacIntel,30.3030303,121574,,,,,,,
,,,,,,4.007142857,1.941,space,0.08,0,40,40,10,1,11,image/11.jpg,0,0,,R_23fCGTf5Bw4sfo3,2,2024-05-14_14h38.43.566,face trait task,2021.2.3,MacIntel,30.3030303,121574,,,,,,,
,,,,,,3.028571429,1.624,space,0.142,0,41,41,35,1,36,image/36.jpg,0,0,,R_23fCGTf5Bw4sfo3,2,2024-05-14_14h38.43.566,face trait task,2021.2.3,MacIntel,30.3030303,121574,,,,,,,
,,,,,,4.85,3.258,space,0.311,0,42,42,46,1,47,image/47.jpg,0,0,,R_23fCGTf5Bw4sfo3,2,2024-05-14_14h38.43.566,face trait task,2021.2.3,MacIntel,30.3030303,121574,,,,,,,
,,,,,,4.892857143,1.009,space,0.296,0,43,43,16,1,17,image/17.jpg,0,0,,R_23fCGTf5Bw4sfo3,2,2024-05-14_14h38.43.566,face trait task,2021.2.3,MacIntel,30.3030303,121574,,,,,,,
,,,,,,4.892857143,1.099,space,0.464,0,44,44,42,1,43,image/43.jpg,0,0,,R_23fCGTf5Bw4sfo3,2,2024-05-14_14h38.43.566,face trait task,2021.2.3,MacIntel,30.3030303,121574,,,,,,,
,,,,,,4.757142857,0.743,space,0.409,0,45,45,43,1,44,image/44.jpg,0,0,,R_23fCGTf5Bw4sfo3,2,2024-05-14_14h38.43.566,face trait task,2021.2.3,MacIntel,30.3030303,121574,,,,,,,
,,,,,,4.685714286,0.524,space,0.522,0,46,46,0,1,1,image/1.jpg,0,0,,R_23fCGTf5Bw4sfo3,2,2024-05-14_14h38.43.566,face trait task,2021.2.3,MacIntel,30.3030303,121574,,,,,,,
,,,,,,3.142857143,1.877,space,0.896,0,47,47,21,1,22,image/22.jpg,0,0,,R_23fCGTf5Bw4sfo3,2,2024-05-14_14h38.43.566,face trait task,2021.2.3,MacIntel,30.3030303,121574,,,,,,,
,,,,,,3.164285714,0.994,space,0.325,0,48,48,26,1,27,image/27.jpg,0,0,,R_23fCGTf5Bw4sfo3,2,2024-05-14_14h38.43.566,face trait task,2021.2.3,MacIntel,30.3030303,121574,,,,,,,
,,,,,,3.171428571,0.913,space,0.286,0,49,49,20,1,21,image/21.jpg,0,0,,R_23fCGTf5Bw4sfo3,2,2024-05-14_14h38.43.566,face trait task,2021.2.3,MacIntel,30.3030303,121574,,,,,,,
,,,,,,3.185714286,0.878,space,0.314,0,50,50,9,1,10,image/10.jpg,0,0,,R_23fCGTf5Bw4sfo3,2,2024-05-14_14h38.43.566,face trait task,2021.2.3,MacIntel,30.3030303,121574,,,,,,,
,,,,,,1.042857143,2.642,space,2.32,0,51,51,51,1,53,image/fill_img.png,1,1,Please move the slider all the way to the LEFT to show that you are paying attention.,R_23fCGTf5Bw4sfo3,2,2024-05-14_14h38.43.566,face trait task,2021.2.3,MacIntel,30.3030303,121574,,,,,,,
,,,,,,4.528571429,2.321,space,0.703,0,52,52,48,1,49,image/49.jpg,0,0,,R_23fCGTf5Bw4sfo3,2,2024-05-14_14h38.43.566,face trait task,2021.2.3,MacIntel,30.3030303,121574,,,,,,,
,,,,,,,,,,,,,,,,,,,,R_23fCGTf5Bw4sfo3,2,2024-05-14_14h38.43.566,face trait task,2021.2.3,MacIntel,30.3030303,121574,0,2,2,3,1,3,friendly.png
,,,,,critical,5.021428571,2.922,space,0.355,0,0,0,19,1,20,image/20.jpg,0,0,,R_23fCGTf5Bw4sfo3,2,2024-05-14_14h38.43.566,face trait task,2021.2.3,MacIntel,30.3030303,121574,,,,,,,
,,,,,,2,2.224,space,0.345,0,1,1,35,1,36,image/36.jpg,0,0,,R_23fCGTf5Bw4sfo3,2,2024-05-14_14h38.43.566,face trait task,2021.2.3,MacIntel,30.3030303,121574,,,,,,,
,,,,,,5,2.142,space,0.201,0,2,2,4,1,5,image/5.jpg,0,0,,R_23fCGTf5Bw4sfo3,2,2024-05-14_14h38.43.566,face trait task,2021.2.3,MacIntel,30.3030303,121574,,,,,,,
,,,,,,5.914285714,2.64,space,0.41,0,3,3,43,1,44,image/44.jpg,0,0,,R_23fCGTf5Bw4sfo3,2,2024-05-14_14h38.43.566,face trait task,2021.2.3,MacIntel,30.3030303,121574,,,,,,,
,,,,,,5,1.805,space,0.79,0,4,4,29,1,30,image/30.jpg,0,0,,R_23fCGTf5Bw4sfo3,2,2024-05-14_14h38.43.566,face trait task,2021.2.3,MacIntel,30.3030303,121574,,,,,,,
,,,,,,4.964285714,3.393,space,0.979,0,5,5,46,1,47,image/47.jpg,0,0,,R_23fCGTf5Bw4sfo3,2,2024-05-14_14h38.43.566,face trait task,2021.2.3,MacIntel,30.3030303,121574,,,,,,,
,,,,,,4.992857143,1,space,0.353,0,6,6,0,1,1,image/1.jpg,0,0,,R_23fCGTf5Bw4sfo3,2,2024-05-14_14h38.43.566,face trait task,2021.2.3,MacIntel,30.3030303,121574,,,,,,,
,,,,,,4.992857143,1.419,space,1.276,0,7,7,36,1,37,image/37.jpg,0,0,,R_23fCGTf5Bw4sfo3,2,2024-05-14_14h38.43.566,face trait task,2021.2.3,MacIntel,30.3030303,121574,,,,,,,
,,,,,,4.992857143,1.01,space,0.456,0,8,8,44,1,45,image/45.jpg,0,0,,R_23fCGTf5Bw4sfo3,2,2024-05-14_14h38.43.566,face trait task,2021.2.3,MacIntel,30.3030303,121574,,,,,,,
,,,,,,1.007142857,2.261,space,0.293,0,9,9,51,1,53,image/fill_img.png,1,1,Please move the slider all the way to the LEFT to show that you are paying attention.,R_23fCGTf5Bw4sfo3,2,2024-05-14_14h38.43.566,face trait task,2021.2.3,MacIntel,30.3030303,121574,,,,,,,
,,,,,,6.992857143,2.44,space,0.224,0,10,10,50,1,56,image/fill_img.png,1,7,Please move the slider all the way to the RIGHT to show that you are paying attention.,R_23fCGTf5Bw4sfo3,2,2024-05-14_14h38.43.566,face trait task,2021.2.3,MacIntel,30.3030303,121574,,,,,,,
,,,,,,2.964285714,1.753,space,0.401,0,11,11,39,1,40,image/40.jpg,0,0,,R_23fCGTf5Bw4sfo3,2,2024-05-14_14h38.43.566,face trait task,2021.2.3,MacIntel,30.3030303,121574,,,,,,,
,,,,,,3.092857143,1.674,space,0.332,0,12,12,34,1,35,image/35.jpg,0,0,,R_23fCGTf5Bw4sfo3,2,2024-05-14_14h38.43.566,face trait task,2021.2.3,MacIntel,30.3030303,121574,,,,,,,
,,,,,,1.985714286,3.636,space,0.228,0,13,13,24,1,25,image/25.jpg,0,0,,R_23fCGTf5Bw4sfo3,2,2024-05-14_14h38.43.566,face trait task,2021.2.3,MacIntel,30.3030303,121574,,,,,,,
,,,,,,5.028571429,5.239,space,0.351,0,14,14,23,1,24,image/24.jpg,0,0,,R_23fCGTf5Bw4sfo3,2,2024-05-14_14h38.43.566,face trait task,2021.2.3,MacIntel,30.3030303,121574,,,,,,,
,,,,,,5.05,1.366,space,0.406,0,15,15,48,1,49,image/49.jpg,0,0,,R_23fCGTf5Bw4sfo3,2,2024-05-14_14h38.43.566,face trait task,2021.2.3,MacIntel,30.3030303,121574,,,,,,,
,,,,,,5.05,2.134,space,0.394,0,16,16,13,1,14,image/14.jpg,0,0,,R_23fCGTf5Bw4sfo3,2,2024-05-14_14h38.43.566,face trait task,2021.2.3,MacIntel,30.3030303,121574,,,,,,,
,,,,,,5.992857143,2.646,space,0.129,0,17,17,30,1,31,image/31.jpg,0,0,,R_23fCGTf5Bw4sfo3,2,2024-05-14_14h38.43.566,face trait task,2021.2.3,MacIntel,30.3030303,121574,,,,,,,
,,,,,,3.014285714,2.354,space,0.402,0,18,18,37,1,38,image/38.jpg,0,0,,R_23fCGTf5Bw4sfo3,2,2024-05-14_14h38.43.566,face trait task,2021.2.3,MacIntel,30.3030303,121574,,,,,,,
,,,,,,2.992857143,1.122,space,0.643,0,19,19,49,1,50,image/50.jpg,0,0,,R_23fCGTf5Bw4sfo3,2,2024-05-14_14h38.43.566,face trait task,2021.2.3,MacIntel,30.3030303,121574,,,,,,,
,,,,,,5.1,1.676,space,0.311,0,20,20,25,1,26,image/26.jpg,0,0,,R_23fCGTf5Bw4sfo3,2,2024-05-14_14h38.43.566,face trait task,2021.2.3,MacIntel,30.3030303,121574,,,,,,,
,,,,,,4.05,2.091,space,1.252,0,21,21,28,1,29,image/29.jpg,0,0,,R_23fCGTf5Bw4sfo3,2,2024-05-14_14h38.43.566,face trait task,2021.2.3,MacIntel,30.3030303,121574,,,,,,,
,,,,,,4.05,1.575,space,0.552,0,22,22,22,1,23,image/23.jpg,0,0,,R_23fCGTf5Bw4sfo3,2,2024-05-14_14h38.43.566,face trait task,2021.2.3,MacIntel,30.3030303,121574,,,,,,,
,,,,,,5.042857143,2.398,space,0.325,0,23,23,20,1,21,image/21.jpg,0,0,,R_23fCGTf5Bw4sfo3,2,2024-05-14_14h38.43.566,face trait task,2021.2.3,MacIntel,30.3030303,121574,,,,,,,
,,,,,,5.057142857,1.164,space,0.352,0,24,24,16,1,17,image/17.jpg,0,0,,R_23fCGTf5Bw4sfo3,2,2024-05-14_14h38.43.566,face trait task,2021.2.3,MacIntel,30.3030303,121574,,,,,,,
,,,,,,3.021428571,3.222,space,0.343,0,25,25,2,1,3,image/3.jpg,0,0,,R_23fCGTf5Bw4sfo3,2,2024-05-14_14h38.43.566,face trait task,2021.2.3,MacIntel,30.3030303,121574,,,,,,,
,,,,,,5.007142857,2.983,space,0.201,0,26,26,18,1,19,image/19.jpg,0,0,,R_23fCGTf5Bw4sfo3,2,2024-05-14_14h38.43.566,face trait task,2021.2.3,MacIntel,30.3030303,121574,,,,,,,
,,,,,,2.05,1.725,space,0.399,0,27,27,8,1,9,image/9.jpg,0,0,,R_23fCGTf5Bw4sfo3,2,2024-05-14_14h38.43.566,face trait task,2021.2.3,MacIntel,30.3030303,121574,,,,,,,
,,,,,,1.992857143,1.925,space,0.401,0,28,28,42,1,43,image/43.jpg,0,0,,R_23fCGTf5Bw4sfo3,2,2024-05-14_14h38.43.566,face trait task,2021.2.3,MacIntel,30.3030303,121574,,,,,,,
,,,,,,1.014285714,3.633,space,0.29,0,29,29,52,1,54,image/fill_img.png,1,1,Please move the slider all the way to the LEFT to show that you are paying attention.,R_23fCGTf5Bw4sfo3,2,2024-05-14_14h38.43.566,face trait task,2021.2.3,MacIntel,30.3030303,121574,,,,,,,
,,,,,,5.007142857,3.388,space,0.242,0,30,30,12,1,13,image/13.jpg,0,0,,R_23fCGTf5Bw4sfo3,2,2024-05-14_14h38.43.566,face trait task,2021.2.3,MacIntel,30.3030303,121574,,,,,,,
,,,,,,3.05,1.797,space,0.365,0,31,31,10,1,11,image/11.jpg,0,0,,R_23fCGTf5Bw4sfo3,2,2024-05-14_14h38.43.566,face trait task,2021.2.3,MacIntel,30.3030303,121574,,,,,,,
,,,,,,2.95,2.388,space,0.987,0,32,32,3,1,4,image/4.jpg,0,0,,R_23fCGTf5Bw4sfo3,2,2024-05-14_14h38.43.566,face trait task,2021.2.3,MacIntel,30.3030303,121574,,,,,,,
,,,,,,4.971428571,2.421,space,0.885,0,33,33,15,1,16,image/16.jpg,0,0,,R_23fCGTf5Bw4sfo3,2,2024-05-14_14h38.43.566,face trait task,2021.2.3,MacIntel,30.3030303,121574,,,,,,,
,,,,,,5.035714286,2.622,space,0.299,0,34,34,47,1,48,image/48.jpg,0,0,,R_23fCGTf5Bw4sfo3,2,2024-05-14_14h38.43.566,face trait task,2021.2.3,MacIntel,30.3030303,121574,,,,,,,
,,,,,,5.035714286,0.892,space,0.402,0,35,35,26,1,27,image/27.jpg,0,0,,R_23fCGTf5Bw4sfo3,2,2024-05-14_14h38.43.566,face trait task,2021.2.3,MacIntel,30.3030303,121574,,,,,,,
,,,,,,3.071428571,1.478,space,0.376,0,36,36,11,1,12,image/12.jpg,0,0,,R_23fCGTf5Bw4sfo3,2,2024-05-14_14h38.43.566,face trait task,2021.2.3,MacIntel,30.3030303,121574,,,,,,,
,,,,,,1.978571429,1.636,space,0.238,0,37,37,40,1,41,image/41.jpg,0,0,,R_23fCGTf5Bw4sfo3,2,2024-05-14_14h38.43.566,face trait task,2021.2.3,MacIntel,30.3030303,121574,,,,,,,
,,,,,,3.057142857,1.821,space,0.436,0,38,38,45,1,46,image/46.jpg,0,0,,R_23fCGTf5Bw4sfo3,2,2024-05-14_14h38.43.566,face trait task,2021.2.3,MacIntel,30.3030303,121574,,,,,,,
,,,,,,2.971428571,1.324,space,0.34,0,39,39,7,1,8,image/8.jpg,0,0,,R_23fCGTf5Bw4sfo3,2,2024-05-14_14h38.43.566,face trait task,2021.2.3,MacIntel,30.3030303,121574,,,,,,,
,,,,,,2.978571429,0.837,space,0.402,0,40,40,6,1,7,image/7.jpg,0,0,,R_23fCGTf5Bw4sfo3,2,2024-05-14_14h38.43.566,face trait task,2021.2.3,MacIntel,30.3030303,121574,,,,,,,
,,,,,,2.978571429,0.821,space,0.311,0,41,41,5,1,6,image/6.jpg,0,0,,R_23fCGTf5Bw4sfo3,2,2024-05-14_14h38.43.566,face trait task,2021.2.3,MacIntel,30.3030303,121574,,,,,,,
,,,,,,2.978571429,0.989,space,0.28,0,42,42,1,1,2,image/2.jpg,0,0,,R_23fCGTf5Bw4sfo3,2,2024-05-14_14h38.43.566,face trait task,2021.2.3,MacIntel,30.3030303,121574,,,,,,,
,,,,,,2.992857143,1.025,space,0.379,0,43,43,27,1,28,image/28.jpg,0,0,,R_23fCGTf5Bw4sfo3,2,2024-05-14_14h38.43.566,face trait task,2021.2.3,MacIntel,30.3030303,121574,,,,,,,
,,,,,,2,2.127,space,1.477,0,44,44,41,1,42,image/42.jpg,0,0,,R_23fCGTf5Bw4sfo3,2,2024-05-14_14h38.43.566,face trait task,2021.2.3,MacIntel,30.3030303,121574,,,,,,,
,,,,,,2,0.984,space,0.335,0,45,45,31,1,32,image/32.jpg,0,0,,R_23fCGTf5Bw4sfo3,2,2024-05-14_14h38.43.566,face trait task,2021.2.3,MacIntel,30.3030303,121574,,,,,,,
,,,,,,5.078571429,1.664,space,0.435,0,46,46,21,1,22,image/22.jpg,0,0,,R_23fCGTf5Bw4sfo3,2,2024-05-14_14h38.43.566,face trait task,2021.2.3,MacIntel,30.3030303,121574,,,,,,,
,,,,,,5.942857143,2.408,space,0.401,0,47,47,32,1,33,image/33.jpg,0,0,,R_23fCGTf5Bw4sfo3,2,2024-05-14_14h38.43.566,face trait task,2021.2.3,MacIntel,30.3030303,121574,,,,,,,
,,,,,,2,2.073,space,0.229,0,48,48,9,1,10,image/10.jpg,0,0,,R_23fCGTf5Bw4sfo3,2,2024-05-14_14h38.43.566,face trait task,2021.2.3,MacIntel,30.3030303,121574,,,,,,,
,,,,,,1.95,1.276,space,0.386,0,49,49,38,1,39,image/39.jpg,0,0,,R_23fCGTf5Bw4sfo3,2,2024-05-14_14h38.43.566,face trait task,2021.2.3,MacIntel,30.3030303,121574,,,,,,,
,,,,,,6.021428571,1.76,space,0.167,0,50,50,14,1,15,image/15.jpg,0,0,,R_23fCGTf5Bw4sfo3,2,2024-05-14_14h38.43.566,face trait task,2021.2.3,MacIntel,30.3030303,121574,,,,,,,
,,,,,,3.892857143,3.171,space,1.544,0,51,51,33,1,34,image/34.jpg,0,0,,R_23fCGTf5Bw4sfo3,2,2024-05-14_14h38.43.566,face trait task,2021.2.3,MacIntel,30.3030303,121574,,,,,,,
,,,,,,5.057142857,1.51,space,0.329,0,52,52,17,1,18,image/18.jpg,0,0,,R_23fCGTf5Bw4sfo3,2,2024-05-14_14h38.43.566,face trait task,2021.2.3,MacIntel,30.3030303,121574,,,,,,,
,,,,,,,,,,,,,,,,,,,,R_23fCGTf5Bw4sfo3,2,2024-05-14_14h38.43.566,face trait task,2021.2.3,MacIntel,30.3030303,121574,0,3,3,0,1,0,critical.png
