chooserow,ParID,pre_instru_resp_2.keys,pre_instru_resp_2.rt,pre_instru_resp_3.keys,pre_instru_resp_3.rt,pre_instru_resp_9.keys,pre_instru_resp_9.rt,pre_instru_resp_8.keys,pre_instru_resp_8.rt,pre_instru_resp_4.keys,pre_instru_resp_4.rt,pre_instru_resp_5.keys,pre_instru_resp_5.rt,pre_instru_resp_6.keys,pre_instru_resp_6.rt,key_resp_3.keys,key_resp_3.rt,key_resp_4.keys,key_resp_4.rt,key_resp_5.keys,key_resp_5.rt,key_resp_6.keys,key_resp_6.rt,key_resp_7.keys,key_resp_7.rt,trials_2.thisRepN,trials_2.thisTrialN,trials_2.thisN,trials_2.thisIndex,trials_2.ran,participant,session,date,expName,psychopyVersion,OS,frameRate,SONAid,pre_instru_resp.keys,pre_instru_resp.rt,clicked,judge_2.x,judge_2.y,judge_2.leftButton,judge_2.midButton,judge_2.rightButton,trials.thisRepN,trials.thisTrialN,trials.thisN,trials.thisIndex,trials.ran,prac_answer,prac_dot_sti,dotlefttext,dotrighttext,judge_2.clicked_name,prac_acc,judge.x,judge.y,judge.leftButton,judge.midButton,judge.rightButton,judge.clicked_name,clicked_guilt,slider_guilt.response,slider_guilt.rt,key_guilt.keys,key_guilt.rt,share_slider.response,share_slider.rt,key_share.keys,slider_apology.response,slider_apology.rt,key_apology.keys,slider_hide.response,slider_hide.rt,slider_forgiveness.response,slider_forgiveness.rt,key_forgiveness.keys,slider_mad.response,slider_mad.rt,trialseq.thisRepN,trialseq.thisTrialN,trialseq.thisN,trialseq.thisIndex,trialseq.ran,type_trial,stipic,DV,picture,answer,number,key_apology.rt,key_forgiveness.rt,key_share.rt,incompleteTrials,trials_redo.thisRepN,trials_redo.thisTrialN,trials_redo.thisN,trials_redo.thisIndex,trials_redo.ran
"[144,173,188,168,34,203,194,167,77,102,185,61,52,180,150,179,157,112,84,18,114,104,85,164,0,74,86,155,70,142,75,141,109,65,133,54,56,43,127,126,100,128]",R_23fCGTf5Bw4sfo3,space,46.616,space,2.196,space,32.681,space,428.075,space,0.467,space,4.981,space,0.769,3,9.138,1,4.635,1,8.082,2,4.021,2,1.151,0,0,0,0,1,R_23fCGTf5Bw4sfo3,1,2024-05-14_14h16.25.416,interaction task,2021.2.3,MacIntel,30.3030303,121574,,,,,,,,,,,,,,,,,,,,,,,,,,,,,,,,,,,,,,,,,,,,,,,,,,,,,,,,,,,,,,,
,,,,space,1.549,space,0.523,space,0.916,space,1.242,space,0.573,space,0.352,3,1.077,1,1.964,2,3.423,2,1.177,2,0.282,1,0,1,0,1,R_23fCGTf5Bw4sfo3,1,2024-05-14_14h16.25.416,interaction task,2021.2.3,MacIntel,30.3030303,121574,,,,,,,,,,,,,,,,,,,,,,,,,,,,,,,,,,,,,,,,,,,,,,,,,,,,,,,,,,,,,,,
,,,,space,0.547,space,0.399,space,0.207,space,0.463,space,1.222,space,0.453,3,0.528,1,0.299,3,7.966,2,0.509,2,4.48,2,0,2,0,1,R_23fCGTf5Bw4sfo3,1,2024-05-14_14h16.25.416,interaction task,2021.2.3,MacIntel,30.3030303,121574,,,,,,,,,,,,,,,,,,,,,,,,,,,,,,,,,,,,,,,,,,,,,,,,,,,,,,,,,,,,,,,
,,,,,,,,,,,,,,,,,,,,,,,,,,,,,,,R_23fCGTf5Bw4sfo3,1,2024-05-14_14h16.25.416,interaction task,2021.2.3,MacIntel,30.3030303,121574,space,0.694,[],-0.141496599,-0.171428571,0,0,0,0,0,0,1,1,LeftButton_2,9dot2.png,Smaller,Greater,,,,,,,,,,,,,,,,,,,,,,,,,,,,,,,,,,,,,,,,,,,,,,
,,,,,,,,,,,,,,,,,,,,,,,,,,,,,,,R_23fCGTf5Bw4sfo3,1,2024-05-14_14h16.25.416,interaction task,2021.2.3,MacIntel,30.3030303,121574,,,"[""RightButton_2""]",0.195918367,-0.271428571,1,0,0,0,1,1,2,1,RightButton_2,9dot1.png,Greater,Smaller,RightButton_2,,,,,,,,,,,,,,,,,,,,,,,,,,,,,,,,,,,,,,,,,,,,,
,,,,,,,,,,,,,,,,,,,,,,,,,,,,,,,R_23fCGTf5Bw4sfo3,1,2024-05-14_14h16.25.416,interaction task,2021.2.3,MacIntel,30.3030303,121574,,,"[""RightButton_2""]",0.22585034,-0.311904762,1,0,0,0,2,2,0,1,RightButton_2,11dot1.png,Smaller,Greater,RightButton_2,,,,,,,,,,,,,,,,,,,,,,,,,,,,,,,,,,,,,,,,,,,,,
,,,,,,,,,,,,,,,,,,,,,,,,,,,,,,,R_23fCGTf5Bw4sfo3,1,2024-05-14_14h16.25.416,interaction task,2021.2.3,MacIntel,30.3030303,121574,,,,,,,,,,,,,,,,Greater,Smaller,,0.4,-0.227210884,-0.507142857,1,0,0,LeftButton,"[""LeftButton""]",55,3.937,space,1.465,,,,,,,,,,,,,,0,0,0,0,1,3,only_sub_wrong.png,0,RandomDot33.png,No answer,19,,,,,,,,,
,,,,,,,,,,,,,,,,,,,,,,,,,,,,,,,R_23fCGTf5Bw4sfo3,1,2024-05-14_14h16.25.416,interaction task,2021.2.3,MacIntel,30.3030303,121574,,,,,,,,,,,,,,,,Greater,Smaller,,,0.244897959,-0.478571429,1,0,0,RightButton,"[""RightButton""]",,,,,,,,72,5.725,space,73,8.904,,,,,,0,1,1,1,1,3,only_sub_wrong.png,2,RandomDot20.png,No answer,19,1.261,,,,,,,,
,,,,,,,,,,,,,,,,,,,,,,,,,,,,,,,R_23fCGTf5Bw4sfo3,1,2024-05-14_14h16.25.416,interaction task,2021.2.3,MacIntel,30.3030303,121574,,,,,,,,,,,,,,,,Smaller,Greater,,,-0.257142857,-0.495238095,1,0,0,LeftButton,"[""LeftButton""]",,,,,,,,,,,,,51.23685838,1.699,space,31.03483818,6.709,0,2,2,2,1,3,only_sub_wrong.png,3,RandomDot22.png,No answer,21,,1.309,,,,,,,
,,,,,,,,,,,,,,,,,,,,,,,,,,,,,,,R_23fCGTf5Bw4sfo3,1,2024-05-14_14h16.25.416,interaction task,2021.2.3,MacIntel,30.3030303,121574,,,,,,,,,,,,,,,,Greater,Smaller,,,-0.325170068,-0.5,1,0,0,LeftButton,"[""LeftButton""]",,,,,,,,51,1.835,space,62,2.968,,,,,,0,3,3,3,1,3,only_sub_wrong.png,2,RandomDot13.png,No answer,21,0.388,,,,,,,,
,,,,,,,,,,,,,,,,,,,,,,,,,,,,,,,R_23fCGTf5Bw4sfo3,1,2024-05-14_14h16.25.416,interaction task,2021.2.3,MacIntel,30.3030303,121574,,,,,,,,,,,,,,,,Smaller,Greater,,,0.379591837,-0.533333333,1,0,0,RightButton,"[""RightButton""]",,,,,,,,,,,,,,,,,,0,4,4,4,1,0,both_right.png,2,RandomDot15.png,No answer,21,,,,,,,,,
,,,,,,,,,,,,,,,,,,,,,,,,,,,,,,,R_23fCGTf5Bw4sfo3,1,2024-05-14_14h16.25.416,interaction task,2021.2.3,MacIntel,30.3030303,121574,,,,,,,,,,,,,,,,Smaller,Greater,,,-0.240816327,-0.521428571,1,0,0,LeftButton,"[""LeftButton""]",,,,,,,,,,,,,,,,,,0,5,5,5,1,5,both_right.png,10,RandomDot42.png,LeftButton,21,,,,,,,,,
,,,,,,,,,,,,,,,,,,,,,,,,,,,,,,,R_23fCGTf5Bw4sfo3,1,2024-05-14_14h16.25.416,interaction task,2021.2.3,MacIntel,30.3030303,121574,,,,,,,,,,,,,,,,Greater,Smaller,,,-0.232653061,-0.54047619,1,0,0,LeftButton,"[""LeftButton""]",,,,,,,,,,,,,,,,,,0,6,6,6,1,4,both_right.png,10,RandomDot41.png,LeftButton,5,,,,,,,,,
,,,,,,,,,,,,,,,,,,,,,,,,,,,,,,,R_23fCGTf5Bw4sfo3,1,2024-05-14_14h16.25.416,interaction task,2021.2.3,MacIntel,30.3030303,121574,,,,,,,,,,,,,,,,Smaller,Greater,,,0.331972789,-0.457142857,1,0,0,RightButton,"[""RightButton""]",,,,,4.989795918,10.319,space,,,,,,,,,,,0,7,7,7,1,3,only_sub_wrong.png,1,RandomDot22.png,No answer,20,,,1.096,,,,,,
,,,,,,,,,,,,,,,,,,,,,,,,,,,,,,,R_23fCGTf5Bw4sfo3,1,2024-05-14_14h16.25.416,interaction task,2021.2.3,MacIntel,30.3030303,121574,,,,,,,,,,,,,,,,Greater,Smaller,,,-0.293877551,-0.495238095,1,0,0,LeftButton,"[""LeftButton""]",,,,,,,,22,3.856,space,30,4.923,,,,,,0,8,8,8,1,1,both_wrong.png,2,RandomDot13.png,No answer,21,0.721,,,,,,,,
,,,,,,,,,,,,,,,,,,,,,,,,,,,,,,,R_23fCGTf5Bw4sfo3,1,2024-05-14_14h16.25.416,interaction task,2021.2.3,MacIntel,30.3030303,121574,,,,,,,,,,,,,,,,Smaller,Greater,,,0.23537415,-0.523809524,1,0,0,RightButton,"[""RightButton""]",3,2.196,space,0.993,,,,,,,,,,,,,,0,9,9,9,1,2,only_sub_right.png,0,RandomDot16.png,No answer,21,,,,,,,,,
,,,,,,,,,,,,,,,,,,,,,,,,,,,,,,,R_23fCGTf5Bw4sfo3,1,2024-05-14_14h16.25.416,interaction task,2021.2.3,MacIntel,30.3030303,121574,,,,,,,,,,,,,,,,Greater,Smaller,,,-0.293877551,-0.54047619,1,0,0,LeftButton,"[""LeftButton""]",,,,,,,,,,,,,63.74287089,2.377,space,14.68082182,5.161,0,10,10,10,1,3,only_sub_wrong.png,3,RandomDot34.png,No answer,20,,1.512,,,,,,,
,,,,,,,,,,,,,,,,,,,,,,,,,,,,,,,R_23fCGTf5Bw4sfo3,1,2024-05-14_14h16.25.416,interaction task,2021.2.3,MacIntel,30.3030303,121574,,,,,,,,,,,,,,,,Greater,Smaller,,,-0.248979592,-0.542857143,1,0,0,LeftButton,"[""LeftButton""]",,,,,0.976190476,2.251,space,,,,,,,,,,,0,11,11,11,1,1,both_wrong.png,1,RandomDot23.png,No answer,21,,,0.75,,,,,,
,,,,,,,,,,,,,,,,,,,,,,,,,,,,,,,R_23fCGTf5Bw4sfo3,1,2024-05-14_14h16.25.416,interaction task,2021.2.3,MacIntel,30.3030303,121574,,,,,,,,,,,,,,,,Greater,Smaller,,,-0.228571429,-0.49047619,1,0,0,LeftButton,"[""LeftButton""]",36,3.69,space,1.958,,,,,,,,,,,,,,0,12,12,12,1,1,both_wrong.png,0,RandomDot10.png,No answer,20,,,,,,,,,
,,,,,,,,,,,,,,,,,,,,,,,,,,,,,,,R_23fCGTf5Bw4sfo3,1,2024-05-14_14h16.25.416,interaction task,2021.2.3,MacIntel,30.3030303,121574,,,,,,,,,,,,,,,,Greater,Smaller,,,0.234013605,-0.514285714,1,0,0,RightButton,"[""RightButton""]",,,,,,,,,,,,,68.41544699,1.937,space,29.24826496,4.514,0,13,13,13,1,3,only_sub_wrong.png,3,RandomDot20.png,No answer,19,,0.141,,,,,,,
,,,,,,,,,,,,,,,,,,,,,,,,,,,,,,,R_23fCGTf5Bw4sfo3,1,2024-05-14_14h16.25.416,interaction task,2021.2.3,MacIntel,30.3030303,121574,,,,,,,,,,,,,,,,Smaller,Greater,,,0.353741497,-0.521428571,1,0,0,RightButton,"[""RightButton""]",44,3.479,space,1.476,,,,,,,,,,,,,,0,14,14,14,1,3,only_sub_wrong.png,0,RandomDot16.png,No answer,21,,,,,,,,,
,,,,,,,,,,,,,,,,,,,,,,,,,,,,,,,R_23fCGTf5Bw4sfo3,1,2024-05-14_14h16.25.416,interaction task,2021.2.3,MacIntel,30.3030303,121574,,,,,,,,,,,,,,,,Smaller,Greater,,,-0.229931973,-0.504761905,1,0,0,LeftButton,"[""LeftButton""]",,,,,,,,44,1.253,space,46,2.745,,,,,,0,15,15,15,1,3,only_sub_wrong.png,2,RandomDot15.png,No answer,20,0.458,,,,,,,,
,,,,,,,,,,,,,,,,,,,,,,,,,,,,,,,R_23fCGTf5Bw4sfo3,1,2024-05-14_14h16.25.416,interaction task,2021.2.3,MacIntel,30.3030303,121574,,,,,,,,,,,,,,,,Greater,Smaller,,,0.204081633,-0.507142857,1,0,0,RightButton,"[""RightButton""]",,,,,3.221088435,3.054,space,,,,,,,,,,,0,16,16,16,1,3,only_sub_wrong.png,1,RandomDot8.png,No answer,21,,,1.609,,,,,,
,,,,,,,,,,,,,,,,,,,,,,,,,,,,,,,R_23fCGTf5Bw4sfo3,1,2024-05-14_14h16.25.416,interaction task,2021.2.3,MacIntel,30.3030303,121574,,,,,,,,,,,,,,,,Greater,Smaller,,,-0.291156463,-0.473809524,1,0,0,LeftButton,"[""LeftButton""]",,,,,1.976190476,2.465,space,,,,,,,,,,,0,17,17,17,1,2,only_sub_right.png,1,RandomDot32.png,No answer,19,,,0.353,,,,,,
,,,,,,,,,,,,,,,,,,,,,,,,,,,,,,,R_23fCGTf5Bw4sfo3,1,2024-05-14_14h16.25.416,interaction task,2021.2.3,MacIntel,30.3030303,121574,,,,,,,,,,,,,,,,Greater,Smaller,,,-0.248979592,-0.507142857,1,0,0,LeftButton,"[""LeftButton""]",,,,,,,,,,,,,45.87713873,1.559,space,44.77770906,2.839,0,18,18,18,1,1,both_wrong.png,3,RandomDot6.png,No answer,20,,1.089,,,,,,,
,,,,,,,,,,,,,,,,,,,,,,,,,,,,,,,R_23fCGTf5Bw4sfo3,1,2024-05-14_14h16.25.416,interaction task,2021.2.3,MacIntel,30.3030303,121574,,,,,,,,,,,,,,,,Smaller,Greater,,,0.367346939,-0.526190476,1,0,0,RightButton,"[""RightButton""]",,,,,,,,,,,,,,,,,,0,19,19,19,1,0,both_right.png,1,RandomDot5.png,No answer,19,,,,,,,,,
,,,,,,,,,,,,,,,,,,,,,,,,,,,,,,,R_23fCGTf5Bw4sfo3,1,2024-05-14_14h16.25.416,interaction task,2021.2.3,MacIntel,30.3030303,121574,,,,,,,,,,,,,,,,Smaller,Greater,,,-0.269387755,-0.519047619,1,0,0,LeftButton,"[""LeftButton""]",,,,,2.574829932,2.53,space,,,,,,,,,,,0,20,20,20,1,2,only_sub_right.png,1,RandomDot15.png,No answer,19,,,0.625,,,,,,
,,,,,,,,,,,,,,,,,,,,,,,,,,,,,,,R_23fCGTf5Bw4sfo3,1,2024-05-14_14h16.25.416,interaction task,2021.2.3,MacIntel,30.3030303,121574,,,,,,,,,,,,,,,,Smaller,Greater,,,0.238095238,-0.488095238,1,0,0,RightButton,"[""RightButton""]",1,2.895,space,0.322,,,,,,,,,,,,,,0,21,21,21,1,2,only_sub_right.png,0,RandomDot29.png,No answer,20,,,,,,,,,
,,,,,,,,,,,,,,,,,,,,,,,,,,,,,,,R_23fCGTf5Bw4sfo3,1,2024-05-14_14h16.25.416,interaction task,2021.2.3,MacIntel,30.3030303,121574,,,,,,,,,,,,,,,,Greater,Smaller,,,0.232653061,-0.497619048,1,0,0,RightButton,"[""RightButton""]",,,,,,,,,,,,,32.54655398,1.881,space,35.9822717,2.857,0,22,22,22,1,1,both_wrong.png,3,RandomDot40.png,No answer,21,,0.122,,,,,,,
,,,,,,,,,,,,,,,,,,,,,,,,,,,,,,,R_23fCGTf5Bw4sfo3,1,2024-05-14_14h16.25.416,interaction task,2021.2.3,MacIntel,30.3030303,121574,,,,,,,,,,,,,,,,Smaller,Greater,,,0.223129252,-0.502380952,1,0,0,RightButton,"[""RightButton""]",,,,,2.710884354,1.376,space,,,,,,,,,,,0,23,23,23,1,3,only_sub_wrong.png,1,RandomDot40.png,No answer,19,,,1.342,,,,,,
,,,,,,,,,,,,,,,,,,,,,,,,,,,,,,,R_23fCGTf5Bw4sfo3,1,2024-05-14_14h16.25.416,interaction task,2021.2.3,MacIntel,30.3030303,121574,,,,,,,,,,,,,,,,Greater,Smaller,,,0.194557823,-0.471428571,1,0,0,RightButton,"[""RightButton""]",,,,,,,,,,,,,,,,,,0,24,24,24,1,0,both_right.png,0,RandomDot34.png,No answer,19,,,,,,,,,
,,,,,,,,,,,,,,,,,,,,,,,,,,,,,,,R_23fCGTf5Bw4sfo3,1,2024-05-14_14h16.25.416,interaction task,2021.2.3,MacIntel,30.3030303,121574,,,,,,,,,,,,,,,,Greater,Smaller,,,-0.387755102,-0.457142857,1,0,0,LeftButton,"[""LeftButton""]",,,,,,,,37,1.241,space,39,2.083,,,,,,0,25,25,25,1,1,both_wrong.png,2,RandomDot16.png,No answer,20,0.986,,,,,,,,
,,,,,,,,,,,,,,,,,,,,,,,,,,,,,,,R_23fCGTf5Bw4sfo3,1,2024-05-14_14h16.25.416,interaction task,2021.2.3,MacIntel,30.3030303,121574,,,,,,,,,,,,,,,,Greater,Smaller,,,-0.240816327,-0.530952381,1,0,0,LeftButton,"[""LeftButton""]",,,,,,,,,,,,,45.44199326,1.317,space,46.26656551,2.422,0,26,26,26,1,1,both_wrong.png,3,RandomDot13.png,No answer,21,,0.57,,,,,,,
,,,,,,,,,,,,,,,,,,,,,,,,,,,,,,,R_23fCGTf5Bw4sfo3,1,2024-05-14_14h16.25.416,interaction task,2021.2.3,MacIntel,30.3030303,121574,,,,,,,,,,,,,,,,Smaller,Greater,,,-0.307482993,-0.476190476,1,0,0,LeftButton,"[""LeftButton""]",5,2.197,space,0.357,,,,,,,,,,,,,,0,27,27,27,1,3,only_sub_wrong.png,0,RandomDot2.png,No answer,20,,,,,,,,,
,,,,,,,,,,,,,,,,,,,,,,,,,,,,,,,R_23fCGTf5Bw4sfo3,1,2024-05-14_14h16.25.416,interaction task,2021.2.3,MacIntel,30.3030303,121574,,,,,,,,,,,,,,,,Smaller,Greater,,,-0.02585034,-0.65952381,1,0,0,,[],,,,,,,,,,,,,,,,,,0,28,28,28,1,1,both_wrong.png,1,RandomDot29.png,No answer,19,,,,70,,,,,
,,,,,,,,,,,,,,,,,,,,,,,,,,,,,,,R_23fCGTf5Bw4sfo3,1,2024-05-14_14h16.25.416,interaction task,2021.2.3,MacIntel,30.3030303,121574,,,,,,,,,,,,,,,,Smaller,Greater,,,0.17414966,-0.433333333,0,0,1,,[],,,,,,,,,,,,,,,,,,0,29,29,29,1,2,only_sub_right.png,3,RandomDot18.png,No answer,20,,,,142,,,,,
,,,,,,,,,,,,,,,,,,,,,,,,,,,,,,,R_23fCGTf5Bw4sfo3,1,2024-05-14_14h16.25.416,interaction task,2021.2.3,MacIntel,30.3030303,121574,,,,,,,,,,,,,,,,Greater,Smaller,,,0.213605442,-0.464285714,1,0,1,RightButton,"[""RightButton""]",,,,,,,,2,3.032,space,2,2.149,,,,,,0,30,30,30,1,1,both_wrong.png,2,RandomDot10.png,No answer,20,0.298,,,,,,,,
,,,,,,,,,,,,,,,,,,,,,,,,,,,,,,,R_23fCGTf5Bw4sfo3,1,2024-05-14_14h16.25.416,interaction task,2021.2.3,MacIntel,30.3030303,121574,,,,,,,,,,,,,,,,Smaller,Greater,,,-0.285714286,-0.464285714,1,0,1,LeftButton,"[""LeftButton""]",,,,,,,,,,,,,7.236812195,1.323,space,2.976522221,2.727,0,31,31,31,1,2,only_sub_right.png,3,RandomDot7.png,No answer,20,,0.435,,,,,,,
,,,,,,,,,,,,,,,,,,,,,,,,,,,,,,,R_23fCGTf5Bw4sfo3,1,2024-05-14_14h16.25.416,interaction task,2021.2.3,MacIntel,30.3030303,121574,,,,,,,,,,,,,,,,Greater,Smaller,,,0.25170068,-0.319047619,0,0,1,,[],,,,,,,,,,,,,,,,,,0,32,32,32,1,2,only_sub_right.png,1,RandomDot3.png,No answer,19,,,,109,,,,,
,,,,,,,,,,,,,,,,,,,,,,,,,,,,,,,R_23fCGTf5Bw4sfo3,1,2024-05-14_14h16.25.416,interaction task,2021.2.3,MacIntel,30.3030303,121574,,,,,,,,,,,,,,,,Greater,Smaller,,,-0.395918367,-0.402380952,0,0,1,,[],,,,,,,,,,,,,,,,,,0,33,33,33,1,1,both_wrong.png,1,RandomDot26.png,No answer,21,,,,65,,,,,
,,,,,,,,,,,,,,,,,,,,,,,,,,,,,,,R_23fCGTf5Bw4sfo3,1,2024-05-14_14h16.25.416,interaction task,2021.2.3,MacIntel,30.3030303,121574,,,,,,,,,,,,,,,,Greater,Smaller,,,0.253061224,-0.461904762,1,0,1,RightButton,"[""RightButton""]",,,,,,,,,,,,,3.526237056,1.923,space,5.312810271,3.094,0,34,34,34,1,2,only_sub_right.png,3,RandomDot36.png,No answer,20,,0.324,,,,,,,
,,,,,,,,,,,,,,,,,,,,,,,,,,,,,,,R_23fCGTf5Bw4sfo3,1,2024-05-14_14h16.25.416,interaction task,2021.2.3,MacIntel,30.3030303,121574,,,,,,,,,,,,,,,,Smaller,Greater,,,0.20952381,-0.45952381,1,0,1,RightButton,"[""RightButton""]",10,1.187,space,0.723,,,,,,,,,,,,,,0,35,35,35,1,1,both_wrong.png,0,RandomDot23.png,No answer,20,,,,,,,,,
,,,,,,,,,,,,,,,,,,,,,,,,,,,,,,,R_23fCGTf5Bw4sfo3,1,2024-05-14_14h16.25.416,interaction task,2021.2.3,MacIntel,30.3030303,121574,,,,,,,,,,,,,,,,Smaller,Greater,,,-0.310204082,-0.461904762,1,0,1,LeftButton,"[""LeftButton""]",3,1.201,space,0.36,,,,,,,,,,,,,,0,36,36,36,1,1,both_wrong.png,0,RandomDot39.png,No answer,21,,,,,,,,,
,,,,,,,,,,,,,,,,,,,,,,,,,,,,,,,R_23fCGTf5Bw4sfo3,1,2024-05-14_14h16.25.416,interaction task,2021.2.3,MacIntel,30.3030303,121574,,,,,,,,,,,,,,,,Smaller,Greater,,,-0.299319728,-0.457142857,1,0,1,LeftButton,"[""LeftButton""]",,,,,,,,,,,,,,,,,,0,37,37,37,1,0,both_right.png,3,RandomDot3.png,No answer,21,,,,,,,,,
,,,,,,,,,,,,,,,,,,,,,,,,,,,,,,,R_23fCGTf5Bw4sfo3,1,2024-05-14_14h16.25.416,interaction task,2021.2.3,MacIntel,30.3030303,121574,,,,,,,,,,,,,,,,Smaller,Greater,,,-0.31292517,-0.480952381,1,0,1,LeftButton,"[""LeftButton""]",,,,,,,,4,1.366,space,5,2.286,,,,,,0,38,38,38,1,2,only_sub_right.png,2,RandomDot22.png,No answer,19,0.362,,,,,,,,
,,,,,,,,,,,,,,,,,,,,,,,,,,,,,,,R_23fCGTf5Bw4sfo3,1,2024-05-14_14h16.25.416,interaction task,2021.2.3,MacIntel,30.3030303,121574,,,,,,,,,,,,,,,,Smaller,Greater,,,-0.325170068,-0.476190476,1,0,1,LeftButton,"[""LeftButton""]",,,,,,,,4,1.826,space,6,2.737,,,,,,0,39,39,39,1,2,only_sub_right.png,2,RandomDot34.png,No answer,20,0.073,,,,,,,,
,,,,,,,,,,,,,,,,,,,,,,,,,,,,,,,R_23fCGTf5Bw4sfo3,1,2024-05-14_14h16.25.416,interaction task,2021.2.3,MacIntel,30.3030303,121574,,,,,,,,,,,,,,,,Greater,Smaller,,,-0.363265306,-0.471428571,1,0,1,LeftButton,"[""LeftButton""]",4,1.454,space,1.31,,,,,,,,,,,,,,0,40,40,40,1,2,only_sub_right.png,0,RandomDot33.png,No answer,21,,,,,,,,,
,,,,,,,,,,,,,,,,,,,,,,,,,,,,,,,R_23fCGTf5Bw4sfo3,1,2024-05-14_14h16.25.416,interaction task,2021.2.3,MacIntel,30.3030303,121574,,,,,,,,,,,,,,,,Smaller,Greater,,,0.227210884,-0.471428571,1,0,1,RightButton,"[""RightButton""]",,,,,,,,6,1.574,space,6,2.674,,,,,,0,41,41,41,1,2,only_sub_right.png,2,RandomDot22.png,No answer,20,0.142,,,,,,,,
,,,,,,,,,,,,,,,,,,,,,,,,,,,,,,,R_23fCGTf5Bw4sfo3,1,2024-05-14_14h16.25.416,interaction task,2021.2.3,MacIntel,30.3030303,121574,,,,,,,,,,,,,,,,Smaller,Greater,,,0.220408163,-0.476190476,1,0,1,RightButton,"[""RightButton""]",,,,,2.927439891,2.426,space,,,,,,,,,,,,,,,,1,both_wrong.png,1,RandomDot29.png,No answer,19,,,0.989,,0,0,0,0,1
,,,,,,,,,,,,,,,,,,,,,,,,,,,,,,,R_23fCGTf5Bw4sfo3,1,2024-05-14_14h16.25.416,interaction task,2021.2.3,MacIntel,30.3030303,121574,,,,,,,,,,,,,,,,Greater,Smaller,,,0.175510204,-0.464285714,1,0,1,RightButton,"[""RightButton""]",,,,,2.342405877,1.878,space,,,,,,,,,,,,,,,,1,both_wrong.png,1,RandomDot26.png,No answer,21,,,0.91,,0,1,1,3,1
,,,,,,,,,,,,,,,,,,,,,,,,,,,,,,,R_23fCGTf5Bw4sfo3,1,2024-05-14_14h16.25.416,interaction task,2021.2.3,MacIntel,30.3030303,121574,,,,,,,,,,,,,,,,Smaller,Greater,,,0.239455782,-0.471428571,1,0,1,RightButton,"[""RightButton""]",,,,,,,,,,,,,6.137382525,1.646,space,8.198813157,2.578,,,,,,2,only_sub_right.png,3,RandomDot18.png,No answer,20,,0.388,,,0,2,2,1,1
,,,,,,,,,,,,,,,,,,,,,,,,,,,,,,,R_23fCGTf5Bw4sfo3,1,2024-05-14_14h16.25.416,interaction task,2021.2.3,MacIntel,30.3030303,121574,,,,,,,,,,,,,,,,Greater,Smaller,,,0.185034014,-0.457142857,1,0,1,RightButton,"[""RightButton""]",,,,,2.539684789,1.603,space,,,,,,,,,,,,,,,,2,only_sub_right.png,1,RandomDot3.png,No answer,19,,,0.087,,0,3,3,2,1
