choose_trial,key_resp.keys,key_resp.rt,key_resp_4.keys,key_resp_4.rt,session_trait,slider_face_judge.response,slider_face_judge.rt,key_resp_3.keys,key_resp_3.rt,face_loop.thisRepN,face_loop.thisTrialN,face_loop.thisN,face_loop.thisIndex,face_loop.ran,face_serial,image_name,isCheck,answer,check_question,participant,session,date,expName,psychopyVersion,OS,frameRate,SONAid,session.thisRepN,session.thisTrialN,session.thisN,session.thisIndex,session.ran,session_serial,slider_judge_img
"[0,1,2,3,4,5,6,7,8,9,10,11,12,13,14,15,16,17,18,19,20,21,22,23,24,25,26,27,28,29,30,31,32,33,34,35,36,37,38,39,40,41,42,43,44,45,46,47,48,49,60,50,50]",space,54.7483,space,55.1719,competent,3.026673991,12.7689,space,3.3919,0,0,0,44,1,45,image/45.jpg,0,0,,R_2D6PXoNGiJXqobD,2,2024-04-16_15h40.26.352,face trait task,2021.2.3,MacIntel,62.89308176,120541,,,,,,,
,,,,,,1.976690877,6.4556,space,0.825,0,1,1,39,1,40,image/40.jpg,0,0,,R_2D6PXoNGiJXqobD,2,2024-04-16_15h40.26.352,face trait task,2021.2.3,MacIntel,62.89308176,120541,,,,,,,
,,,,,,2.999657796,5.8179,space,0.9172,0,2,2,49,1,50,image/50.jpg,0,0,,R_2D6PXoNGiJXqobD,2,2024-04-16_15h40.26.352,face trait task,2021.2.3,MacIntel,62.89308176,120541,,,,,,,
,,,,,,2.004613241,2.6557,space,0.7541,0,3,3,9,1,10,image/10.jpg,0,0,,R_2D6PXoNGiJXqobD,2,2024-04-16_15h40.26.352,face trait task,2021.2.3,MacIntel,62.89308176,120541,,,,,,,
,,,,,,4.995329997,15.3698,space,0.5004,0,4,4,47,1,48,image/48.jpg,0,0,,R_2D6PXoNGiJXqobD,2,2024-04-16_15h40.26.352,face trait task,2021.2.3,MacIntel,62.89308176,120541,,,,,,,
,,,,,,1.004253743,8.425,space,0.8766,0,5,5,12,1,13,image/13.jpg,0,0,,R_2D6PXoNGiJXqobD,2,2024-04-16_15h40.26.352,face trait task,2021.2.3,MacIntel,62.89308176,120541,,,,,,,
,,,,,,1.98245341,2.427,space,0.4246,0,6,6,11,1,12,image/12.jpg,0,0,,R_2D6PXoNGiJXqobD,2,2024-04-16_15h40.26.352,face trait task,2021.2.3,MacIntel,62.89308176,120541,,,,,,,
,,,,,,6.969640299,6.2356,space,0.3464,0,7,7,30,1,31,image/31.jpg,0,0,,R_2D6PXoNGiJXqobD,2,2024-04-16_15h40.26.352,face trait task,2021.2.3,MacIntel,62.89308176,120541,,,,,,,
,,,,,,2.018875326,3.6554,space,0.3318,0,8,8,17,1,18,image/18.jpg,0,0,,R_2D6PXoNGiJXqobD,2,2024-04-16_15h40.26.352,face trait task,2021.2.3,MacIntel,62.89308176,120541,,,,,,,
,,,,,,6.026669108,2.0899,space,0.3743,0,9,9,38,1,39,image/39.jpg,0,0,,R_2D6PXoNGiJXqobD,2,2024-04-16_15h40.26.352,face trait task,2021.2.3,MacIntel,62.89308176,120541,,,,,,,
,,,,,,5.021576742,3.2428,space,0.3411,0,10,10,33,1,34,image/34.jpg,0,0,,R_2D6PXoNGiJXqobD,2,2024-04-16_15h40.26.352,face trait task,2021.2.3,MacIntel,62.89308176,120541,,,,,,,
,,,,,,6.003820801,2.2224,space,0.3166,0,11,11,46,1,47,image/47.jpg,0,0,,R_2D6PXoNGiJXqobD,2,2024-04-16_15h40.26.352,face trait task,2021.2.3,MacIntel,62.89308176,120541,,,,,,,
,,,,,,6.996105957,2.6576,space,0.575,0,12,12,36,1,37,image/37.jpg,0,0,,R_2D6PXoNGiJXqobD,2,2024-04-16_15h40.26.352,face trait task,2021.2.3,MacIntel,62.89308176,120541,,,,,,,
,,,,,,5.00254598,10.8808,space,6.206,0,13,13,52,1,51,image/51.jpg,1,5,Please drag the slider to around 5 to indicate that you are paying attention,R_2D6PXoNGiJXqobD,2,2024-04-16_15h40.26.352,face trait task,2021.2.3,MacIntel,62.89308176,120541,,,,,,,
,,,,,,6.254904785,12.9695,space,0.8897,0,14,14,45,1,46,image/46.jpg,0,0,,R_2D6PXoNGiJXqobD,2,2024-04-16_15h40.26.352,face trait task,2021.2.3,MacIntel,62.89308176,120541,,,,,,,
,,,,,,5.996080729,7.1733,space,2.673,0,15,15,22,1,23,image/23.jpg,0,0,,R_2D6PXoNGiJXqobD,2,2024-04-16_15h40.26.352,face trait task,2021.2.3,MacIntel,62.89308176,120541,,,,,,,
,,,,,,6.992311198,2.3047,space,0.5955,0,16,16,29,1,30,image/30.jpg,0,0,,R_2D6PXoNGiJXqobD,2,2024-04-16_15h40.26.352,face trait task,2021.2.3,MacIntel,62.89308176,120541,,,,,,,
,,,,,,3.948159587,9.0596,space,0.6009,0,17,17,31,1,32,image/32.jpg,0,0,,R_2D6PXoNGiJXqobD,2,2024-04-16_15h40.26.352,face trait task,2021.2.3,MacIntel,62.89308176,120541,,,,,,,
,,,,,,2.970104167,2.12,space,0.3072,0,18,18,43,1,44,image/44.jpg,0,0,,R_2D6PXoNGiJXqobD,2,2024-04-16_15h40.26.352,face trait task,2021.2.3,MacIntel,62.89308176,120541,,,,,,,
,,,,,,6.049331868,2.4539,space,0.3189,0,19,19,19,1,20,image/20.jpg,0,0,,R_2D6PXoNGiJXqobD,2,2024-04-16_15h40.26.352,face trait task,2021.2.3,MacIntel,62.89308176,120541,,,,,,,
,,,,,,1.003246867,3.3839,space,0.3525,0,20,20,10,1,11,image/11.jpg,0,0,,R_2D6PXoNGiJXqobD,2,2024-04-16_15h40.26.352,face trait task,2021.2.3,MacIntel,62.89308176,120541,,,,,,,
,,,,,,3.00185262,2.4224,space,0.3416,0,21,21,48,1,49,image/49.jpg,0,0,,R_2D6PXoNGiJXqobD,2,2024-04-16_15h40.26.352,face trait task,2021.2.3,MacIntel,62.89308176,120541,,,,,,,
,,,,,,5.006338298,2.8252,space,0.309,0,22,22,18,1,19,image/19.jpg,0,0,,R_2D6PXoNGiJXqobD,2,2024-04-16_15h40.26.352,face trait task,2021.2.3,MacIntel,62.89308176,120541,,,,,,,
,,,,,,4.011755778,2.0277,space,0.3233,0,23,23,1,1,2,image/2.jpg,0,0,,R_2D6PXoNGiJXqobD,2,2024-04-16_15h40.26.352,face trait task,2021.2.3,MacIntel,62.89308176,120541,,,,,,,
,,,,,,5.989952799,1.896,space,0.3107,0,24,24,50,1,61,image/61.jpg,1,6,Please drag the slider to around 6 to indicate that you are paying attention,R_2D6PXoNGiJXqobD,2,2024-04-16_15h40.26.352,face trait task,2021.2.3,MacIntel,62.89308176,120541,,,,,,,
,,,,,,4.985499674,3.0865,space,0.3437,0,25,25,6,1,7,image/7.jpg,0,0,,R_2D6PXoNGiJXqobD,2,2024-04-16_15h40.26.352,face trait task,2021.2.3,MacIntel,62.89308176,120541,,,,,,,
,,,,,,2.978467611,2.4421,space,0.3344,0,26,26,35,1,36,image/36.jpg,0,0,,R_2D6PXoNGiJXqobD,2,2024-04-16_15h40.26.352,face trait task,2021.2.3,MacIntel,62.89308176,120541,,,,,,,
,,,,,,6.02395223,2.0719,space,0.2877,0,27,27,15,1,16,image/16.jpg,0,0,,R_2D6PXoNGiJXqobD,2,2024-04-16_15h40.26.352,face trait task,2021.2.3,MacIntel,62.89308176,120541,,,,,,,
,,,,,,3.992010091,2.2054,space,0.3043,0,28,28,28,1,29,image/29.jpg,0,0,,R_2D6PXoNGiJXqobD,2,2024-04-16_15h40.26.352,face trait task,2021.2.3,MacIntel,62.89308176,120541,,,,,,,
,,,,,,6.988671061,1.9771,space,0.3349,0,29,29,8,1,9,image/9.jpg,0,0,,R_2D6PXoNGiJXqobD,2,2024-04-16_15h40.26.352,face trait task,2021.2.3,MacIntel,62.89308176,120541,,,,,,,
,,,,,,6.98043457,1.5282,space,0.4199,0,30,30,0,1,1,image/1.jpg,0,0,,R_2D6PXoNGiJXqobD,2,2024-04-16_15h40.26.352,face trait task,2021.2.3,MacIntel,62.89308176,120541,,,,,,,
,,,,,,6.012846273,2.6371,space,0.26,0,31,31,42,1,43,image/43.jpg,0,0,,R_2D6PXoNGiJXqobD,2,2024-04-16_15h40.26.352,face trait task,2021.2.3,MacIntel,62.89308176,120541,,,,,,,
,,,,,,6.99171224,2.1223,space,0.4179,0,32,32,5,1,6,image/6.jpg,0,0,,R_2D6PXoNGiJXqobD,2,2024-04-16_15h40.26.352,face trait task,2021.2.3,MacIntel,62.89308176,120541,,,,,,,
,,,,,,6.99171224,1.4092,space,0.4167,0,33,33,13,1,14,image/14.jpg,0,0,,R_2D6PXoNGiJXqobD,2,2024-04-16_15h40.26.352,face trait task,2021.2.3,MacIntel,62.89308176,120541,,,,,,,
,,,,,,1.971113281,2.5212,space,0.4215,0,34,34,20,1,21,image/21.jpg,0,0,,R_2D6PXoNGiJXqobD,2,2024-04-16_15h40.26.352,face trait task,2021.2.3,MacIntel,62.89308176,120541,,,,,,,
,,,,,,1.00733785,3.2568,space,0.3425,0,35,35,4,1,5,image/5.jpg,0,0,,R_2D6PXoNGiJXqobD,2,2024-04-16_15h40.26.352,face trait task,2021.2.3,MacIntel,62.89308176,120541,,,,,,,
,,,,,,2.99776652,2.2089,space,0.3442,0,36,36,26,1,27,image/27.jpg,0,0,,R_2D6PXoNGiJXqobD,2,2024-04-16_15h40.26.352,face trait task,2021.2.3,MacIntel,62.89308176,120541,,,,,,,
,,,,,,5.980018311,2.6605,space,0.3027,0,37,37,40,1,41,image/41.jpg,0,0,,R_2D6PXoNGiJXqobD,2,2024-04-16_15h40.26.352,face trait task,2021.2.3,MacIntel,62.89308176,120541,,,,,,,
,,,,,,6.035785319,1.9492,space,0.5297,0,38,38,41,1,42,image/42.jpg,0,0,,R_2D6PXoNGiJXqobD,2,2024-04-16_15h40.26.352,face trait task,2021.2.3,MacIntel,62.89308176,120541,,,,,,,
,,,,,,6.013345133,1.5442,space,0.3901,0,39,39,24,1,25,image/25.jpg,0,0,,R_2D6PXoNGiJXqobD,2,2024-04-16_15h40.26.352,face trait task,2021.2.3,MacIntel,62.89308176,120541,,,,,,,
,,,,,,4.002799886,4.3033,space,0.2838,0,40,40,32,1,33,image/33.jpg,0,0,,R_2D6PXoNGiJXqobD,2,2024-04-16_15h40.26.352,face trait task,2021.2.3,MacIntel,62.89308176,120541,,,,,,,
,,,,,,6.060847982,2.2376,space,0.6645,0,41,41,25,1,26,image/26.jpg,0,0,,R_2D6PXoNGiJXqobD,2,2024-04-16_15h40.26.352,face trait task,2021.2.3,MacIntel,62.89308176,120541,,,,,,,
,,,,,,4.997270101,1.9571,space,0.3412,0,42,42,37,1,38,image/38.jpg,0,0,,R_2D6PXoNGiJXqobD,2,2024-04-16_15h40.26.352,face trait task,2021.2.3,MacIntel,62.89308176,120541,,,,,,,
,,,,,,3.988157959,4.0562,space,0.3686,0,43,43,51,1,51,image/51.jpg,1,5,Please drag the slider to around 5 to indicate that you are paying attention,R_2D6PXoNGiJXqobD,2,2024-04-16_15h40.26.352,face trait task,2021.2.3,MacIntel,62.89308176,120541,,,,,,,
,,,,,,5.023675944,6.4021,space,0.5293,0,44,44,2,1,3,image/3.jpg,0,0,,R_2D6PXoNGiJXqobD,2,2024-04-16_15h40.26.352,face trait task,2021.2.3,MacIntel,62.89308176,120541,,,,,,,
,,,,,,6.007982992,2.8912,space,0.3366,0,45,45,16,1,17,image/17.jpg,0,0,,R_2D6PXoNGiJXqobD,2,2024-04-16_15h40.26.352,face trait task,2021.2.3,MacIntel,62.89308176,120541,,,,,,,
,,,,,,6.972006836,3.37,space,0.3339,0,46,46,34,1,35,image/35.jpg,0,0,,R_2D6PXoNGiJXqobD,2,2024-04-16_15h40.26.352,face trait task,2021.2.3,MacIntel,62.89308176,120541,,,,,,,
,,,,,,6.002156576,4.9495,space,3.121,0,47,47,23,1,24,image/24.jpg,0,0,,R_2D6PXoNGiJXqobD,2,2024-04-16_15h40.26.352,face trait task,2021.2.3,MacIntel,62.89308176,120541,,,,,,,
,,,,,,6.977652995,2.3809,space,0.3839,0,48,48,14,1,15,image/15.jpg,0,0,,R_2D6PXoNGiJXqobD,2,2024-04-16_15h40.26.352,face trait task,2021.2.3,MacIntel,62.89308176,120541,,,,,,,
,,,,,,6.019600016,1.6228,space,0.3673,0,49,49,27,1,28,image/28.jpg,0,0,,R_2D6PXoNGiJXqobD,2,2024-04-16_15h40.26.352,face trait task,2021.2.3,MacIntel,62.89308176,120541,,,,,,,
,,,,,,5.996295573,3.1432,space,0.3499,0,50,50,3,1,4,image/4.jpg,0,0,,R_2D6PXoNGiJXqobD,2,2024-04-16_15h40.26.352,face trait task,2021.2.3,MacIntel,62.89308176,120541,,,,,,,
,,,,,,2.956210124,8.8768,space,0.3975,0,51,51,7,1,8,image/8.jpg,0,0,,R_2D6PXoNGiJXqobD,2,2024-04-16_15h40.26.352,face trait task,2021.2.3,MacIntel,62.89308176,120541,,,,,,,
,,,,,,4.991230062,2.0448,space,0.324,0,52,52,21,1,22,image/22.jpg,0,0,,R_2D6PXoNGiJXqobD,2,2024-04-16_15h40.26.352,face trait task,2021.2.3,MacIntel,62.89308176,120541,,,,,,,
,,,,,,,,,,,,,,,,,,,,R_2D6PXoNGiJXqobD,2,2024-04-16_15h40.26.352,face trait task,2021.2.3,MacIntel,62.89308176,120541,0,0,0,1,1,1,competent.png
,,,,,trustworthy,1.031413574,9.8152,space,0.9186,0,0,0,13,1,14,image/14.jpg,0,0,,R_2D6PXoNGiJXqobD,2,2024-04-16_15h40.26.352,face trait task,2021.2.3,MacIntel,62.89308176,120541,,,,,,,
,,,,,,2.026097209,3.2919,space,1.1833,0,1,1,46,1,47,image/47.jpg,0,0,,R_2D6PXoNGiJXqobD,2,2024-04-16_15h40.26.352,face trait task,2021.2.3,MacIntel,62.89308176,120541,,,,,,,
,,,,,,1.01273112,4.4578,space,1.7809,0,2,2,36,1,37,image/37.jpg,0,0,,R_2D6PXoNGiJXqobD,2,2024-04-16_15h40.26.352,face trait task,2021.2.3,MacIntel,62.89308176,120541,,,,,,,
,,,,,,2.978206787,5.1975,space,0.5521,0,3,3,45,1,46,image/46.jpg,0,0,,R_2D6PXoNGiJXqobD,2,2024-04-16_15h40.26.352,face trait task,2021.2.3,MacIntel,62.89308176,120541,,,,,,,
,,,,,,3.96911499,4.1365,space,0.2764,0,4,4,23,1,24,image/24.jpg,0,0,,R_2D6PXoNGiJXqobD,2,2024-04-16_15h40.26.352,face trait task,2021.2.3,MacIntel,62.89308176,120541,,,,,,,
,,,,,,6.031342773,3.3048,space,0.7899,0,5,5,34,1,35,image/35.jpg,0,0,,R_2D6PXoNGiJXqobD,2,2024-04-16_15h40.26.352,face trait task,2021.2.3,MacIntel,62.89308176,120541,,,,,,,
,,,,,,1.063424683,27.8944,space,5.0062,0,6,6,30,1,31,image/31.jpg,0,0,,R_2D6PXoNGiJXqobD,2,2024-04-16_15h40.26.352,face trait task,2021.2.3,MacIntel,62.89308176,120541,,,,,,,
,,,,,,3.012564697,2.6381,space,0.4166,0,7,7,19,1,20,image/20.jpg,0,0,,R_2D6PXoNGiJXqobD,2,2024-04-16_15h40.26.352,face trait task,2021.2.3,MacIntel,62.89308176,120541,,,,,,,
,,,,,,3.970619303,5.0242,space,0.3188,0,8,8,48,1,49,image/49.jpg,0,0,,R_2D6PXoNGiJXqobD,2,2024-04-16_15h40.26.352,face trait task,2021.2.3,MacIntel,62.89308176,120541,,,,,,,
,,,,,,2.989211833,3.4593,space,0.3378,0,9,9,5,1,6,image/6.jpg,0,0,,R_2D6PXoNGiJXqobD,2,2024-04-16_15h40.26.352,face trait task,2021.2.3,MacIntel,62.89308176,120541,,,,,,,
,,,,,,1.968289185,2.3424,space,0.3588,0,10,10,28,1,29,image/29.jpg,0,0,,R_2D6PXoNGiJXqobD,2,2024-04-16_15h40.26.352,face trait task,2021.2.3,MacIntel,62.89308176,120541,,,,,,,
,,,,,,5.000772705,4.1105,space,0.4345,0,11,11,2,1,3,image/3.jpg,0,0,,R_2D6PXoNGiJXqobD,2,2024-04-16_15h40.26.352,face trait task,2021.2.3,MacIntel,62.89308176,120541,,,,,,,
,,,,,,6.000027669,4.1205,space,3.6577,0,12,12,50,1,61,image/61.jpg,1,6,Please drag the slider to around 6 to indicate that you are paying attention,R_2D6PXoNGiJXqobD,2,2024-04-16_15h40.26.352,face trait task,2021.2.3,MacIntel,62.89308176,120541,,,,,,,
,,,,,,3.990282796,6.136,space,0.3006,0,13,13,27,1,28,image/28.jpg,0,0,,R_2D6PXoNGiJXqobD,2,2024-04-16_15h40.26.352,face trait task,2021.2.3,MacIntel,62.89308176,120541,,,,,,,
,,,,,,2.974731852,2.7946,space,0.4005,0,14,14,0,1,1,image/1.jpg,0,0,,R_2D6PXoNGiJXqobD,2,2024-04-16_15h40.26.352,face trait task,2021.2.3,MacIntel,62.89308176,120541,,,,,,,
,,,,,,2.964276123,3.7671,space,0.5198,0,15,15,15,1,16,image/16.jpg,0,0,,R_2D6PXoNGiJXqobD,2,2024-04-16_15h40.26.352,face trait task,2021.2.3,MacIntel,62.89308176,120541,,,,,,,
,,,,,,4.00702596,2.6582,space,0.2909,0,16,16,32,1,33,image/33.jpg,0,0,,R_2D6PXoNGiJXqobD,2,2024-04-16_15h40.26.352,face trait task,2021.2.3,MacIntel,62.89308176,120541,,,,,,,
,,,,,,5.97579834,2.328,space,1.0564,0,17,17,35,1,36,image/36.jpg,0,0,,R_2D6PXoNGiJXqobD,2,2024-04-16_15h40.26.352,face trait task,2021.2.3,MacIntel,62.89308176,120541,,,,,,,
,,,,,,3.979854329,3.6218,space,0.2856,0,18,18,40,1,41,image/41.jpg,0,0,,R_2D6PXoNGiJXqobD,2,2024-04-16_15h40.26.352,face trait task,2021.2.3,MacIntel,62.89308176,120541,,,,,,,
,,,,,,6.055638021,2.2267,space,0.6836,0,19,19,11,1,12,image/12.jpg,0,0,,R_2D6PXoNGiJXqobD,2,2024-04-16_15h40.26.352,face trait task,2021.2.3,MacIntel,62.89308176,120541,,,,,,,
,,,,,,4.001442871,2.3108,space,0.2824,0,20,20,42,1,43,image/43.jpg,0,0,,R_2D6PXoNGiJXqobD,2,2024-04-16_15h40.26.352,face trait task,2021.2.3,MacIntel,62.89308176,120541,,,,,,,
,,,,,,4.949683431,1.6732,space,0.4761,0,21,21,12,1,13,image/13.jpg,0,0,,R_2D6PXoNGiJXqobD,2,2024-04-16_15h40.26.352,face trait task,2021.2.3,MacIntel,62.89308176,120541,,,,,,,
,,,,,,1.957882284,4.3253,space,0.4095,0,22,22,38,1,39,image/39.jpg,0,0,,R_2D6PXoNGiJXqobD,2,2024-04-16_15h40.26.352,face trait task,2021.2.3,MacIntel,62.89308176,120541,,,,,,,
,,,,,,1.981641032,3.5989,space,1.2156,0,23,23,44,1,45,image/45.jpg,0,0,,R_2D6PXoNGiJXqobD,2,2024-04-16_15h40.26.352,face trait task,2021.2.3,MacIntel,62.89308176,120541,,,,,,,
,,,,,,5.058146973,2.4594,space,0.9817,0,24,24,26,1,27,image/27.jpg,0,0,,R_2D6PXoNGiJXqobD,2,2024-04-16_15h40.26.352,face trait task,2021.2.3,MacIntel,62.89308176,120541,,,,,,,
,,,,,,1.014000854,2.4265,space,0.4521,0,25,25,29,1,30,image/30.jpg,0,0,,R_2D6PXoNGiJXqobD,2,2024-04-16_15h40.26.352,face trait task,2021.2.3,MacIntel,62.89308176,120541,,,,,,,
,,,,,,1.9950413,3.4584,space,0.346,0,26,26,41,1,42,image/42.jpg,0,0,,R_2D6PXoNGiJXqobD,2,2024-04-16_15h40.26.352,face trait task,2021.2.3,MacIntel,62.89308176,120541,,,,,,,
,,,,,,2.018106893,2.2409,space,0.5038,0,27,27,7,1,8,image/8.jpg,0,0,,R_2D6PXoNGiJXqobD,2,2024-04-16_15h40.26.352,face trait task,2021.2.3,MacIntel,62.89308176,120541,,,,,,,
,,,,,,1.012384033,2.7598,space,0.6742,0,28,28,14,1,15,image/15.jpg,0,0,,R_2D6PXoNGiJXqobD,2,2024-04-16_15h40.26.352,face trait task,2021.2.3,MacIntel,62.89308176,120541,,,,,,,
,,,,,,2.996542562,4.0459,space,0.5526,0,29,29,1,1,2,image/2.jpg,0,0,,R_2D6PXoNGiJXqobD,2,2024-04-16_15h40.26.352,face trait task,2021.2.3,MacIntel,62.89308176,120541,,,,,,,
,,,,,,4.989191895,3.9717,space,0.3175,0,30,30,49,1,50,image/50.jpg,0,0,,R_2D6PXoNGiJXqobD,2,2024-04-16_15h40.26.352,face trait task,2021.2.3,MacIntel,62.89308176,120541,,,,,,,
,,,,,,4.01480306,1.9728,space,0.3173,0,31,31,22,1,23,image/23.jpg,0,0,,R_2D6PXoNGiJXqobD,2,2024-04-16_15h40.26.352,face trait task,2021.2.3,MacIntel,62.89308176,120541,,,,,,,
,,,,,,5.044905192,3.6672,space,0.3995,0,32,32,17,1,18,image/18.jpg,0,0,,R_2D6PXoNGiJXqobD,2,2024-04-16_15h40.26.352,face trait task,2021.2.3,MacIntel,62.89308176,120541,,,,,,,
,,,,,,4.999434814,2.3732,space,1.6355,0,33,33,31,1,32,image/32.jpg,0,0,,R_2D6PXoNGiJXqobD,2,2024-04-16_15h40.26.352,face trait task,2021.2.3,MacIntel,62.89308176,120541,,,,,,,
,,,,,,1.945361532,3.4437,space,0.5832,0,34,34,18,1,19,image/19.jpg,0,0,,R_2D6PXoNGiJXqobD,2,2024-04-16_15h40.26.352,face trait task,2021.2.3,MacIntel,62.89308176,120541,,,,,,,
,,,,,,1.977600098,2.7629,space,0.4377,0,35,35,37,1,38,image/38.jpg,0,0,,R_2D6PXoNGiJXqobD,2,2024-04-16_15h40.26.352,face trait task,2021.2.3,MacIntel,62.89308176,120541,,,,,,,
,,,,,,4.021083577,3.5541,space,0.8434,0,36,36,25,1,26,image/26.jpg,0,0,,R_2D6PXoNGiJXqobD,2,2024-04-16_15h40.26.352,face trait task,2021.2.3,MacIntel,62.89308176,120541,,,,,,,
,,,,,,1.003058879,1.9614,space,0.7004,0,37,37,24,1,25,image/25.jpg,0,0,,R_2D6PXoNGiJXqobD,2,2024-04-16_15h40.26.352,face trait task,2021.2.3,MacIntel,62.89308176,120541,,,,,,,
,,,,,,2.000401815,2.2707,space,0.8204,0,38,38,3,1,4,image/4.jpg,0,0,,R_2D6PXoNGiJXqobD,2,2024-04-16_15h40.26.352,face trait task,2021.2.3,MacIntel,62.89308176,120541,,,,,,,
,,,,,,1.006118164,3.6245,space,0.8416,0,39,39,16,1,17,image/17.jpg,0,0,,R_2D6PXoNGiJXqobD,2,2024-04-16_15h40.26.352,face trait task,2021.2.3,MacIntel,62.89308176,120541,,,,,,,
,,,,,,2.019211222,2.4205,space,0.3861,0,40,40,10,1,11,image/11.jpg,0,0,,R_2D6PXoNGiJXqobD,2,2024-04-16_15h40.26.352,face trait task,2021.2.3,MacIntel,62.89308176,120541,,,,,,,
,,,,,,2.015827026,3.6705,space,0.4022,0,41,41,39,1,40,image/40.jpg,0,0,,R_2D6PXoNGiJXqobD,2,2024-04-16_15h40.26.352,face trait task,2021.2.3,MacIntel,62.89308176,120541,,,,,,,
,,,,,,1.01506429,2.1771,space,1.4512,0,42,42,8,1,9,image/9.jpg,0,0,,R_2D6PXoNGiJXqobD,2,2024-04-16_15h40.26.352,face trait task,2021.2.3,MacIntel,62.89308176,120541,,,,,,,
,,,,,,1.015796712,4.6025,space,0.4109,0,43,43,9,1,10,image/10.jpg,0,0,,R_2D6PXoNGiJXqobD,2,2024-04-16_15h40.26.352,face trait task,2021.2.3,MacIntel,62.89308176,120541,,,,,,,
,,,,,,4.988926188,2.5748,space,0.7355,0,44,44,51,1,51,image/51.jpg,1,5,Please drag the slider to around 5 to indicate that you are paying attention,R_2D6PXoNGiJXqobD,2,2024-04-16_15h40.26.352,face trait task,2021.2.3,MacIntel,62.89308176,120541,,,,,,,
,,,,,,5.002263997,4.2218,space,0.4994,0,45,45,4,1,5,image/5.jpg,0,0,,R_2D6PXoNGiJXqobD,2,2024-04-16_15h40.26.352,face trait task,2021.2.3,MacIntel,62.89308176,120541,,,,,,,
,,,,,,1.989632161,3.3398,space,1.3035,0,46,46,47,1,48,image/48.jpg,0,0,,R_2D6PXoNGiJXqobD,2,2024-04-16_15h40.26.352,face trait task,2021.2.3,MacIntel,62.89308176,120541,,,,,,,
,,,,,,2.000002441,9.8916,space,0.6935,0,47,47,21,1,22,image/22.jpg,0,0,,R_2D6PXoNGiJXqobD,2,2024-04-16_15h40.26.352,face trait task,2021.2.3,MacIntel,62.89308176,120541,,,,,,,
,,,,,,2.986217448,3.7956,space,0.7331,0,48,48,33,1,34,image/34.jpg,0,0,,R_2D6PXoNGiJXqobD,2,2024-04-16_15h40.26.352,face trait task,2021.2.3,MacIntel,62.89308176,120541,,,,,,,
,,,,,,3.992857666,4.107,space,2.7008,0,49,49,20,1,21,image/21.jpg,0,0,,R_2D6PXoNGiJXqobD,2,2024-04-16_15h40.26.352,face trait task,2021.2.3,MacIntel,62.89308176,120541,,,,,,,
,,,,,,5.058524984,3.2041,space,6.8721,0,50,50,52,1,51,image/51.jpg,1,5,Please drag the slider to around 5 to indicate that you are paying attention,R_2D6PXoNGiJXqobD,2,2024-04-16_15h40.26.352,face trait task,2021.2.3,MacIntel,62.89308176,120541,,,,,,,
,,,,,,2.040085449,3.752,space,0.5753,0,51,51,6,1,7,image/7.jpg,0,0,,R_2D6PXoNGiJXqobD,2,2024-04-16_15h40.26.352,face trait task,2021.2.3,MacIntel,62.89308176,120541,,,,,,,
,,,,,,3.962216797,3.1387,space,0.5525,0,52,52,43,1,44,image/44.jpg,0,0,,R_2D6PXoNGiJXqobD,2,2024-04-16_15h40.26.352,face trait task,2021.2.3,MacIntel,62.89308176,120541,,,,,,,
,,,,,,,,,,,,,,,,,,,,R_2D6PXoNGiJXqobD,2,2024-04-16_15h40.26.352,face trait task,2021.2.3,MacIntel,62.89308176,120541,0,1,1,2,1,2,trustworthy.png
,,,,,friendly,1.000396118,6.8278,space,0.8925,0,0,0,18,1,19,image/19.jpg,0,0,,R_2D6PXoNGiJXqobD,2,2024-04-16_15h40.26.352,face trait task,2021.2.3,MacIntel,62.89308176,120541,,,,,,,
,,,,,,1.000396118,2.761,space,0.7169,0,1,1,9,1,10,image/10.jpg,0,0,,R_2D6PXoNGiJXqobD,2,2024-04-16_15h40.26.352,face trait task,2021.2.3,MacIntel,62.89308176,120541,,,,,,,
,,,,,,1.000396118,2.663,space,0.7218,0,2,2,28,1,29,image/29.jpg,0,0,,R_2D6PXoNGiJXqobD,2,2024-04-16_15h40.26.352,face trait task,2021.2.3,MacIntel,62.89308176,120541,,,,,,,
,,,,,,1.000396118,2.4129,space,0.4884,0,3,3,22,1,23,image/23.jpg,0,0,,R_2D6PXoNGiJXqobD,2,2024-04-16_15h40.26.352,face trait task,2021.2.3,MacIntel,62.89308176,120541,,,,,,,
,,,,,,1.000858561,3.6472,space,0.7373,0,4,4,44,1,45,image/45.jpg,0,0,,R_2D6PXoNGiJXqobD,2,2024-04-16_15h40.26.352,face trait task,2021.2.3,MacIntel,62.89308176,120541,,,,,,,
,,,,,,1.05717631,2.7056,space,0.7172,0,5,5,45,1,46,image/46.jpg,0,0,,R_2D6PXoNGiJXqobD,2,2024-04-16_15h40.26.352,face trait task,2021.2.3,MacIntel,62.89308176,120541,,,,,,,
,,,,,,3.982939046,5.7194,space,1.0846,0,6,6,48,1,49,image/49.jpg,0,0,,R_2D6PXoNGiJXqobD,2,2024-04-16_15h40.26.352,face trait task,2021.2.3,MacIntel,62.89308176,120541,,,,,,,
,,,,,,4.023566895,2.99,space,0.5214,0,7,7,40,1,41,image/41.jpg,0,0,,R_2D6PXoNGiJXqobD,2,2024-04-16_15h40.26.352,face trait task,2021.2.3,MacIntel,62.89308176,120541,,,,,,,
,,,,,,1.020562134,17.188,space,0.666,0,8,8,38,1,39,image/39.jpg,0,0,,R_2D6PXoNGiJXqobD,2,2024-04-16_15h40.26.352,face trait task,2021.2.3,MacIntel,62.89308176,120541,,,,,,,
,,,,,,4.996031494,10.8078,space,1.1655,0,9,9,11,1,12,image/12.jpg,0,0,,R_2D6PXoNGiJXqobD,2,2024-04-16_15h40.26.352,face trait task,2021.2.3,MacIntel,62.89308176,120541,,,,,,,
,,,,,,1.011116943,10.3372,space,0.6438,0,10,10,13,1,14,image/14.jpg,0,0,,R_2D6PXoNGiJXqobD,2,2024-04-16_15h40.26.352,face trait task,2021.2.3,MacIntel,62.89308176,120541,,,,,,,
,,,,,,4.033234049,2.2593,space,0.4045,0,11,11,7,1,8,image/8.jpg,0,0,,R_2D6PXoNGiJXqobD,2,2024-04-16_15h40.26.352,face trait task,2021.2.3,MacIntel,62.89308176,120541,,,,,,,
,,,,,,5.022994792,1.8418,space,0.4381,0,12,12,35,1,36,image/36.jpg,0,0,,R_2D6PXoNGiJXqobD,2,2024-04-16_15h40.26.352,face trait task,2021.2.3,MacIntel,62.89308176,120541,,,,,,,
,,,,,,5.028570557,2.3942,space,0.4507,0,13,13,4,1,5,image/5.jpg,0,0,,R_2D6PXoNGiJXqobD,2,2024-04-16_15h40.26.352,face trait task,2021.2.3,MacIntel,62.89308176,120541,,,,,,,
,,,,,,3.987766927,2.2221,space,0.5685,0,14,14,33,1,34,image/34.jpg,0,0,,R_2D6PXoNGiJXqobD,2,2024-04-16_15h40.26.352,face trait task,2021.2.3,MacIntel,62.89308176,120541,,,,,,,
,,,,,,1.960522664,2.0579,space,0.4176,0,15,15,42,1,43,image/43.jpg,0,0,,R_2D6PXoNGiJXqobD,2,2024-04-16_15h40.26.352,face trait task,2021.2.3,MacIntel,62.89308176,120541,,,,,,,
,,,,,,5.035428467,2.5254,space,0.9184,0,16,16,51,1,51,image/51.jpg,1,5,Please drag the slider to around 5 to indicate that you are paying attention,R_2D6PXoNGiJXqobD,2,2024-04-16_15h40.26.352,face trait task,2021.2.3,MacIntel,62.89308176,120541,,,,,,,
,,,,,,4.050401204,5.1742,space,0.6733,0,17,17,31,1,32,image/32.jpg,0,0,,R_2D6PXoNGiJXqobD,2,2024-04-16_15h40.26.352,face trait task,2021.2.3,MacIntel,62.89308176,120541,,,,,,,
,,,,,,5.994969076,3.523,space,0.6654,0,18,18,50,1,61,image/61.jpg,1,6,Please drag the slider to around 6 to indicate that you are paying attention,R_2D6PXoNGiJXqobD,2,2024-04-16_15h40.26.352,face trait task,2021.2.3,MacIntel,62.89308176,120541,,,,,,,
,,,,,,1.014804281,2.9732,space,0.4333,0,19,19,15,1,16,image/16.jpg,0,0,,R_2D6PXoNGiJXqobD,2,2024-04-16_15h40.26.352,face trait task,2021.2.3,MacIntel,62.89308176,120541,,,,,,,
,,,,,,3.995640055,2.261,space,0.6998,0,20,20,32,1,33,image/33.jpg,0,0,,R_2D6PXoNGiJXqobD,2,2024-04-16_15h40.26.352,face trait task,2021.2.3,MacIntel,62.89308176,120541,,,,,,,
,,,,,,3.014175618,3.5632,space,0.7932,0,21,21,41,1,42,image/42.jpg,0,0,,R_2D6PXoNGiJXqobD,2,2024-04-16_15h40.26.352,face trait task,2021.2.3,MacIntel,62.89308176,120541,,,,,,,
,,,,,,1.019656982,3.642,space,0.4925,0,22,22,47,1,48,image/48.jpg,0,0,,R_2D6PXoNGiJXqobD,2,2024-04-16_15h40.26.352,face trait task,2021.2.3,MacIntel,62.89308176,120541,,,,,,,
,,,,,,3.977461344,2.2781,space,0.9487,0,23,23,12,1,13,image/13.jpg,0,0,,R_2D6PXoNGiJXqobD,2,2024-04-16_15h40.26.352,face trait task,2021.2.3,MacIntel,62.89308176,120541,,,,,,,
,,,,,,4.017996419,3.5886,space,0.5167,0,24,24,37,1,38,image/38.jpg,0,0,,R_2D6PXoNGiJXqobD,2,2024-04-16_15h40.26.352,face trait task,2021.2.3,MacIntel,62.89308176,120541,,,,,,,
,,,,,,1.017465617,2.6087,space,0.6515,0,25,25,14,1,15,image/15.jpg,0,0,,R_2D6PXoNGiJXqobD,2,2024-04-16_15h40.26.352,face trait task,2021.2.3,MacIntel,62.89308176,120541,,,,,,,
,,,,,,2.008121338,2.184,space,0.3618,0,26,26,19,1,20,image/20.jpg,0,0,,R_2D6PXoNGiJXqobD,2,2024-04-16_15h40.26.352,face trait task,2021.2.3,MacIntel,62.89308176,120541,,,,,,,
,,,,,,4.964123128,2.2194,space,1.3056,0,27,27,52,1,51,image/51.jpg,1,5,Please drag the slider to around 5 to indicate that you are paying attention,R_2D6PXoNGiJXqobD,2,2024-04-16_15h40.26.352,face trait task,2021.2.3,MacIntel,62.89308176,120541,,,,,,,
,,,,,,2.960085042,3.2191,space,0.5683,0,28,28,36,1,37,image/37.jpg,0,0,,R_2D6PXoNGiJXqobD,2,2024-04-16_15h40.26.352,face trait task,2021.2.3,MacIntel,62.89308176,120541,,,,,,,
,,,,,,4.982957764,2.5129,space,0.4514,0,29,29,43,1,44,image/44.jpg,0,0,,R_2D6PXoNGiJXqobD,2,2024-04-16_15h40.26.352,face trait task,2021.2.3,MacIntel,62.89308176,120541,,,,,,,
,,,,,,1.008994344,2.4088,space,0.4386,0,30,30,39,1,40,image/40.jpg,0,0,,R_2D6PXoNGiJXqobD,2,2024-04-16_15h40.26.352,face trait task,2021.2.3,MacIntel,62.89308176,120541,,,,,,,
,,,,,,1.017421468,2.3964,space,0.589,0,31,31,29,1,30,image/30.jpg,0,0,,R_2D6PXoNGiJXqobD,2,2024-04-16_15h40.26.352,face trait task,2021.2.3,MacIntel,62.89308176,120541,,,,,,,
,,,,,,4.002101644,2.5045,space,0.5757,0,32,32,0,1,1,image/1.jpg,0,0,,R_2D6PXoNGiJXqobD,2,2024-04-16_15h40.26.352,face trait task,2021.2.3,MacIntel,62.89308176,120541,,,,,,,
,,,,,,4.991796875,5.777,space,0.6923,0,33,33,17,1,18,image/18.jpg,0,0,,R_2D6PXoNGiJXqobD,2,2024-04-16_15h40.26.352,face trait task,2021.2.3,MacIntel,62.89308176,120541,,,,,,,
,,,,,,1.024062093,2.0872,space,0.9692,0,34,34,16,1,17,image/17.jpg,0,0,,R_2D6PXoNGiJXqobD,2,2024-04-16_15h40.26.352,face trait task,2021.2.3,MacIntel,62.89308176,120541,,,,,,,
,,,,,,1.019689535,2.5075,space,0.7183,0,35,35,30,1,31,image/31.jpg,0,0,,R_2D6PXoNGiJXqobD,2,2024-04-16_15h40.26.352,face trait task,2021.2.3,MacIntel,62.89308176,120541,,,,,,,
,,,,,,2.98366862,2.9595,space,0.3431,0,36,36,34,1,35,image/35.jpg,0,0,,R_2D6PXoNGiJXqobD,2,2024-04-16_15h40.26.352,face trait task,2021.2.3,MacIntel,62.89308176,120541,,,,,,,
,,,,,,4.019963786,3.3074,space,1.637,0,37,37,20,1,21,image/21.jpg,0,0,,R_2D6PXoNGiJXqobD,2,2024-04-16_15h40.26.352,face trait task,2021.2.3,MacIntel,62.89308176,120541,,,,,,,
,,,,,,4.008484701,2.3423,space,0.4213,0,38,38,10,1,11,image/11.jpg,0,0,,R_2D6PXoNGiJXqobD,2,2024-04-16_15h40.26.352,face trait task,2021.2.3,MacIntel,62.89308176,120541,,,,,,,
,,,,,,5.015135905,2.7479,space,1.0198,0,39,39,49,1,50,image/50.jpg,0,0,,R_2D6PXoNGiJXqobD,2,2024-04-16_15h40.26.352,face trait task,2021.2.3,MacIntel,62.89308176,120541,,,,,,,
,,,,,,1.030299886,2.4545,space,0.933,0,40,40,46,1,47,image/47.jpg,0,0,,R_2D6PXoNGiJXqobD,2,2024-04-16_15h40.26.352,face trait task,2021.2.3,MacIntel,62.89308176,120541,,,,,,,
,,,,,,1.008949585,3.5263,space,0.4016,0,41,41,8,1,9,image/9.jpg,0,0,,R_2D6PXoNGiJXqobD,2,2024-04-16_15h40.26.352,face trait task,2021.2.3,MacIntel,62.89308176,120541,,,,,,,
,,,,,,4.019775391,3.4897,space,0.6975,0,42,42,26,1,27,image/27.jpg,0,0,,R_2D6PXoNGiJXqobD,2,2024-04-16_15h40.26.352,face trait task,2021.2.3,MacIntel,62.89308176,120541,,,,,,,
,,,,,,1.997462565,3.276,space,0.3578,0,43,43,1,1,2,image/2.jpg,0,0,,R_2D6PXoNGiJXqobD,2,2024-04-16_15h40.26.352,face trait task,2021.2.3,MacIntel,62.89308176,120541,,,,,,,
,,,,,,1.014414266,1.8269,space,0.5013,0,44,44,21,1,22,image/22.jpg,0,0,,R_2D6PXoNGiJXqobD,2,2024-04-16_15h40.26.352,face trait task,2021.2.3,MacIntel,62.89308176,120541,,,,,,,
,,,,,,1.014414266,2.1647,space,0.4821,0,45,45,24,1,25,image/25.jpg,0,0,,R_2D6PXoNGiJXqobD,2,2024-04-16_15h40.26.352,face trait task,2021.2.3,MacIntel,62.89308176,120541,,,,,,,
,,,,,,3.983479411,4.1733,space,0.6419,0,46,46,25,1,26,image/26.jpg,0,0,,R_2D6PXoNGiJXqobD,2,2024-04-16_15h40.26.352,face trait task,2021.2.3,MacIntel,62.89308176,120541,,,,,,,
,,,,,,1.009079793,4.6061,space,0.4247,0,47,47,6,1,7,image/7.jpg,0,0,,R_2D6PXoNGiJXqobD,2,2024-04-16_15h40.26.352,face trait task,2021.2.3,MacIntel,62.89308176,120541,,,,,,,
,,,,,,3.954405111,2.3406,space,0.7498,0,48,48,27,1,28,image/28.jpg,0,0,,R_2D6PXoNGiJXqobD,2,2024-04-16_15h40.26.352,face trait task,2021.2.3,MacIntel,62.89308176,120541,,,,,,,
,,,,,,2.000342611,2.9276,space,0.7362,0,49,49,5,1,6,image/6.jpg,0,0,,R_2D6PXoNGiJXqobD,2,2024-04-16_15h40.26.352,face trait task,2021.2.3,MacIntel,62.89308176,120541,,,,,,,
,,,,,,2.003527222,2.3746,space,0.7071,0,50,50,23,1,24,image/24.jpg,0,0,,R_2D6PXoNGiJXqobD,2,2024-04-16_15h40.26.352,face trait task,2021.2.3,MacIntel,62.89308176,120541,,,,,,,
,,,,,,4.007316081,2.4104,space,0.4161,0,51,51,2,1,3,image/3.jpg,0,0,,R_2D6PXoNGiJXqobD,2,2024-04-16_15h40.26.352,face trait task,2021.2.3,MacIntel,62.89308176,120541,,,,,,,
,,,,,,4.029549154,3.3695,space,0.5215,0,52,52,3,1,4,image/4.jpg,0,0,,R_2D6PXoNGiJXqobD,2,2024-04-16_15h40.26.352,face trait task,2021.2.3,MacIntel,62.89308176,120541,,,,,,,
,,,,,,,,,,,,,,,,,,,,R_2D6PXoNGiJXqobD,2,2024-04-16_15h40.26.352,face trait task,2021.2.3,MacIntel,62.89308176,120541,0,2,2,3,1,3,friendly.png
,,,,,critical,3.984505615,5.8619,space,1.001,0,0,0,12,1,13,image/13.jpg,0,0,,R_2D6PXoNGiJXqobD,2,2024-04-16_15h40.26.352,face trait task,2021.2.3,MacIntel,62.89308176,120541,,,,,,,
,,,,,,1.946184489,2.4384,space,0.5162,0,1,1,37,1,38,image/38.jpg,0,0,,R_2D6PXoNGiJXqobD,2,2024-04-16_15h40.26.352,face trait task,2021.2.3,MacIntel,62.89308176,120541,,,,,,,
,,,,,,4.035512695,2.5079,space,0.6836,0,2,2,43,1,44,image/44.jpg,0,0,,R_2D6PXoNGiJXqobD,2,2024-04-16_15h40.26.352,face trait task,2021.2.3,MacIntel,62.89308176,120541,,,,,,,
,,,,,,4.999059245,1.8774,space,0.4016,0,3,3,27,1,28,image/28.jpg,0,0,,R_2D6PXoNGiJXqobD,2,2024-04-16_15h40.26.352,face trait task,2021.2.3,MacIntel,62.89308176,120541,,,,,,,
,,,,,,4.999059245,1.9561,space,0.4942,0,4,4,26,1,27,image/27.jpg,0,0,,R_2D6PXoNGiJXqobD,2,2024-04-16_15h40.26.352,face trait task,2021.2.3,MacIntel,62.89308176,120541,,,,,,,
,,,,,,2.986376546,2.0103,space,0.3717,0,5,5,42,1,43,image/43.jpg,0,0,,R_2D6PXoNGiJXqobD,2,2024-04-16_15h40.26.352,face trait task,2021.2.3,MacIntel,62.89308176,120541,,,,,,,
,,,,,,4.982684733,2.4125,space,0.7183,0,6,6,15,1,16,image/16.jpg,0,0,,R_2D6PXoNGiJXqobD,2,2024-04-16_15h40.26.352,face trait task,2021.2.3,MacIntel,62.89308176,120541,,,,,,,
,,,,,,4.025085042,2.489,space,0.4562,0,7,7,30,1,31,image/31.jpg,0,0,,R_2D6PXoNGiJXqobD,2,2024-04-16_15h40.26.352,face trait task,2021.2.3,MacIntel,62.89308176,120541,,,,,,,
,,,,,,4.944475505,2.3716,space,0.4582,0,8,8,38,1,39,image/39.jpg,0,0,,R_2D6PXoNGiJXqobD,2,2024-04-16_15h40.26.352,face trait task,2021.2.3,MacIntel,62.89308176,120541,,,,,,,
,,,,,,2.987108968,1.957,space,0.2582,0,9,9,39,1,40,image/40.jpg,0,0,,R_2D6PXoNGiJXqobD,2,2024-04-16_15h40.26.352,face trait task,2021.2.3,MacIntel,62.89308176,120541,,,,,,,
,,,,,,4.960778402,1.9601,space,0.3759,0,10,10,5,1,6,image/6.jpg,0,0,,R_2D6PXoNGiJXqobD,2,2024-04-16_15h40.26.352,face trait task,2021.2.3,MacIntel,62.89308176,120541,,,,,,,
,,,,,,5.012779134,1.2597,space,0.2883,0,11,11,50,1,61,image/61.jpg,1,6,Please drag the slider to around 6 to indicate that you are paying attention,R_2D6PXoNGiJXqobD,2,2024-04-16_15h40.26.352,face trait task,2021.2.3,MacIntel,62.89308176,120541,,,,,,,
,,,,,,4.015703939,5.4035,space,0.3016,0,12,12,29,1,30,image/30.jpg,0,0,,R_2D6PXoNGiJXqobD,2,2024-04-16_15h40.26.352,face trait task,2021.2.3,MacIntel,62.89308176,120541,,,,,,,
,,,,,,4.976489258,2.3557,space,0.6061,0,13,13,28,1,29,image/29.jpg,0,0,,R_2D6PXoNGiJXqobD,2,2024-04-16_15h40.26.352,face trait task,2021.2.3,MacIntel,62.89308176,120541,,,,,,,
,,,,,,1.933752848,1.7743,space,1.6017,0,14,14,1,1,2,image/2.jpg,0,0,,R_2D6PXoNGiJXqobD,2,2024-04-16_15h40.26.352,face trait task,2021.2.3,MacIntel,62.89308176,120541,,,,,,,
,,,,,,4.975883789,2.6388,space,0.4616,0,15,15,21,1,22,image/22.jpg,0,0,,R_2D6PXoNGiJXqobD,2,2024-04-16_15h40.26.352,face trait task,2021.2.3,MacIntel,62.89308176,120541,,,,,,,
,,,,,,3.987362874,1.4396,space,0.2646,0,16,16,10,1,11,image/11.jpg,0,0,,R_2D6PXoNGiJXqobD,2,2024-04-16_15h40.26.352,face trait task,2021.2.3,MacIntel,62.89308176,120541,,,,,,,
,,,,,,1.010002848,5.5437,space,1.0762,0,17,17,20,1,21,image/21.jpg,0,0,,R_2D6PXoNGiJXqobD,2,2024-04-16_15h40.26.352,face trait task,2021.2.3,MacIntel,62.89308176,120541,,,,,,,
,,,,,,3.97776652,2.53,space,0.4488,0,18,18,14,1,15,image/15.jpg,0,0,,R_2D6PXoNGiJXqobD,2,2024-04-16_15h40.26.352,face trait task,2021.2.3,MacIntel,62.89308176,120541,,,,,,,
,,,,,,2.997532959,2.273,space,0.3639,0,19,19,6,1,7,image/7.jpg,0,0,,R_2D6PXoNGiJXqobD,2,2024-04-16_15h40.26.352,face trait task,2021.2.3,MacIntel,62.89308176,120541,,,,,,,
,,,,,,5.00037679,1.9922,space,0.2847,0,20,20,48,1,49,image/49.jpg,0,0,,R_2D6PXoNGiJXqobD,2,2024-04-16_15h40.26.352,face trait task,2021.2.3,MacIntel,62.89308176,120541,,,,,,,
,,,,,,1.932278646,2.0217,space,1.357,0,21,21,17,1,18,image/18.jpg,0,0,,R_2D6PXoNGiJXqobD,2,2024-04-16_15h40.26.352,face trait task,2021.2.3,MacIntel,62.89308176,120541,,,,,,,
,,,,,,3.996872965,1.9071,space,0.6542,0,22,22,44,1,45,image/45.jpg,0,0,,R_2D6PXoNGiJXqobD,2,2024-04-16_15h40.26.352,face trait task,2021.2.3,MacIntel,62.89308176,120541,,,,,,,
,,,,,,1.004322306,3.0169,space,0.4497,0,23,23,35,1,36,image/36.jpg,0,0,,R_2D6PXoNGiJXqobD,2,2024-04-16_15h40.26.352,face trait task,2021.2.3,MacIntel,62.89308176,120541,,,,,,,
,,,,,,3.998666992,2.5713,space,0.9254,0,24,24,34,1,35,image/35.jpg,0,0,,R_2D6PXoNGiJXqobD,2,2024-04-16_15h40.26.352,face trait task,2021.2.3,MacIntel,62.89308176,120541,,,,,,,
,,,,,,4.978991292,41.872,space,0.3415,0,25,25,31,1,32,image/32.jpg,0,0,,R_2D6PXoNGiJXqobD,2,2024-04-16_15h40.26.352,face trait task,2021.2.3,MacIntel,62.89308176,120541,,,,,,,
,,,,,,2.980683594,3.0275,space,0.318,0,26,26,18,1,19,image/19.jpg,0,0,,R_2D6PXoNGiJXqobD,2,2024-04-16_15h40.26.352,face trait task,2021.2.3,MacIntel,62.89308176,120541,,,,,,,
,,,,,,1.980386353,2.343,space,0.3979,0,27,27,32,1,33,image/33.jpg,0,0,,R_2D6PXoNGiJXqobD,2,2024-04-16_15h40.26.352,face trait task,2021.2.3,MacIntel,62.89308176,120541,,,,,,,
,,,,,,1.017191366,3.1808,space,0.437,0,28,28,4,1,5,image/5.jpg,0,0,,R_2D6PXoNGiJXqobD,2,2024-04-16_15h40.26.352,face trait task,2021.2.3,MacIntel,62.89308176,120541,,,,,,,
,,,,,,4.02591512,2.0406,space,0.4083,0,29,29,33,1,34,image/34.jpg,0,0,,R_2D6PXoNGiJXqobD,2,2024-04-16_15h40.26.352,face trait task,2021.2.3,MacIntel,62.89308176,120541,,,,,,,
,,,,,,1.007524211,3.3123,space,0.3039,0,30,30,2,1,3,image/3.jpg,0,0,,R_2D6PXoNGiJXqobD,2,2024-04-16_15h40.26.352,face trait task,2021.2.3,MacIntel,62.89308176,120541,,,,,,,
,,,,,,5.010303955,2.7628,space,0.5656,0,31,31,52,1,51,image/51.jpg,1,5,Please drag the slider to around 5 to indicate that you are paying attention,R_2D6PXoNGiJXqobD,2,2024-04-16_15h40.26.352,face trait task,2021.2.3,MacIntel,62.89308176,120541,,,,,,,
,,,,,,5.010303955,2.4856,space,0.7671,0,32,32,23,1,24,image/24.jpg,0,0,,R_2D6PXoNGiJXqobD,2,2024-04-16_15h40.26.352,face trait task,2021.2.3,MacIntel,62.89308176,120541,,,,,,,
,,,,,,3.991201986,2.7769,space,0.7315,0,33,33,41,1,42,image/42.jpg,0,0,,R_2D6PXoNGiJXqobD,2,2024-04-16_15h40.26.352,face trait task,2021.2.3,MacIntel,62.89308176,120541,,,,,,,
,,,,,,4.97978068,2.0769,space,0.3234,0,34,34,45,1,46,image/46.jpg,0,0,,R_2D6PXoNGiJXqobD,2,2024-04-16_15h40.26.352,face trait task,2021.2.3,MacIntel,62.89308176,120541,,,,,,,
,,,,,,4.027053223,2.1586,space,0.3422,0,35,35,0,1,1,image/1.jpg,0,0,,R_2D6PXoNGiJXqobD,2,2024-04-16_15h40.26.352,face trait task,2021.2.3,MacIntel,62.89308176,120541,,,,,,,
,,,,,,6.016401367,4.5605,space,0.3455,0,36,36,16,1,17,image/17.jpg,0,0,,R_2D6PXoNGiJXqobD,2,2024-04-16_15h40.26.352,face trait task,2021.2.3,MacIntel,62.89308176,120541,,,,,,,
,,,,,,4.002969157,2.5955,space,0.3548,0,37,37,46,1,47,image/47.jpg,0,0,,R_2D6PXoNGiJXqobD,2,2024-04-16_15h40.26.352,face trait task,2021.2.3,MacIntel,62.89308176,120541,,,,,,,
,,,,,,6.015581055,1.9309,space,0.4401,0,38,38,9,1,10,image/10.jpg,0,0,,R_2D6PXoNGiJXqobD,2,2024-04-16_15h40.26.352,face trait task,2021.2.3,MacIntel,62.89308176,120541,,,,,,,
,,,,,,1.99117981,1.8613,space,0.2831,0,39,39,22,1,23,image/23.jpg,0,0,,R_2D6PXoNGiJXqobD,2,2024-04-16_15h40.26.352,face trait task,2021.2.3,MacIntel,62.89308176,120541,,,,,,,
,,,,,,5.004289551,1.906,space,0.3369,0,40,40,13,1,14,image/14.jpg,0,0,,R_2D6PXoNGiJXqobD,2,2024-04-16_15h40.26.352,face trait task,2021.2.3,MacIntel,62.89308176,120541,,,,,,,
,,,,,,1.047583618,8.1668,space,0.7947,0,41,41,40,1,41,image/41.jpg,0,0,,R_2D6PXoNGiJXqobD,2,2024-04-16_15h40.26.352,face trait task,2021.2.3,MacIntel,62.89308176,120541,,,,,,,
,,,,,,4.972592773,2.4687,space,1.572,0,42,42,51,1,51,image/51.jpg,1,5,Please drag the slider to around 5 to indicate that you are paying attention,R_2D6PXoNGiJXqobD,2,2024-04-16_15h40.26.352,face trait task,2021.2.3,MacIntel,62.89308176,120541,,,,,,,
,,,,,,4.027588298,2.3724,space,0.651,0,43,43,3,1,4,image/4.jpg,0,0,,R_2D6PXoNGiJXqobD,2,2024-04-16_15h40.26.352,face trait task,2021.2.3,MacIntel,62.89308176,120541,,,,,,,
,,,,,,4.995016276,2.207,space,0.6603,0,44,44,36,1,37,image/37.jpg,0,0,,R_2D6PXoNGiJXqobD,2,2024-04-16_15h40.26.352,face trait task,2021.2.3,MacIntel,62.89308176,120541,,,,,,,
,,,,,,2.986924235,2.4585,space,0.49,0,45,45,7,1,8,image/8.jpg,0,0,,R_2D6PXoNGiJXqobD,2,2024-04-16_15h40.26.352,face trait task,2021.2.3,MacIntel,62.89308176,120541,,,,,,,
,,,,,,2.006104533,1.9768,space,0.3497,0,46,46,25,1,26,image/26.jpg,0,0,,R_2D6PXoNGiJXqobD,2,2024-04-16_15h40.26.352,face trait task,2021.2.3,MacIntel,62.89308176,120541,,,,,,,
,,,,,,1.024990641,2.8037,space,0.489,0,47,47,49,1,50,image/50.jpg,0,0,,R_2D6PXoNGiJXqobD,2,2024-04-16_15h40.26.352,face trait task,2021.2.3,MacIntel,62.89308176,120541,,,,,,,
,,,,,,4.045756022,4.6224,space,0.7226,0,48,48,19,1,20,image/20.jpg,0,0,,R_2D6PXoNGiJXqobD,2,2024-04-16_15h40.26.352,face trait task,2021.2.3,MacIntel,62.89308176,120541,,,,,,,
,,,,,,2.01053894,1.792,space,0.8834,0,49,49,47,1,48,image/48.jpg,0,0,,R_2D6PXoNGiJXqobD,2,2024-04-16_15h40.26.352,face trait task,2021.2.3,MacIntel,62.89308176,120541,,,,,,,
,,,,,,5.999841309,2.2955,space,0.4263,0,50,50,8,1,9,image/9.jpg,0,0,,R_2D6PXoNGiJXqobD,2,2024-04-16_15h40.26.352,face trait task,2021.2.3,MacIntel,62.89308176,120541,,,,,,,
,,,,,,5.01148234,3.175,space,0.3731,0,51,51,24,1,25,image/25.jpg,0,0,,R_2D6PXoNGiJXqobD,2,2024-04-16_15h40.26.352,face trait task,2021.2.3,MacIntel,62.89308176,120541,,,,,,,
,,,,,,1.027377523,4.6588,space,0.7573,0,52,52,11,1,12,image/12.jpg,0,0,,R_2D6PXoNGiJXqobD,2,2024-04-16_15h40.26.352,face trait task,2021.2.3,MacIntel,62.89308176,120541,,,,,,,
,,,,,,,,,,,,,,,,,,,,R_2D6PXoNGiJXqobD,2,2024-04-16_15h40.26.352,face trait task,2021.2.3,MacIntel,62.89308176,120541,0,3,3,0,1,0,critical.png
