key_resp.keys,key_resp.rt,key_resp_4.keys,key_resp_4.rt,slider_face_judge.response,slider_face_judge.rt,key_resp_3.keys,key_resp_3.rt,face_loop.thisRepN,face_loop.thisTrialN,face_loop.thisN,face_loop.thisIndex,face_loop.ran,face_serial,image_name,isCheck,participant,session,date,expName,psychopyVersion,OS,frameRate,SONAid,session.thisRepN,session.thisTrialN,session.thisN,session.thisIndex,session.ran,session_serial,slider_judge_img
space,15.5925,space,13.3002,2.974895669,5.269,space,2.8303,0,0,0,12,1,13,image/13.jpg,0,R_2dZ82kJ2ybI5Wiu,2,2024-04-09_14h22.06.170,face trait task,2021.2.3,Win32,60.60606061,SONAid,,,,,,,
,,,,1.059618273,2.7425,space,0.8833,0,1,1,13,1,14,image/14.jpg,0,R_2dZ82kJ2ybI5Wiu,2,2024-04-09_14h22.06.170,face trait task,2021.2.3,Win32,60.60606061,SONAid,,,,,,,
,,,,5.358685006,2.4331,space,2.3743,0,2,2,41,1,42,image/42.jpg,0,R_2dZ82kJ2ybI5Wiu,2,2024-04-09_14h22.06.170,face trait task,2021.2.3,Win32,60.60606061,SONAid,,,,,,,
,,,,6.029594497,2.6495,space,0.8984,0,3,3,17,1,18,image/18.jpg,0,R_2dZ82kJ2ybI5Wiu,2,2024-04-09_14h22.06.170,face trait task,2021.2.3,Win32,60.60606061,SONAid,,,,,,,
,,,,6.029594497,1.5864,space,0.8224,0,4,4,21,1,22,image/22.jpg,0,R_2dZ82kJ2ybI5Wiu,2,2024-04-09_14h22.06.170,face trait task,2021.2.3,Win32,60.60606061,SONAid,,,,,,,
,,,,4.148049626,6.7362,space,5.8336,0,5,5,18,1,19,image/19.jpg,0,R_2dZ82kJ2ybI5Wiu,2,2024-04-09_14h22.06.170,face trait task,2021.2.3,Win32,60.60606061,SONAid,,,,,,,
,,,,2.588841621,2.5213,space,0.8493,0,6,6,7,1,8,image/8.jpg,0,R_2dZ82kJ2ybI5Wiu,2,2024-04-09_14h22.06.170,face trait task,2021.2.3,Win32,60.60606061,SONAid,,,,,,,
,,,,5.444891453,4.8958,space,0.3289,0,7,7,28,1,29,image/29.jpg,0,R_2dZ82kJ2ybI5Wiu,2,2024-04-09_14h22.06.170,face trait task,2021.2.3,Win32,60.60606061,SONAid,,,,,,,
,,,,5.624800082,3.4213,space,0.2993,0,8,8,42,1,43,image/43.jpg,0,R_2dZ82kJ2ybI5Wiu,2,2024-04-09_14h22.06.170,face trait task,2021.2.3,Win32,60.60606061,SONAid,,,,,,,
,,,,6.771717593,2.9064,space,0.3162,0,9,9,43,1,44,image/44.jpg,0,R_2dZ82kJ2ybI5Wiu,2,2024-04-09_14h22.06.170,face trait task,2021.2.3,Win32,60.60606061,SONAid,,,,,,,
,,,,2.420177281,2.1135,space,0.5672,0,10,10,6,1,7,image/7.jpg,0,R_2dZ82kJ2ybI5Wiu,2,2024-04-09_14h22.06.170,face trait task,2021.2.3,Win32,60.60606061,SONAid,,,,,,,
,,,,6.393159623,2.8693,space,0.4325,0,11,11,47,1,48,image/48.jpg,0,R_2dZ82kJ2ybI5Wiu,2,2024-04-09_14h22.06.170,face trait task,2021.2.3,Win32,60.60606061,SONAid,,,,,,,
,,,,5.208761377,7.3028,space,0.4223,0,12,12,11,1,12,image/12.jpg,0,R_2dZ82kJ2ybI5Wiu,2,2024-04-09_14h22.06.170,face trait task,2021.2.3,Win32,60.60606061,SONAid,,,,,,,
,,,,2.79498704,2.7712,space,0.3684,0,13,13,40,1,41,image/41.jpg,0,R_2dZ82kJ2ybI5Wiu,2,2024-04-09_14h22.06.170,face trait task,2021.2.3,Win32,60.60606061,SONAid,,,,,,,
,,,,3.282239349,3.8606,space,0.3753,0,14,14,22,1,23,image/23.jpg,0,R_2dZ82kJ2ybI5Wiu,2,2024-04-09_14h22.06.170,face trait task,2021.2.3,Win32,60.60606061,SONAid,,,,,,,
,,,,5.793464422,2.0878,space,0.6525,0,15,15,0,1,1,image/1.jpg,0,R_2dZ82kJ2ybI5Wiu,2,2024-04-09_14h22.06.170,face trait task,2021.2.3,Win32,60.60606061,SONAid,,,,,,,
,,,,1.857962815,2.7746,space,0.6547,0,16,16,32,1,33,image/33.jpg,0,R_2dZ82kJ2ybI5Wiu,2,2024-04-09_14h22.06.170,face trait task,2021.2.3,Win32,60.60606061,SONAid,,,,,,,
,,,,6.32194602,2.5802,space,0.5673,0,17,17,34,1,35,image/35.jpg,0,R_2dZ82kJ2ybI5Wiu,2,2024-04-09_14h22.06.170,face trait task,2021.2.3,Win32,60.60606061,SONAid,,,,,,,
,,,,6.404403913,2.3033,space,1.0188,0,18,18,51,1,57,image/57.jpg,1,R_2dZ82kJ2ybI5Wiu,2,2024-04-09_14h22.06.170,face trait task,2021.2.3,Win32,60.60606061,SONAid,,,,,,,
,,,,6.981610536,2.4258,space,3.1394,0,19,19,39,1,40,image/40.jpg,0,R_2dZ82kJ2ybI5Wiu,2,2024-04-09_14h22.06.170,face trait task,2021.2.3,Win32,60.60606061,SONAid,,,,,,,
,,,,4.860188065,2.9949,space,0.8343,0,20,20,10,1,11,image/11.jpg,0,R_2dZ82kJ2ybI5Wiu,2,2024-04-09_14h22.06.170,face trait task,2021.2.3,Win32,60.60606061,SONAid,,,,,,,
,,,,6.925389089,3.8714,space,0.5335,0,21,21,37,1,38,image/38.jpg,0,R_2dZ82kJ2ybI5Wiu,2,2024-04-09_14h22.06.170,face trait task,2021.2.3,Win32,60.60606061,SONAid,,,,,,,
,,,,6.25073173,1.9578,space,0.4869,0,22,22,44,1,45,image/45.jpg,0,R_2dZ82kJ2ybI5Wiu,2,2024-04-09_14h22.06.170,face trait task,2021.2.3,Win32,60.60606061,SONAid,,,,,,,
,,,,2.547612675,2.0802,space,0.4593,0,23,23,2,1,3,image/3.jpg,0,R_2dZ82kJ2ybI5Wiu,2,2024-04-09_14h22.06.170,face trait task,2021.2.3,Win32,60.60606061,SONAid,,,,,,,
,,,,2.573849121,3.1314,space,0.4494,0,24,24,15,1,16,image/16.jpg,0,R_2dZ82kJ2ybI5Wiu,2,2024-04-09_14h22.06.170,face trait task,2021.2.3,Win32,60.60606061,SONAid,,,,,,,
,,,,6.857923353,2.3197,space,0.6392,0,25,25,48,1,49,image/49.jpg,0,R_2dZ82kJ2ybI5Wiu,2,2024-04-09_14h22.06.170,face trait task,2021.2.3,Win32,60.60606061,SONAid,,,,,,,
,,,,5.875922314,2.1682,space,0.6008,0,26,26,31,1,32,image/32.jpg,0,R_2dZ82kJ2ybI5Wiu,2,2024-04-09_14h22.06.170,face trait task,2021.2.3,Win32,60.60606061,SONAid,,,,,,,
,,,,6.325693887,2.7719,space,0.4839,0,27,27,45,1,46,image/46.jpg,0,R_2dZ82kJ2ybI5Wiu,2,2024-04-09_14h22.06.170,face trait task,2021.2.3,Win32,60.60606061,SONAid,,,,,,,
,,,,5.651036528,6.877,space,0.5663,0,28,28,5,1,6,image/6.jpg,0,R_2dZ82kJ2ybI5Wiu,2,2024-04-09_14h22.06.170,face trait task,2021.2.3,Win32,60.60606061,SONAid,,,,,,,
,,,,4.860188065,1.9292,space,0.8069,0,29,29,49,1,50,image/50.jpg,0,R_2dZ82kJ2ybI5Wiu,2,2024-04-09_14h22.06.170,face trait task,2021.2.3,Win32,60.60606061,SONAid,,,,,,,
,,,,3.379690085,3.5274,space,0.6023,0,30,30,19,1,20,image/20.jpg,0,R_2dZ82kJ2ybI5Wiu,2,2024-04-09_14h22.06.170,face trait task,2021.2.3,Win32,60.60606061,SONAid,,,,,,,
,,,,1.303244428,2.5255,space,0.5854,0,31,31,24,1,25,image/25.jpg,0,R_2dZ82kJ2ybI5Wiu,2,2024-04-09_14h22.06.170,face trait task,2021.2.3,Win32,60.60606061,SONAid,,,,,,,
,,,,6.940381932,2.1783,space,0.6815,0,32,32,52,1,61,image/61.jpg,1,R_2dZ82kJ2ybI5Wiu,2,2024-04-09_14h22.06.170,face trait task,2021.2.3,Win32,60.60606061,SONAid,,,,,,,
,,,,2.214031863,3.0542,space,1.4671,0,33,33,16,1,17,image/17.jpg,0,R_2dZ82kJ2ybI5Wiu,2,2024-04-09_14h22.06.170,face trait task,2021.2.3,Win32,60.60606061,SONAid,,,,,,,
,,,,6.40815178,2.3676,space,0.6546,0,34,34,4,1,5,image/5.jpg,0,R_2dZ82kJ2ybI5Wiu,2,2024-04-09_14h22.06.170,face trait task,2021.2.3,Win32,60.60606061,SONAid,,,,,,,
,,,,2.375200124,2.2748,space,0.5112,0,35,35,20,1,21,image/21.jpg,0,R_2dZ82kJ2ybI5Wiu,2,2024-04-09_14h22.06.170,face trait task,2021.2.3,Win32,60.60606061,SONAid,,,,,,,
,,,,5.774723711,2.8382,space,0.4433,0,36,36,3,1,4,image/4.jpg,0,R_2dZ82kJ2ybI5Wiu,2,2024-04-09_14h22.06.170,face trait task,2021.2.3,Win32,60.60606061,SONAid,,,,,,,
,,,,5.696013685,4.9335,space,0.7596,0,37,37,26,1,27,image/27.jpg,0,R_2dZ82kJ2ybI5Wiu,2,2024-04-09_14h22.06.170,face trait task,2021.2.3,Win32,60.60606061,SONAid,,,,,,,
,,,,6.902900511,1.9974,space,0.9547,0,38,38,36,1,37,image/37.jpg,0,R_2dZ82kJ2ybI5Wiu,2,2024-04-09_14h22.06.170,face trait task,2021.2.3,Win32,60.60606061,SONAid,,,,,,,
,,,,6.977862668,3.6048,space,2.2027,0,39,39,27,1,28,image/28.jpg,0,R_2dZ82kJ2ybI5Wiu,2,2024-04-09_14h22.06.170,face trait task,2021.2.3,Win32,60.60606061,SONAid,,,,,,,
,,,,1.546870754,2.3043,space,0.7288,0,40,40,14,1,15,image/15.jpg,0,R_2dZ82kJ2ybI5Wiu,2,2024-04-09_14h22.06.170,face trait task,2021.2.3,Win32,60.60606061,SONAid,,,,,,,
,,,,6.925389089,2.4886,space,0.4862,0,41,41,33,1,34,image/34.jpg,0,R_2dZ82kJ2ybI5Wiu,2,2024-04-09_14h22.06.170,face trait task,2021.2.3,Win32,60.60606061,SONAid,,,,,,,
,,,,2.405184781,2.0719,space,0.3045,0,42,42,9,1,10,image/10.jpg,0,R_2dZ82kJ2ybI5Wiu,2,2024-04-09_14h22.06.170,face trait task,2021.2.3,Win32,60.60606061,SONAid,,,,,,,
,,,,5.789715868,2.2751,space,0.3839,0,43,43,29,1,30,image/30.jpg,0,R_2dZ82kJ2ybI5Wiu,2,2024-04-09_14h22.06.170,face trait task,2021.2.3,Win32,60.60606061,SONAid,,,,,,,
,,,,6.569320385,2.371,space,0.5236,0,44,44,38,1,39,image/39.jpg,0,R_2dZ82kJ2ybI5Wiu,2,2024-04-09_14h22.06.170,face trait task,2021.2.3,Win32,60.60606061,SONAid,,,,,,,
,,,,1.220786363,3.2881,space,0.3669,0,45,45,8,1,9,image/9.jpg,0,R_2dZ82kJ2ybI5Wiu,2,2024-04-09_14h22.06.170,face trait task,2021.2.3,Win32,60.60606061,SONAid,,,,,,,
,,,,1.393198742,2.9897,space,0.5898,0,46,46,1,1,2,image/2.jpg,0,R_2dZ82kJ2ybI5Wiu,2,2024-04-09_14h22.06.170,face trait task,2021.2.3,Win32,60.60606061,SONAid,,,,,,,
,,,,4.699019803,3.221,space,1.6511,0,47,47,46,1,47,image/47.jpg,0,R_2dZ82kJ2ybI5Wiu,2,2024-04-09_14h22.06.170,face trait task,2021.2.3,Win32,60.60606061,SONAid,,,,,,,
,,,,6.996603379,2.1071,space,1.2208,0,48,48,30,1,31,image/31.jpg,0,R_2dZ82kJ2ybI5Wiu,2,2024-04-09_14h22.06.170,face trait task,2021.2.3,Win32,60.60606061,SONAid,,,,,,,
,,,,6.284464598,2.6732,space,0.6836,0,49,49,25,1,26,image/26.jpg,0,R_2dZ82kJ2ybI5Wiu,2,2024-04-09_14h22.06.170,face trait task,2021.2.3,Win32,60.60606061,SONAid,,,,,,,
,,,,2.708780593,3.4468,space,1,0,50,50,35,1,36,image/36.jpg,0,R_2dZ82kJ2ybI5Wiu,2,2024-04-09_14h22.06.170,face trait task,2021.2.3,Win32,60.60606061,SONAid,,,,,,,
,,,,6.202006705,2.644,space,0.4937,0,51,51,23,1,24,image/24.jpg,0,R_2dZ82kJ2ybI5Wiu,2,2024-04-09_14h22.06.170,face trait task,2021.2.3,Win32,60.60606061,SONAid,,,,,,,
,,,,5.868425893,2.4797,space,0.3877,0,52,52,50,1,60,image/60.jpg,1,R_2dZ82kJ2ybI5Wiu,2,2024-04-09_14h22.06.170,face trait task,2021.2.3,Win32,60.60606061,SONAid,,,,,,,
,,,,,,,,,,,,,,,,R_2dZ82kJ2ybI5Wiu,2,2024-04-09_14h22.06.170,face trait task,2021.2.3,Win32,60.60606061,SONAid,0,0,0,0,1,0,critical.png
,,,,2.345215467,6.2653,space,2.4325,0,0,0,11,1,12,image/12.jpg,0,R_2dZ82kJ2ybI5Wiu,2,2024-04-09_14h22.06.170,face trait task,2021.2.3,Win32,60.60606061,SONAid,,,,,,,
,,,,1.190801534,3.1755,space,0.439,0,1,1,32,1,33,image/33.jpg,0,R_2dZ82kJ2ybI5Wiu,2,2024-04-09_14h22.06.170,face trait task,2021.2.3,Win32,60.60606061,SONAid,,,,,,,
,,,,1.052122023,8.7623,space,1.991,0,2,2,30,1,31,image/31.jpg,0,R_2dZ82kJ2ybI5Wiu,2,2024-04-09_14h22.06.170,face trait task,2021.2.3,Win32,60.60606061,SONAid,,,,,,,
,,,,1.145824377,3.5377,space,0.6381,0,3,3,33,1,34,image/34.jpg,0,R_2dZ82kJ2ybI5Wiu,2,2024-04-09_14h22.06.170,face trait task,2021.2.3,Win32,60.60606061,SONAid,,,,,,,
,,,,1.187053495,2.6384,space,0.6171,0,4,4,48,1,49,image/49.jpg,0,R_2dZ82kJ2ybI5Wiu,2,2024-04-09_14h22.06.170,face trait task,2021.2.3,Win32,60.60606061,SONAid,,,,,,,
,,,,1.190801534,1.6457,space,0.6916,0,5,5,46,1,47,image/47.jpg,0,R_2dZ82kJ2ybI5Wiu,2,2024-04-09_14h22.06.170,face trait task,2021.2.3,Win32,60.60606061,SONAid,,,,,,,
,,,,3.233514324,5.5877,space,3.2547,0,6,6,40,1,41,image/41.jpg,0,R_2dZ82kJ2ybI5Wiu,2,2024-04-09_14h22.06.170,face trait task,2021.2.3,Win32,60.60606061,SONAid,,,,,,,
,,,,5.662280817,3.9864,space,0.7738,0,7,7,5,1,6,image/6.jpg,0,R_2dZ82kJ2ybI5Wiu,2,2024-04-09_14h22.06.170,face trait task,2021.2.3,Win32,60.60606061,SONAid,,,,,,,
,,,,5.527349345,2.994,space,0.4485,0,8,8,9,1,10,image/10.jpg,0,R_2dZ82kJ2ybI5Wiu,2,2024-04-09_14h22.06.170,face trait task,2021.2.3,Win32,60.60606061,SONAid,,,,,,,
,,,,4.830203407,2.7931,space,1.1415,0,9,9,0,1,1,image/1.jpg,0,R_2dZ82kJ2ybI5Wiu,2,2024-04-09_14h22.06.170,face trait task,2021.2.3,Win32,60.60606061,SONAid,,,,,,,
,,,,3.975637419,3.2603,space,0.6371,0,10,10,50,1,60,image/60.jpg,1,R_2dZ82kJ2ybI5Wiu,2,2024-04-09_14h22.06.170,face trait task,2021.2.3,Win32,60.60606061,SONAid,,,,,,,
,,,,2.727521304,3.6368,space,0.5055,0,11,11,49,1,50,image/50.jpg,0,R_2dZ82kJ2ybI5Wiu,2,2024-04-09_14h22.06.170,face trait task,2021.2.3,Win32,60.60606061,SONAid,,,,,,,
,,,,3.330964717,3.1721,space,0.5604,0,12,12,21,1,22,image/22.jpg,0,R_2dZ82kJ2ybI5Wiu,2,2024-04-09_14h22.06.170,face trait task,2021.2.3,Win32,60.60606061,SONAid,,,,,,,
,,,,1.884199433,2.9189,space,0.4337,0,13,13,29,1,30,image/30.jpg,0,R_2dZ82kJ2ybI5Wiu,2,2024-04-09_14h22.06.170,face trait task,2021.2.3,Win32,60.60606061,SONAid,,,,,,,
,,,,2.25900902,10.3375,space,1.1841,0,14,14,23,1,24,image/24.jpg,0,R_2dZ82kJ2ybI5Wiu,2,2024-04-09_14h22.06.170,face trait task,2021.2.3,Win32,60.60606061,SONAid,,,,,,,
,,,,3.450903688,2.7496,space,0.6341,0,15,15,10,1,11,image/11.jpg,0,R_2dZ82kJ2ybI5Wiu,2,2024-04-09_14h22.06.170,face trait task,2021.2.3,Win32,60.60606061,SONAid,,,,,,,
,,,,2.446414071,1.9053,space,0.5852,0,16,16,13,1,14,image/14.jpg,0,R_2dZ82kJ2ybI5Wiu,2,2024-04-09_14h22.06.170,face trait task,2021.2.3,Win32,60.60606061,SONAid,,,,,,,
,,,,5.186272798,3.4383,space,0.5241,0,17,17,25,1,26,image/26.jpg,0,R_2dZ82kJ2ybI5Wiu,2,2024-04-09_14h22.06.170,face trait task,2021.2.3,Win32,60.60606061,SONAid,,,,,,,
,,,,1.003396827,2.5407,space,1.092,0,18,18,27,1,28,image/28.jpg,0,R_2dZ82kJ2ybI5Wiu,2,2024-04-09_14h22.06.170,face trait task,2021.2.3,Win32,60.60606061,SONAid,,,,,,,
,,,,1.809237447,2.8076,space,0.5679,0,19,19,1,1,2,image/2.jpg,0,R_2dZ82kJ2ybI5Wiu,2,2024-04-09_14h22.06.170,face trait task,2021.2.3,Win32,60.60606061,SONAid,,,,,,,
,,,,2.76500204,2.376,space,0.6915,0,20,20,31,1,32,image/32.jpg,0,R_2dZ82kJ2ybI5Wiu,2,2024-04-09_14h22.06.170,face trait task,2021.2.3,Win32,60.60606061,SONAid,,,,,,,
,,,,6.175770259,1.924,space,0.9707,0,21,21,24,1,25,image/25.jpg,0,R_2dZ82kJ2ybI5Wiu,2,2024-04-09_14h22.06.170,face trait task,2021.2.3,Win32,60.60606061,SONAid,,,,,,,
,,,,5.531097213,2.1232,space,0.4992,0,22,22,20,1,21,image/21.jpg,0,R_2dZ82kJ2ybI5Wiu,2,2024-04-09_14h22.06.170,face trait task,2021.2.3,Win32,60.60606061,SONAid,,,,,,,
,,,,3.537110135,2.7234,space,0.3575,0,23,23,38,1,39,image/39.jpg,0,R_2dZ82kJ2ybI5Wiu,2,2024-04-09_14h22.06.170,face trait task,2021.2.3,Win32,60.60606061,SONAid,,,,,,,
,,,,2.221528284,3.914,space,0.6109,0,24,24,14,1,15,image/15.jpg,0,R_2dZ82kJ2ybI5Wiu,2,2024-04-09_14h22.06.170,face trait task,2021.2.3,Win32,60.60606061,SONAid,,,,,,,
,,,,1.28450406,3.5793,space,0.91,0,25,25,4,1,5,image/5.jpg,0,R_2dZ82kJ2ybI5Wiu,2,2024-04-09_14h22.06.170,face trait task,2021.2.3,Win32,60.60606061,SONAid,,,,,,,
,,,,4.406668281,3.3455,space,3.1175,0,26,26,2,1,3,image/3.jpg,0,R_2dZ82kJ2ybI5Wiu,2,2024-04-09_14h22.06.170,face trait task,2021.2.3,Win32,60.60606061,SONAid,,,,,,,
,,,,1.681802225,3.1855,space,0.887,0,27,27,18,1,19,image/19.jpg,0,R_2dZ82kJ2ybI5Wiu,2,2024-04-09_14h22.06.170,face trait task,2021.2.3,Win32,60.60606061,SONAid,,,,,,,
,,,,1.183305456,2.2771,space,0.5891,0,28,28,41,1,42,image/42.jpg,0,R_2dZ82kJ2ybI5Wiu,2,2024-04-09_14h22.06.170,face trait task,2021.2.3,Win32,60.60606061,SONAid,,,,,,,
,,,,1.314488717,3.4915,space,0.5676,0,29,29,37,1,38,image/38.jpg,0,R_2dZ82kJ2ybI5Wiu,2,2024-04-09_14h22.06.170,face trait task,2021.2.3,Win32,60.60606061,SONAid,,,,,,,
,,,,6.887908354,2.4209,space,1.2523,0,30,30,35,1,36,image/36.jpg,0,R_2dZ82kJ2ybI5Wiu,2,2024-04-09_14h22.06.170,face trait task,2021.2.3,Win32,60.60606061,SONAid,,,,,,,
,,,,4.743996961,2.6002,space,0.416,0,31,31,45,1,46,image/46.jpg,0,R_2dZ82kJ2ybI5Wiu,2,2024-04-09_14h22.06.170,face trait task,2021.2.3,Win32,60.60606061,SONAid,,,,,,,
,,,,5.782220132,2.3373,space,0.5529,0,32,32,51,1,57,image/57.jpg,1,R_2dZ82kJ2ybI5Wiu,2,2024-04-09_14h22.06.170,face trait task,2021.2.3,Win32,60.60606061,SONAid,,,,,,,
,,,,1.790497079,3.2933,space,0.4019,0,33,33,39,1,40,image/40.jpg,0,R_2dZ82kJ2ybI5Wiu,2,2024-04-09_14h22.06.170,face trait task,2021.2.3,Win32,60.60606061,SONAid,,,,,,,
,,,,5.403662163,1.8547,space,0.5736,0,34,34,17,1,18,image/18.jpg,0,R_2dZ82kJ2ybI5Wiu,2,2024-04-09_14h22.06.170,face trait task,2021.2.3,Win32,60.60606061,SONAid,,,,,,,
,,,,2.199039706,6.3585,space,0.3758,0,35,35,8,1,9,image/9.jpg,0,R_2dZ82kJ2ybI5Wiu,2,2024-04-09_14h22.06.170,face trait task,2021.2.3,Win32,60.60606061,SONAid,,,,,,,
,,,,5.156287798,1.8068,space,0.3004,0,36,36,6,1,7,image/7.jpg,0,R_2dZ82kJ2ybI5Wiu,2,2024-04-09_14h22.06.170,face trait task,2021.2.3,Win32,60.60606061,SONAid,,,,,,,
,,,,4.811462696,10.9943,space,0.8586,0,37,37,12,1,13,image/13.jpg,0,R_2dZ82kJ2ybI5Wiu,2,2024-04-09_14h22.06.170,face trait task,2021.2.3,Win32,60.60606061,SONAid,,,,,,,
,,,,2.487643017,2.1753,space,0.2834,0,38,38,42,1,43,image/43.jpg,0,R_2dZ82kJ2ybI5Wiu,2,2024-04-09_14h22.06.170,face trait task,2021.2.3,Win32,60.60606061,SONAid,,,,,,,
,,,,1.783000829,2.8961,space,0.4891,0,39,39,28,1,29,image/29.jpg,0,R_2dZ82kJ2ybI5Wiu,2,2024-04-09_14h22.06.170,face trait task,2021.2.3,Win32,60.60606061,SONAid,,,,,,,
,,,,1.471908768,4.7765,space,0.3725,0,40,40,34,1,35,image/35.jpg,0,R_2dZ82kJ2ybI5Wiu,2,2024-04-09_14h22.06.170,face trait task,2021.2.3,Win32,60.60606061,SONAid,,,,,,,
,,,,4.215515362,2.1963,space,0.4025,0,41,41,15,1,16,image/16.jpg,0,R_2dZ82kJ2ybI5Wiu,2,2024-04-09_14h22.06.170,face trait task,2021.2.3,Win32,60.60606061,SONAid,,,,,,,
,,,,1.164564917,2.342,space,0.3222,0,42,42,52,1,61,image/61.jpg,1,R_2dZ82kJ2ybI5Wiu,2,2024-04-09_14h22.06.170,face trait task,2021.2.3,Win32,60.60606061,SONAid,,,,,,,
,,,,1.164564917,2.2233,space,0.3652,0,43,43,16,1,17,image/17.jpg,0,R_2dZ82kJ2ybI5Wiu,2,2024-04-09_14h22.06.170,face trait task,2021.2.3,Win32,60.60606061,SONAid,,,,,,,
,,,,5.823448736,2.3752,space,0.7005,0,44,44,22,1,23,image/23.jpg,0,R_2dZ82kJ2ybI5Wiu,2,2024-04-09_14h22.06.170,face trait task,2021.2.3,Win32,60.60606061,SONAid,,,,,,,
,,,,1.884199433,2.5608,space,0.6667,0,45,45,3,1,4,image/4.jpg,0,R_2dZ82kJ2ybI5Wiu,2,2024-04-09_14h22.06.170,face trait task,2021.2.3,Win32,60.60606061,SONAid,,,,,,,
,,,,3.244758613,2.5209,space,0.517,0,46,46,44,1,45,image/45.jpg,0,R_2dZ82kJ2ybI5Wiu,2,2024-04-09_14h22.06.170,face trait task,2021.2.3,Win32,60.60606061,SONAid,,,,,,,
,,,,5.928395893,2.1382,space,0.4837,0,47,47,7,1,8,image/8.jpg,0,R_2dZ82kJ2ybI5Wiu,2,2024-04-09_14h22.06.170,face trait task,2021.2.3,Win32,60.60606061,SONAid,,,,,,,
,,,,1.370710164,1.9728,space,0.284,0,48,48,47,1,48,image/48.jpg,0,R_2dZ82kJ2ybI5Wiu,2,2024-04-09_14h22.06.170,face trait task,2021.2.3,Win32,60.60606061,SONAid,,,,,,,
,,,,2.423925492,4.8129,space,0.3113,0,49,49,19,1,20,image/20.jpg,0,R_2dZ82kJ2ybI5Wiu,2,2024-04-09_14h22.06.170,face trait task,2021.2.3,Win32,60.60606061,SONAid,,,,,,,
,,,,4.45914186,2.6124,space,0.4102,0,50,50,43,1,44,image/44.jpg,0,R_2dZ82kJ2ybI5Wiu,2,2024-04-09_14h22.06.170,face trait task,2021.2.3,Win32,60.60606061,SONAid,,,,,,,
,,,,1.340725506,2.8208,space,0.5541,0,51,51,36,1,37,image/37.jpg,0,R_2dZ82kJ2ybI5Wiu,2,2024-04-09_14h22.06.170,face trait task,2021.2.3,Win32,60.60606061,SONAid,,,,,,,
,,,,2.221528284,3.1906,space,0.302,0,52,52,26,1,27,image/27.jpg,0,R_2dZ82kJ2ybI5Wiu,2,2024-04-09_14h22.06.170,face trait task,2021.2.3,Win32,60.60606061,SONAid,,,,,,,
,,,,,,,,,,,,,,,,R_2dZ82kJ2ybI5Wiu,2,2024-04-09_14h22.06.170,face trait task,2021.2.3,Win32,60.60606061,SONAid,0,1,1,3,1,3,friendly.png
,,,,1.805489408,4.5951,space,0.5008,0,0,0,28,1,29,image/29.jpg,0,R_2dZ82kJ2ybI5Wiu,2,2024-04-09_14h22.06.170,face trait task,2021.2.3,Win32,60.60606061,SONAid,,,,,,,
,,,,3.147307877,3.8957,space,2.0006,0,1,1,3,1,4,image/4.jpg,0,R_2dZ82kJ2ybI5Wiu,2,2024-04-09_14h22.06.170,face trait task,2021.2.3,Win32,60.60606061,SONAid,,,,,,,
,,,,4.234256073,2.2823,space,0.2902,0,2,2,1,1,2,image/2.jpg,0,R_2dZ82kJ2ybI5Wiu,2,2024-04-09_14h22.06.170,face trait task,2021.2.3,Win32,60.60606061,SONAid,,,,,,,
,,,,1.044625773,2.9886,space,0.5842,0,3,3,40,1,41,image/41.jpg,0,R_2dZ82kJ2ybI5Wiu,2,2024-04-09_14h22.06.170,face trait task,2021.2.3,Win32,60.60606061,SONAid,,,,,,,
,,,,2.150314338,5.8686,space,0.4373,0,4,4,47,1,48,image/48.jpg,0,R_2dZ82kJ2ybI5Wiu,2,2024-04-09_14h22.06.170,face trait task,2021.2.3,Win32,60.60606061,SONAid,,,,,,,
,,,,3.994377787,2.9997,space,0.6505,0,5,5,0,1,1,image/1.jpg,0,R_2dZ82kJ2ybI5Wiu,2,2024-04-09_14h22.06.170,face trait task,2021.2.3,Win32,60.60606061,SONAid,,,,,,,
,,,,1.153320627,2.0562,space,0.5405,0,6,6,16,1,17,image/17.jpg,0,R_2dZ82kJ2ybI5Wiu,2,2024-04-09_14h22.06.170,face trait task,2021.2.3,Win32,60.60606061,SONAid,,,,,,,
,,,,1.175809206,2.638,space,0.6063,0,7,7,48,1,49,image/49.jpg,0,R_2dZ82kJ2ybI5Wiu,2,2024-04-09_14h22.06.170,face trait task,2021.2.3,Win32,60.60606061,SONAid,,,,,,,
,,,,1.007144866,5.2092,space,2.9655,0,8,8,33,1,34,image/34.jpg,0,R_2dZ82kJ2ybI5Wiu,2,2024-04-09_14h22.06.170,face trait task,2021.2.3,Win32,60.60606061,SONAid,,,,,,,
,,,,2.776246329,3.8657,space,0.7536,0,9,9,4,1,5,image/5.jpg,0,R_2dZ82kJ2ybI5Wiu,2,2024-04-09_14h22.06.170,face trait task,2021.2.3,Win32,60.60606061,SONAid,,,,,,,
,,,,5.557334346,4.6806,space,0.7165,0,10,10,42,1,43,image/43.jpg,0,R_2dZ82kJ2ybI5Wiu,2,2024-04-09_14h22.06.170,face trait task,2021.2.3,Win32,60.60606061,SONAid,,,,,,,
,,,,3.7544995,2.3206,space,0.3877,0,11,11,11,1,12,image/12.jpg,0,R_2dZ82kJ2ybI5Wiu,2,2024-04-09_14h22.06.170,face trait task,2021.2.3,Win32,60.60606061,SONAid,,,,,,,
,,,,5.681021528,2.3038,space,0.8909,0,12,12,12,1,13,image/13.jpg,0,R_2dZ82kJ2ybI5Wiu,2,2024-04-09_14h22.06.170,face trait task,2021.2.3,Win32,60.60606061,SONAid,,,,,,,
,,,,4.721508382,2.4545,space,0.8835,0,13,13,46,1,47,image/47.jpg,0,R_2dZ82kJ2ybI5Wiu,2,2024-04-09_14h22.06.170,face trait task,2021.2.3,Win32,60.60606061,SONAid,,,,,,,
,,,,1.831726026,2.5059,space,0.666,0,14,14,38,1,39,image/39.jpg,0,R_2dZ82kJ2ybI5Wiu,2,2024-04-09_14h22.06.170,face trait task,2021.2.3,Win32,60.60606061,SONAid,,,,,,,
,,,,6.767969039,2.5895,space,0.553,0,15,15,17,1,18,image/18.jpg,0,R_2dZ82kJ2ybI5Wiu,2,2024-04-09_14h22.06.170,face trait task,2021.2.3,Win32,60.60606061,SONAid,,,,,,,
,,,,2.555108753,2.3091,space,0.5008,0,16,16,2,1,3,image/3.jpg,0,R_2dZ82kJ2ybI5Wiu,2,2024-04-09_14h22.06.170,face trait task,2021.2.3,Win32,60.60606061,SONAid,,,,,,,
,,,,5.890914471,3.0456,space,0.51,0,17,17,51,1,57,image/57.jpg,1,R_2dZ82kJ2ybI5Wiu,2,2024-04-09_14h22.06.170,face trait task,2021.2.3,Win32,60.60606061,SONAid,,,,,,,
,,,,2.828719908,3.2988,space,0.4504,0,18,18,10,1,11,image/11.jpg,0,R_2dZ82kJ2ybI5Wiu,2,2024-04-09_14h22.06.170,face trait task,2021.2.3,Win32,60.60606061,SONAid,,,,,,,
,,,,2.701284515,8.7104,space,1.2387,0,19,19,37,1,38,image/38.jpg,0,R_2dZ82kJ2ybI5Wiu,2,2024-04-09_14h22.06.170,face trait task,2021.2.3,Win32,60.60606061,SONAid,,,,,,,
,,,,5.688517264,2.7893,space,0.3207,0,20,20,20,1,21,image/21.jpg,0,R_2dZ82kJ2ybI5Wiu,2,2024-04-09_14h22.06.170,face trait task,2021.2.3,Win32,60.60606061,SONAid,,,,,,,
,,,,5.692265818,1.461,space,0.3416,0,21,21,6,1,7,image/7.jpg,0,R_2dZ82kJ2ybI5Wiu,2,2024-04-09_14h22.06.170,face trait task,2021.2.3,Win32,60.60606061,SONAid,,,,,,,
,,,,5.692265818,1.3791,space,0.4086,0,22,22,19,1,20,image/20.jpg,0,R_2dZ82kJ2ybI5Wiu,2,2024-04-09_14h22.06.170,face trait task,2021.2.3,Win32,60.60606061,SONAid,,,,,,,
,,,,3.525865846,2.0889,space,0.5863,0,23,23,23,1,24,image/24.jpg,0,R_2dZ82kJ2ybI5Wiu,2,2024-04-09_14h22.06.170,face trait task,2021.2.3,Win32,60.60606061,SONAid,,,,,,,
,,,,1.014641116,3.4386,space,0.3825,0,24,24,30,1,31,image/31.jpg,0,R_2dZ82kJ2ybI5Wiu,2,2024-04-09_14h22.06.170,face trait task,2021.2.3,Win32,60.60606061,SONAid,,,,,,,
,,,,2.225276152,10.1263,space,0.685,0,25,25,7,1,8,image/8.jpg,0,R_2dZ82kJ2ybI5Wiu,2,2024-04-09_14h22.06.170,face trait task,2021.2.3,Win32,60.60606061,SONAid,,,,,,,
,,,,1.097099181,5.9479,space,1.2868,0,26,26,41,1,42,image/42.jpg,0,R_2dZ82kJ2ybI5Wiu,2,2024-04-09_14h22.06.170,face trait task,2021.2.3,Win32,60.60606061,SONAid,,,,,,,
,,,,1.067114352,5.7858,space,0.6403,0,27,27,36,1,37,image/37.jpg,0,R_2dZ82kJ2ybI5Wiu,2,2024-04-09_14h22.06.170,face trait task,2021.2.3,Win32,60.60606061,SONAid,,,,,,,
,,,,4.665286935,2.0938,space,0.4493,0,28,28,21,1,22,image/22.jpg,0,R_2dZ82kJ2ybI5Wiu,2,2024-04-09_14h22.06.170,face trait task,2021.2.3,Win32,60.60606061,SONAid,,,,,,,
,,,,2.446414071,1.7833,space,0.4065,0,29,29,5,1,6,image/6.jpg,0,R_2dZ82kJ2ybI5Wiu,2,2024-04-09_14h22.06.170,face trait task,2021.2.3,Win32,60.60606061,SONAid,,,,,,,
,,,,1.768008501,3.2718,space,0.3547,0,30,30,49,1,50,image/50.jpg,0,R_2dZ82kJ2ybI5Wiu,2,2024-04-09_14h22.06.170,face trait task,2021.2.3,Win32,60.60606061,SONAid,,,,,,,
,,,,3.173544666,2.1773,space,0.7912,0,31,31,45,1,46,image/46.jpg,0,R_2dZ82kJ2ybI5Wiu,2,2024-04-09_14h22.06.170,face trait task,2021.2.3,Win32,60.60606061,SONAid,,,,,,,
,,,,1.77925279,2.9295,space,0.7939,0,32,32,52,1,61,image/61.jpg,1,R_2dZ82kJ2ybI5Wiu,2,2024-04-09_14h22.06.170,face trait task,2021.2.3,Win32,60.60606061,SONAid,,,,,,,
,,,,2.888689222,4.6521,space,1.6275,0,33,33,18,1,19,image/19.jpg,0,R_2dZ82kJ2ybI5Wiu,2,2024-04-09_14h22.06.170,face trait task,2021.2.3,Win32,60.60606061,SONAid,,,,,,,
,,,,3.28973577,3.1085,space,0.3718,0,34,34,14,1,15,image/15.jpg,0,R_2dZ82kJ2ybI5Wiu,2,2024-04-09_14h22.06.170,face trait task,2021.2.3,Win32,60.60606061,SONAid,,,,,,,
,,,,2.607581989,4.1889,space,0.3435,0,35,35,15,1,16,image/16.jpg,0,R_2dZ82kJ2ybI5Wiu,2,2024-04-09_14h22.06.170,face trait task,2021.2.3,Win32,60.60606061,SONAid,,,,,,,
,,,,4.148049626,3.6442,space,0.4576,0,36,36,43,1,44,image/44.jpg,0,R_2dZ82kJ2ybI5Wiu,2,2024-04-09_14h22.06.170,face trait task,2021.2.3,Win32,60.60606061,SONAid,,,,,,,
,,,,1.232030652,1.9246,space,0.8176,0,37,37,32,1,33,image/33.jpg,0,R_2dZ82kJ2ybI5Wiu,2,2024-04-09_14h22.06.170,face trait task,2021.2.3,Win32,60.60606061,SONAid,,,,,,,
,,,,5.782220132,2.5957,space,1.3003,0,38,38,9,1,10,image/10.jpg,0,R_2dZ82kJ2ybI5Wiu,2,2024-04-09_14h22.06.170,face trait task,2021.2.3,Win32,60.60606061,SONAid,,,,,,,
,,,,1.014641116,15.7138,space,0.7364,0,39,39,27,1,28,image/28.jpg,0,R_2dZ82kJ2ybI5Wiu,2,2024-04-09_14h22.06.170,face trait task,2021.2.3,Win32,60.60606061,SONAid,,,,,,,
,,,,5.774723711,2.7147,space,0.9504,0,40,40,25,1,26,image/26.jpg,0,R_2dZ82kJ2ybI5Wiu,2,2024-04-09_14h22.06.170,face trait task,2021.2.3,Win32,60.60606061,SONAid,,,,,,,
,,,,2.120329681,2.8722,space,0.4526,0,41,41,26,1,27,image/27.jpg,0,R_2dZ82kJ2ybI5Wiu,2,2024-04-09_14h22.06.170,face trait task,2021.2.3,Win32,60.60606061,SONAid,,,,,,,
,,,,1.689298475,2.3748,space,0.8086,0,42,42,13,1,14,image/14.jpg,0,R_2dZ82kJ2ybI5Wiu,2,2024-04-09_14h22.06.170,face trait task,2021.2.3,Win32,60.60606061,SONAid,,,,,,,
,,,,1.494397346,3.0875,space,0.5885,0,43,43,31,1,32,image/32.jpg,0,R_2dZ82kJ2ybI5Wiu,2,2024-04-09_14h22.06.170,face trait task,2021.2.3,Win32,60.60606061,SONAid,,,,,,,
,,,,1.089602931,3.2715,space,0.4002,0,44,44,34,1,35,image/35.jpg,0,R_2dZ82kJ2ybI5Wiu,2,2024-04-09_14h22.06.170,face trait task,2021.2.3,Win32,60.60606061,SONAid,,,,,,,
,,,,1.123335799,6.0872,space,0.3411,0,45,45,8,1,9,image/9.jpg,0,R_2dZ82kJ2ybI5Wiu,2,2024-04-09_14h22.06.170,face trait task,2021.2.3,Win32,60.60606061,SONAid,,,,,,,
,,,,6.666770435,2.7711,space,77.663,0,46,46,35,1,36,image/36.jpg,0,R_2dZ82kJ2ybI5Wiu,2,2024-04-09_14h22.06.170,face trait task,2021.2.3,Win32,60.60606061,SONAid,,,,,,,
,,,,4.204271073,2.0583,space,0.5207,0,47,47,39,1,40,image/40.jpg,0,R_2dZ82kJ2ybI5Wiu,2,2024-04-09_14h22.06.170,face trait task,2021.2.3,Win32,60.60606061,SONAid,,,,,,,
,,,,2.517627675,1.7887,space,0.6554,0,48,48,44,1,45,image/45.jpg,0,R_2dZ82kJ2ybI5Wiu,2,2024-04-09_14h22.06.170,face trait task,2021.2.3,Win32,60.60606061,SONAid,,,,,,,
,,,,5.785968,2.5711,space,0.5413,0,49,49,22,1,23,image/23.jpg,0,R_2dZ82kJ2ybI5Wiu,2,2024-04-09_14h22.06.170,face trait task,2021.2.3,Win32,60.60606061,SONAid,,,,,,,
,,,,1.726779383,1.7798,space,0.5192,0,50,50,50,1,60,image/60.jpg,1,R_2dZ82kJ2ybI5Wiu,2,2024-04-09_14h22.06.170,face trait task,2021.2.3,Win32,60.60606061,SONAid,,,,,,,
,,,,5.91340305,2.0373,space,0.373,0,51,51,24,1,25,image/25.jpg,0,R_2dZ82kJ2ybI5Wiu,2,2024-04-09_14h22.06.170,face trait task,2021.2.3,Win32,60.60606061,SONAid,,,,,,,
,,,,1.314488717,2.1077,space,0.4915,0,52,52,29,1,30,image/30.jpg,0,R_2dZ82kJ2ybI5Wiu,2,2024-04-09_14h22.06.170,face trait task,2021.2.3,Win32,60.60606061,SONAid,,,,,,,
,,,,,,,,,,,,,,,,R_2dZ82kJ2ybI5Wiu,2,2024-04-09_14h22.06.170,face trait task,2021.2.3,Win32,60.60606061,SONAid,0,2,2,2,1,2,trustworthy.png
,,,,3.248506481,4.5908,space,0.8887,0,0,0,37,1,38,image/38.jpg,0,R_2dZ82kJ2ybI5Wiu,2,2024-04-09_14h22.06.170,face trait task,2021.2.3,Win32,60.60606061,SONAid,,,,,,,
,,,,4.991371326,6.3857,space,5.2381,0,1,1,50,1,60,image/60.jpg,1,R_2dZ82kJ2ybI5Wiu,2,2024-04-09_14h22.06.170,face trait task,2021.2.3,Win32,60.60606061,SONAid,,,,,,,
,,,,1.048373984,4.7076,space,0.6407,0,2,2,40,1,41,image/41.jpg,0,R_2dZ82kJ2ybI5Wiu,2,2024-04-09_14h22.06.170,face trait task,2021.2.3,Win32,60.60606061,SONAid,,,,,,,
,,,,5.497364345,2.5534,space,0.4933,0,3,3,49,1,50,image/50.jpg,0,R_2dZ82kJ2ybI5Wiu,2,2024-04-09_14h22.06.170,face trait task,2021.2.3,Win32,60.60606061,SONAid,,,,,,,
,,,,5.407410031,9.0342,space,0.3675,0,4,4,23,1,24,image/24.jpg,0,R_2dZ82kJ2ybI5Wiu,2,2024-04-09_14h22.06.170,face trait task,2021.2.3,Win32,60.60606061,SONAid,,,,,,,
,,,,1.805489408,2.0384,space,0.467,0,5,5,14,1,15,image/15.jpg,0,R_2dZ82kJ2ybI5Wiu,2,2024-04-09_14h22.06.170,face trait task,2021.2.3,Win32,60.60606061,SONAid,,,,,,,
,,,,1.528130214,1.7706,space,0.3929,0,6,6,12,1,13,image/13.jpg,0,R_2dZ82kJ2ybI5Wiu,2,2024-04-09_14h22.06.170,face trait task,2021.2.3,Win32,60.60606061,SONAid,,,,,,,
,,,,4.99511988,2.9374,space,0.6841,0,7,7,51,1,57,image/57.jpg,1,R_2dZ82kJ2ybI5Wiu,2,2024-04-09_14h22.06.170,face trait task,2021.2.3,Win32,60.60606061,SONAid,,,,,,,
,,,,2.187795417,2.9914,space,0.6846,0,8,8,15,1,16,image/16.jpg,0,R_2dZ82kJ2ybI5Wiu,2,2024-04-09_14h22.06.170,face trait task,2021.2.3,Win32,60.60606061,SONAid,,,,,,,
,,,,5.336196427,2.4712,space,0.5834,0,9,9,39,1,40,image/40.jpg,0,R_2dZ82kJ2ybI5Wiu,2,2024-04-09_14h22.06.170,face trait task,2021.2.3,Win32,60.60606061,SONAid,,,,,,,
,,,,1.674305975,2.8545,space,0.459,0,10,10,13,1,14,image/14.jpg,0,R_2dZ82kJ2ybI5Wiu,2,2024-04-09_14h22.06.170,face trait task,2021.2.3,Win32,60.60606061,SONAid,,,,,,,
,,,,6.835434775,1.7776,space,1.6433,0,11,11,3,1,4,image/4.jpg,0,R_2dZ82kJ2ybI5Wiu,2,2024-04-09_14h22.06.170,face trait task,2021.2.3,Win32,60.60606061,SONAid,,,,,,,
,,,,6.426892491,1.6166,space,0.387,0,12,12,20,1,21,image/21.jpg,0,R_2dZ82kJ2ybI5Wiu,2,2024-04-09_14h22.06.170,face trait task,2021.2.3,Win32,60.60606061,SONAid,,,,,,,
,,,,2.165306838,2.1479,space,0.5338,0,13,13,30,1,31,image/31.jpg,0,R_2dZ82kJ2ybI5Wiu,2,2024-04-09_14h22.06.170,face trait task,2021.2.3,Win32,60.60606061,SONAid,,,,,,,
,,,,5.182524244,2.1544,space,0.3685,0,14,14,6,1,7,image/7.jpg,0,R_2dZ82kJ2ybI5Wiu,2,2024-04-09_14h22.06.170,face trait task,2021.2.3,Win32,60.60606061,SONAid,,,,,,,
,,,,6.295708887,1.6214,space,0.5177,0,15,15,35,1,36,image/36.jpg,0,R_2dZ82kJ2ybI5Wiu,2,2024-04-09_14h22.06.170,face trait task,2021.2.3,Win32,60.60606061,SONAid,,,,,,,
,,,,5.669777239,2.2376,space,0.4339,0,16,16,42,1,43,image/43.jpg,0,R_2dZ82kJ2ybI5Wiu,2,2024-04-09_14h22.06.170,face trait task,2021.2.3,Win32,60.60606061,SONAid,,,,,,,
,,,,4.140553548,2.2899,space,0.4659,0,17,17,4,1,5,image/5.jpg,0,R_2dZ82kJ2ybI5Wiu,2,2024-04-09_14h22.06.170,face trait task,2021.2.3,Win32,60.60606061,SONAid,,,,,,,
,,,,3.11732322,1.7747,space,0.4004,0,18,18,24,1,25,image/25.jpg,0,R_2dZ82kJ2ybI5Wiu,2,2024-04-09_14h22.06.170,face trait task,2021.2.3,Win32,60.60606061,SONAid,,,,,,,
,,,,1.872955144,2.212,space,0.6101,0,19,19,28,1,29,image/29.jpg,0,R_2dZ82kJ2ybI5Wiu,2,2024-04-09_14h22.06.170,face trait task,2021.2.3,Win32,60.60606061,SONAid,,,,,,,
,,,,1.584351661,3.4081,space,0.7421,0,20,20,48,1,49,image/49.jpg,0,R_2dZ82kJ2ybI5Wiu,2,2024-04-09_14h22.06.170,face trait task,2021.2.3,Win32,60.60606061,SONAid,,,,,,,
,,,,5.628547949,2.1213,space,0.6755,0,21,21,5,1,6,image/6.jpg,0,R_2dZ82kJ2ybI5Wiu,2,2024-04-09_14h22.06.170,face trait task,2021.2.3,Win32,60.60606061,SONAid,,,,,,,
,,,,1.224534402,3.0097,space,0.5596,0,22,22,18,1,19,image/19.jpg,0,R_2dZ82kJ2ybI5Wiu,2,2024-04-09_14h22.06.170,face trait task,2021.2.3,Win32,60.60606061,SONAid,,,,,,,
,,,,2.517627675,3.3044,space,0.4005,0,23,23,31,1,32,image/32.jpg,0,R_2dZ82kJ2ybI5Wiu,2,2024-04-09_14h22.06.170,face trait task,2021.2.3,Win32,60.60606061,SONAid,,,,,,,
,,,,2.513879807,1.255,space,0.4594,0,24,24,10,1,11,image/11.jpg,0,R_2dZ82kJ2ybI5Wiu,2,2024-04-09_14h22.06.170,face trait task,2021.2.3,Win32,60.60606061,SONAid,,,,,,,
,,,,4.110568891,2.1199,space,0.4602,0,25,25,22,1,23,image/23.jpg,0,R_2dZ82kJ2ybI5Wiu,2,2024-04-09_14h22.06.170,face trait task,2021.2.3,Win32,60.60606061,SONAid,,,,,,,
,,,,5.317455716,1.8048,space,0.3452,0,26,26,29,1,30,image/30.jpg,0,R_2dZ82kJ2ybI5Wiu,2,2024-04-09_14h22.06.170,face trait task,2021.2.3,Win32,60.60606061,SONAid,,,,,,,
,,,,6.097060233,1.8964,space,0.5094,0,27,27,17,1,18,image/18.jpg,0,R_2dZ82kJ2ybI5Wiu,2,2024-04-09_14h22.06.170,face trait task,2021.2.3,Win32,60.60606061,SONAid,,,,,,,
,,,,6.097060233,1.3789,space,0.4174,0,28,28,45,1,46,image/46.jpg,0,R_2dZ82kJ2ybI5Wiu,2,2024-04-09_14h22.06.170,face trait task,2021.2.3,Win32,60.60606061,SONAid,,,,,,,
,,,,1.292000138,2.0541,space,0.6198,0,29,29,8,1,9,image/9.jpg,0,R_2dZ82kJ2ybI5Wiu,2,2024-04-09_14h22.06.170,face trait task,2021.2.3,Win32,60.60606061,SONAid,,,,,,,
,,,,5.298715691,3.3953,space,0.4388,0,30,30,11,1,12,image/12.jpg,0,R_2dZ82kJ2ybI5Wiu,2,2024-04-09_14h22.06.170,face trait task,2021.2.3,Win32,60.60606061,SONAid,,,,,,,
,,,,1.801741369,2.2385,space,0.3842,0,31,31,32,1,33,image/33.jpg,0,R_2dZ82kJ2ybI5Wiu,2,2024-04-09_14h22.06.170,face trait task,2021.2.3,Win32,60.60606061,SONAid,,,,,,,
,,,,5.542341502,3.8087,space,2.0003,0,32,32,7,1,8,image/8.jpg,0,R_2dZ82kJ2ybI5Wiu,2,2024-04-09_14h22.06.170,face trait task,2021.2.3,Win32,60.60606061,SONAid,,,,,,,
,,,,2.693788436,2.7719,space,0.401,0,33,33,38,1,39,image/39.jpg,0,R_2dZ82kJ2ybI5Wiu,2,2024-04-09_14h22.06.170,face trait task,2021.2.3,Win32,60.60606061,SONAid,,,,,,,
,,,,5.051341326,1.954,space,0.4168,0,34,34,36,1,37,image/37.jpg,0,R_2dZ82kJ2ybI5Wiu,2,2024-04-09_14h22.06.170,face trait task,2021.2.3,Win32,60.60606061,SONAid,,,,,,,
,,,,4.372935413,2.4548,space,0.3005,0,35,35,47,1,48,image/48.jpg,0,R_2dZ82kJ2ybI5Wiu,2,2024-04-09_14h22.06.170,face trait task,2021.2.3,Win32,60.60606061,SONAid,,,,,,,
,,,,3.765743789,2.0547,space,0.3518,0,36,36,27,1,28,image/28.jpg,0,R_2dZ82kJ2ybI5Wiu,2,2024-04-09_14h22.06.170,face trait task,2021.2.3,Win32,60.60606061,SONAid,,,,,,,
,,,,2.199039706,2.171,space,0.3004,0,37,37,41,1,42,image/42.jpg,0,R_2dZ82kJ2ybI5Wiu,2,2024-04-09_14h22.06.170,face trait task,2021.2.3,Win32,60.60606061,SONAid,,,,,,,
,,,,2.199039706,2.8266,space,0.4,0,38,38,1,1,2,image/2.jpg,0,R_2dZ82kJ2ybI5Wiu,2,2024-04-09_14h22.06.170,face trait task,2021.2.3,Win32,60.60606061,SONAid,,,,,,,
,,,,6.621793277,4.5541,space,1.7503,0,39,39,25,1,26,image/26.jpg,0,R_2dZ82kJ2ybI5Wiu,2,2024-04-09_14h22.06.170,face trait task,2021.2.3,Win32,60.60606061,SONAid,,,,,,,
,,,,3.211025745,2.6712,space,0.6005,0,40,40,43,1,44,image/44.jpg,0,R_2dZ82kJ2ybI5Wiu,2,2024-04-09_14h22.06.170,face trait task,2021.2.3,Win32,60.60606061,SONAid,,,,,,,
,,,,6.404403913,3.5637,space,0.5673,0,41,41,52,1,61,image/61.jpg,1,R_2dZ82kJ2ybI5Wiu,2,2024-04-09_14h22.06.170,face trait task,2021.2.3,Win32,60.60606061,SONAid,,,,,,,
,,,,4.500370806,2.9094,space,0.5843,0,42,42,34,1,35,image/35.jpg,0,R_2dZ82kJ2ybI5Wiu,2,2024-04-09_14h22.06.170,face trait task,2021.2.3,Win32,60.60606061,SONAid,,,,,,,
,,,,5.246242112,2.0761,space,0.2913,0,43,43,26,1,27,image/27.jpg,0,R_2dZ82kJ2ybI5Wiu,2,2024-04-09_14h22.06.170,face trait task,2021.2.3,Win32,60.60606061,SONAid,,,,,,,
,,,,5.231249955,1.0943,space,0.7002,0,44,44,46,1,47,image/47.jpg,0,R_2dZ82kJ2ybI5Wiu,2,2024-04-09_14h22.06.170,face trait task,2021.2.3,Win32,60.60606061,SONAid,,,,,,,
,,,,6.130793101,1.0189,space,0.1832,0,45,45,21,1,22,image/22.jpg,0,R_2dZ82kJ2ybI5Wiu,2,2024-04-09_14h22.06.170,face trait task,2021.2.3,Win32,60.60606061,SONAid,,,,,,,
,,,,5.759731554,1.3381,space,0.0533,0,46,46,19,1,20,image/20.jpg,0,R_2dZ82kJ2ybI5Wiu,2,2024-04-09_14h22.06.170,face trait task,2021.2.3,Win32,60.60606061,SONAid,,,,,,,
,,,,3.357201506,1.1663,space,0.1019,0,47,47,44,1,45,image/45.jpg,0,R_2dZ82kJ2ybI5Wiu,2,2024-04-09_14h22.06.170,face trait task,2021.2.3,Win32,60.60606061,SONAid,,,,,,,
,,,,2.337719045,1.2062,space,0.5162,0,48,48,0,1,1,image/1.jpg,0,R_2dZ82kJ2ybI5Wiu,2,2024-04-09_14h22.06.170,face trait task,2021.2.3,Win32,60.60606061,SONAid,,,,,,,
,,,,5.602311503,2.2976,space,0.9946,0,49,49,33,1,34,image/34.jpg,0,R_2dZ82kJ2ybI5Wiu,2,2024-04-09_14h22.06.170,face trait task,2021.2.3,Win32,60.60606061,SONAid,,,,,,,
,,,,1.168312956,1.6794,space,0.3608,0,50,50,16,1,17,image/17.jpg,0,R_2dZ82kJ2ybI5Wiu,2,2024-04-09_14h22.06.170,face trait task,2021.2.3,Win32,60.60606061,SONAid,,,,,,,
,,,,1.168312956,1.4387,space,0.4662,0,51,51,2,1,3,image/3.jpg,0,R_2dZ82kJ2ybI5Wiu,2,2024-04-09_14h22.06.170,face trait task,2021.2.3,Win32,60.60606061,SONAid,,,,,,,
,,,,4.931402011,3.5396,space,2.2175,0,52,52,9,1,10,image/10.jpg,0,R_2dZ82kJ2ybI5Wiu,2,2024-04-09_14h22.06.170,face trait task,2021.2.3,Win32,60.60606061,SONAid,,,,,,,
,,,,,,,,,,,,,,,,R_2dZ82kJ2ybI5Wiu,2,2024-04-09_14h22.06.170,face trait task,2021.2.3,Win32,60.60606061,SONAid,0,3,3,1,1,1,competent.png
