chooserow,ParID,pre_instru_resp_2.keys,pre_instru_resp_2.rt,pre_instru_resp_3.keys,pre_instru_resp_3.rt,pre_instru_resp_9.keys,pre_instru_resp_9.rt,pre_instru_resp_8.keys,pre_instru_resp_8.rt,pre_instru_resp_4.keys,pre_instru_resp_4.rt,pre_instru_resp_5.keys,pre_instru_resp_5.rt,pre_instru_resp_6.keys,pre_instru_resp_6.rt,key_resp_3.keys,key_resp_3.rt,key_resp_4.keys,key_resp_4.rt,key_resp_5.keys,key_resp_5.rt,key_resp_6.keys,key_resp_6.rt,key_resp_7.keys,key_resp_7.rt,trials_2.thisRepN,trials_2.thisTrialN,trials_2.thisN,trials_2.thisIndex,trials_2.ran,participant,session,date,expName,psychopyVersion,OS,frameRate,SONAid,pre_instru_resp.keys,pre_instru_resp.rt,clicked,judge_2.x,judge_2.y,judge_2.leftButton,judge_2.midButton,judge_2.rightButton,trials.thisRepN,trials.thisTrialN,trials.thisN,trials.thisIndex,trials.ran,prac_answer,prac_dot_sti,dotlefttext,dotrighttext,judge_2.clicked_name,prac_acc,judge.x,judge.y,judge.leftButton,judge.midButton,judge.rightButton,judge.clicked_name,clicked_guilt,slider_guilt.response,slider_guilt.rt,key_guilt.keys,key_guilt.rt,share_slider.response,share_slider.rt,key_share.keys,slider_apology.response,slider_apology.rt,key_apology.keys,slider_hide.response,slider_hide.rt,slider_forgiveness.response,slider_forgiveness.rt,key_forgiveness.keys,slider_mad.response,slider_mad.rt,trialseq.thisRepN,trialseq.thisTrialN,trialseq.thisN,trialseq.thisIndex,trialseq.ran,type_trial,stipic,DV,picture,answer,number,key_share.rt,key_forgiveness.rt,key_apology.rt,incompleteTrials,trials_redo.thisRepN,trials_redo.thisTrialN,trials_redo.thisN,trials_redo.thisIndex,trials_redo.ran
"[58,60,147,180,124,118,169,54,97,182,42,80,140,87,130,115,188,85,155,112,69,122,157,141,81,30,156,201,161,197,91,102,1,66,170,145,177,57,132,15,83,99]",R_2D6PXoNGiJXqobD,space,5.7836,space,10.9423,space,34.1849,space,50.6604,space,118.6027,space,25.4248,space,12.1539,3,21.0301,3,17.1043,3,22.1615,2,26.2227,3,15.3979,0,0,0,0,1,R_2D6PXoNGiJXqobD,1,2024-04-16_15h13.12.165,interaction task,2021.2.3,MacIntel,60.97560976,120541,,,,,,,,,,,,,,,,,,,,,,,,,,,,,,,,,,,,,,,,,,,,,,,,,,,,,,,,,,,,,,,
,,,,space,11.3765,space,112.3942,space,55.4951,space,15.1859,space,18.5885,space,11.9724,3,10.1254,3,20.8899,3,12.5471,2,11.5927,3,17.4177,1,0,1,0,1,R_2D6PXoNGiJXqobD,1,2024-04-16_15h13.12.165,interaction task,2021.2.3,MacIntel,60.97560976,120541,,,,,,,,,,,,,,,,,,,,,,,,,,,,,,,,,,,,,,,,,,,,,,,,,,,,,,,,,,,,,,,
,,,,space,7.1277,space,2.272,space,1.3375,space,0.6622,space,3.0184,space,1.717,3,1.5755,1,15.3125,3,4.0123,2,3.6908,1,13.3166,2,0,2,0,1,R_2D6PXoNGiJXqobD,1,2024-04-16_15h13.12.165,interaction task,2021.2.3,MacIntel,60.97560976,120541,,,,,,,,,,,,,,,,,,,,,,,,,,,,,,,,,,,,,,,,,,,,,,,,,,,,,,,,,,,,,,,
,,,,space,1.6223,space,0.6591,space,0.4608,space,0.6836,space,1.2179,space,1.1352,3,2.3491,1,13.2956,3,2.654,2,2.3915,2,5.0986,3,0,3,0,1,R_2D6PXoNGiJXqobD,1,2024-04-16_15h13.12.165,interaction task,2021.2.3,MacIntel,60.97560976,120541,,,,,,,,,,,,,,,,,,,,,,,,,,,,,,,,,,,,,,,,,,,,,,,,,,,,,,,,,,,,,,,
,,,,,,,,,,,,,,,,,,,,,,,,,,,,,,,R_2D6PXoNGiJXqobD,1,2024-04-16_15h13.12.165,interaction task,2021.2.3,MacIntel,60.97560976,120541,space,7.5753,[],0.078760868,-0.191029324,0,0,0,0,0,0,1,1,LeftButton_2,11dot2.png,Greater,Smaller,,,,,,,,,,,,,,,,,,,,,,,,,,,,,,,,,,,,,,,,,,,,,,
,,,,,,,,,,,,,,,,,,,,,,,,,,,,,,,R_2D6PXoNGiJXqobD,1,2024-04-16_15h13.12.165,interaction task,2021.2.3,MacIntel,60.97560976,120541,,,"[""RightButton_2""]",0.265321689,-0.286884766,1,0,0,0,1,1,0,1,RightButton_2,11dot2.png,Smaller,Greater,RightButton_2,,,,,,,,,,,,,,,,,,,,,,,,,,,,,,,,,,,,,,,,,,,,,
,,,,,,,,,,,,,,,,,,,,,,,,,,,,,,,R_2D6PXoNGiJXqobD,1,2024-04-16_15h13.12.165,interaction task,2021.2.3,MacIntel,60.97560976,120541,,,"[""RightButton_2""]",0.25106625,-0.316744656,1,0,0,0,2,2,2,1,RightButton_2,9dot1.png,Greater,Smaller,RightButton_2,,,,,,,,,,,,,,,,,,,,,,,,,,,,,,,,,,,,,,,,,,,,,
,,,,,,,,,,,,,,,,,,,,,,,,,,,,,,,R_2D6PXoNGiJXqobD,1,2024-04-16_15h13.12.165,interaction task,2021.2.3,MacIntel,60.97560976,120541,,,,,,,,,,,,,,,,Smaller,Greater,,0.4,0.269530487,-0.509653049,1,0,0,RightButton,"[""RightButton""]",14,10.1568,space,4.5491,,,,,,,,,,,,,,0,0,0,0,1,1,both_wrong.png,0,RandomDot34.png,No answer,19,,,,,,,,,
,,,,,,,,,,,,,,,,,,,,,,,,,,,,,,,R_2D6PXoNGiJXqobD,1,2024-04-16_15h13.12.165,interaction task,2021.2.3,MacIntel,60.97560976,120541,,,,,,,,,,,,,,,,Greater,Smaller,,,-0.292926619,-0.482007107,1,0,0,LeftButton,"[""LeftButton""]",,,,,2.048372057,2.6093,space,,,,,,,,,,,0,1,1,1,1,1,both_wrong.png,1,RandomDot13.png,No answer,19,1.5775,,,,,,,,
,,,,,,,,,,,,,,,,,,,,,,,,,,,,,,,R_2D6PXoNGiJXqobD,1,2024-04-16_15h13.12.165,interaction task,2021.2.3,MacIntel,60.97560976,120541,,,,,,,,,,,,,,,,Greater,Smaller,,,0.236804623,-0.508116048,1,0,0,RightButton,"[""RightButton""]",10,5.4904,space,1.119,,,,,,,,,,,,,,0,2,2,2,1,3,only_sub_wrong.png,0,RandomDot5.png,No answer,20,,,,,,,,,
,,,,,,,,,,,,,,,,,,,,,,,,,,,,,,,R_2D6PXoNGiJXqobD,1,2024-04-16_15h13.12.165,interaction task,2021.2.3,MacIntel,60.97560976,120541,,,,,,,,,,,,,,,,Greater,Smaller,,,-0.251311239,-0.507196316,1,0,0,LeftButton,"[""LeftButton""]",,,,,,,,,,,,,10.16681984,6.6875,space,19.65840315,8.9634,0,3,3,3,1,3,only_sub_wrong.png,3,RandomDot20.png,No answer,19,,4.161,,,,,,,
,,,,,,,,,,,,,,,,,,,,,,,,,,,,,,,R_2D6PXoNGiJXqobD,1,2024-04-16_15h13.12.165,interaction task,2021.2.3,MacIntel,60.97560976,120541,,,,,,,,,,,,,,,,Greater,Smaller,,,0.25835495,-0.48060045,1,0,0,RightButton,"[""RightButton""]",,,,,,,,0,8.4246,space,0,13.5445,,,,,,0,4,4,4,1,2,only_sub_right.png,2,RandomDot20.png,No answer,20,,,0.8308,,,,,,
,,,,,,,,,,,,,,,,,,,,,,,,,,,,,,,R_2D6PXoNGiJXqobD,1,2024-04-16_15h13.12.165,interaction task,2021.2.3,MacIntel,60.97560976,120541,,,,,,,,,,,,,,,,Smaller,Greater,,,-0.358174642,-0.492442491,1,0,0,LeftButton,"[""LeftButton""]",,,,,4.940615336,15.0105,space,,,,,,,,,,,0,5,5,5,1,2,only_sub_right.png,1,RandomDot34.png,No answer,19,1.3164,,,,,,,,
,,,,,,,,,,,,,,,,,,,,,,,,,,,,,,,R_2D6PXoNGiJXqobD,1,2024-04-16_15h13.12.165,interaction task,2021.2.3,MacIntel,60.97560976,120541,,,,,,,,,,,,,,,,Greater,Smaller,,,-0.266705577,-0.484817437,1,0,0,LeftButton,"[""LeftButton""]",,,,,,,,10,4.7939,space,14,6.213,,,,,,0,6,6,6,1,3,only_sub_wrong.png,2,RandomDot1.png,No answer,20,,,1.7041,,,,,,
,,,,,,,,,,,,,,,,,,,,,,,,,,,,,,,R_2D6PXoNGiJXqobD,1,2024-04-16_15h13.12.165,interaction task,2021.2.3,MacIntel,60.97560976,120541,,,,,,,,,,,,,,,,Smaller,Greater,,,-0.232101525,-0.534484592,1,0,0,LeftButton,"[""LeftButton""]",51,6.3096,space,1.023,,,,,,,,,,,,,,0,7,7,7,1,1,both_wrong.png,0,RandomDot23.png,No answer,20,,,,,,,,,
,,,,,,,,,,,,,,,,,,,,,,,,,,,,,,,R_2D6PXoNGiJXqobD,1,2024-04-16_15h13.12.165,interaction task,2021.2.3,MacIntel,60.97560976,120541,,,,,,,,,,,,,,,,Greater,Smaller,,,-0.233956061,-0.530895996,1,0,0,LeftButton,"[""LeftButton""]",1,4.7448,space,2.0822,,,,,,,,,,,,,,0,8,8,8,1,2,only_sub_right.png,0,RandomDot8.png,No answer,20,,,,,,,,,
,,,,,,,,,,,,,,,,,,,,,,,,,,,,,,,R_2D6PXoNGiJXqobD,1,2024-04-16_15h13.12.165,interaction task,2021.2.3,MacIntel,60.97560976,120541,,,,,,,,,,,,,,,,Greater,Smaller,,,0.263201904,-0.475707601,1,0,0,RightButton,"[""RightButton""]",,,,,,,,,,,,,11.21561327,3.6721,space,30.35787974,5.4029,0,9,9,9,1,3,only_sub_wrong.png,3,RandomDot8.png,No answer,21,,2.2309,,,,,,,
,,,,,,,,,,,,,,,,,,,,,,,,,,,,,,,R_2D6PXoNGiJXqobD,1,2024-04-16_15h13.12.165,interaction task,2021.2.3,MacIntel,60.97560976,120541,,,,,,,,,,,,,,,,Smaller,Greater,,,0.289250098,-0.539383681,1,0,0,RightButton,"[""RightButton""]",,,,,,,,,,,,,,,,,,0,10,10,10,1,0,both_right.png,3,RandomDot11.png,No answer,20,,,,,,,,,
,,,,,,,,,,,,,,,,,,,,,,,,,,,,,,,R_2D6PXoNGiJXqobD,1,2024-04-16_15h13.12.165,interaction task,2021.2.3,MacIntel,60.97560976,120541,,,,,,,,,,,,,,,,Smaller,Greater,,,-0.252550083,-0.508451742,1,0,0,LeftButton,"[""LeftButton""]",,,,,,,,8,3.1092,space,0,7.3551,,,,,,0,11,11,11,1,1,both_wrong.png,2,RandomDot8.png,No answer,20,,,1.033,,,,,,
,,,,,,,,,,,,,,,,,,,,,,,,,,,,,,,R_2D6PXoNGiJXqobD,1,2024-04-16_15h13.12.165,interaction task,2021.2.3,MacIntel,60.97560976,120541,,,,,,,,,,,,,,,,Smaller,Greater,,,0.265690698,-0.514749078,1,0,0,RightButton,"[""RightButton""]",,,,,,,,,,,,,0.068194457,6.9475,space,10.95192392,11.3124,0,12,12,12,1,2,only_sub_right.png,3,RandomDot8.png,No answer,19,,0.6684,,,,,,,
,,,,,,,,,,,,,,,,,,,,,,,,,,,,,,,R_2D6PXoNGiJXqobD,1,2024-04-16_15h13.12.165,interaction task,2021.2.3,MacIntel,60.97560976,120541,,,,,,,,,,,,,,,,Greater,Smaller,,,-0.268210941,-0.493710938,1,0,0,LeftButton,"[""LeftButton""]",,,,,,,,,,,,,10.88415846,5.8651,space,31.14065048,9.2169,0,13,13,13,1,1,both_wrong.png,3,RandomDot17.png,No answer,21,,1.8536,,,,,,,
,,,,,,,,,,,,,,,,,,,,,,,,,,,,,,,R_2D6PXoNGiJXqobD,1,2024-04-16_15h13.12.165,interaction task,2021.2.3,MacIntel,60.97560976,120541,,,,,,,,,,,,,,,,Smaller,Greater,,,0.244283888,-0.489510362,1,0,0,RightButton,"[""RightButton""]",,,,,,,,40,7.1738,space,19,13.6156,,,,,,0,14,14,14,1,2,only_sub_right.png,2,RandomDot8.png,No answer,21,,,0.9526,,,,,,
,,,,,,,,,,,,,,,,,,,,,,,,,,,,,,,R_2D6PXoNGiJXqobD,1,2024-04-16_15h13.12.165,interaction task,2021.2.3,MacIntel,60.97560976,120541,,,,,,,,,,,,,,,,Smaller,Greater,,,0.220498572,-0.486065131,1,0,0,RightButton,"[""RightButton""]",,,,,4.956881205,5.2011,space,,,,,,,,,,,0,15,15,15,1,2,only_sub_right.png,1,RandomDot14.png,No answer,20,2.6687,,,,,,,,
,,,,,,,,,,,,,,,,,,,,,,,,,,,,,,,R_2D6PXoNGiJXqobD,1,2024-04-16_15h13.12.165,interaction task,2021.2.3,MacIntel,60.97560976,120541,,,,,,,,,,,,,,,,Smaller,Greater,,,0.201996189,-0.510176188,1,0,0,RightButton,"[""RightButton""]",,,,,,,,,,,,,30.28899256,5.2543,space,49.82446399,9.1038,0,16,16,16,1,3,only_sub_wrong.png,3,RandomDot22.png,No answer,21,,0.9825,,,,,,,
,,,,,,,,,,,,,,,,,,,,,,,,,,,,,,,R_2D6PXoNGiJXqobD,1,2024-04-16_15h13.12.165,interaction task,2021.2.3,MacIntel,60.97560976,120541,,,,,,,,,,,,,,,,Greater,Smaller,,,0.308137427,-0.504666206,1,0,0,RightButton,"[""RightButton""]",,,,,,,,,,,,,11.65348143,3.9696,space,21.03928931,5.3415,0,17,17,17,1,1,both_wrong.png,3,RandomDot40.png,No answer,21,,0.9706,,,,,,,
,,,,,,,,,,,,,,,,,,,,,,,,,,,,,,,R_2D6PXoNGiJXqobD,1,2024-04-16_15h13.12.165,interaction task,2021.2.3,MacIntel,60.97560976,120541,,,,,,,,,,,,,,,,Smaller,Greater,,,-0.266336314,-0.496697456,1,0,0,LeftButton,"[""LeftButton""]",50,4.5707,space,0.4215,,,,,,,,,,,,,,0,18,18,18,1,3,only_sub_wrong.png,0,RandomDot2.png,No answer,20,,,,,,,,,
,,,,,,,,,,,,,,,,,,,,,,,,,,,,,,,R_2D6PXoNGiJXqobD,1,2024-04-16_15h13.12.165,interaction task,2021.2.3,MacIntel,60.97560976,120541,,,,,,,,,,,,,,,,Greater,Smaller,,,-0.282377116,-0.513338487,1,0,0,LeftButton,"[""LeftButton""]",,,,,4.970017327,2.6116,space,,,,,,,,,,,0,19,19,19,1,2,only_sub_right.png,1,RandomDot32.png,No answer,19,1.4707,,,,,,,,
,,,,,,,,,,,,,,,,,,,,,,,,,,,,,,,R_2D6PXoNGiJXqobD,1,2024-04-16_15h13.12.165,interaction task,2021.2.3,MacIntel,60.97560976,120541,,,,,,,,,,,,,,,,Smaller,Greater,,,0.265565236,-0.477994385,1,0,0,RightButton,"[""RightButton""]",,,,,4.952698602,1.4755,space,,,,,,,,,,,0,20,20,20,1,1,both_wrong.png,1,RandomDot13.png,No answer,19,1.4336,,,,,,,,
,,,,,,,,,,,,,,,,,,,,,,,,,,,,,,,R_2D6PXoNGiJXqobD,1,2024-04-16_15h13.12.165,interaction task,2021.2.3,MacIntel,60.97560976,120541,,,,,,,,,,,,,,,,Greater,Smaller,,,-0.259898376,-0.515223117,1,0,0,LeftButton,"[""LeftButton""]",,,,,,,,29,6.968,space,10,10.7315,,,,,,0,21,21,21,1,2,only_sub_right.png,2,RandomDot33.png,No answer,20,,,0.7998,,,,,,
,,,,,,,,,,,,,,,,,,,,,,,,,,,,,,,R_2D6PXoNGiJXqobD,1,2024-04-16_15h13.12.165,interaction task,2021.2.3,MacIntel,60.97560976,120541,,,,,,,,,,,,,,,,Greater,Smaller,,,0.301680925,-0.469771593,1,0,0,RightButton,"[""RightButton""]",,,,,4.965759277,2.6266,space,,,,,,,,,,,0,22,22,22,1,3,only_sub_wrong.png,1,RandomDot8.png,No answer,21,0.7761,,,,,,,,
,,,,,,,,,,,,,,,,,,,,,,,,,,,,,,,R_2D6PXoNGiJXqobD,1,2024-04-16_15h13.12.165,interaction task,2021.2.3,MacIntel,60.97560976,120541,,,,,,,,,,,,,,,,Smaller,Greater,,,0.493151855,-0.009967855,0,0,0,,[],,,,,,,,,,,,,,,,,,0,23,23,23,1,2,only_sub_right.png,3,RandomDot7.png,No answer,20,,,,141,,,,,
,,,,,,,,,,,,,,,,,,,,,,,,,,,,,,,R_2D6PXoNGiJXqobD,1,2024-04-16_15h13.12.165,interaction task,2021.2.3,MacIntel,60.97560976,120541,,,,,,,,,,,,,,,,Smaller,Greater,,,-0.25690333,-0.519418945,1,0,0,LeftButton,"[""LeftButton""]",,,,,,,,11,1.8923,space,30,3.9742,,,,,,0,24,24,24,1,1,both_wrong.png,2,RandomDot21.png,No answer,20,,,2.5815,,,,,,
,,,,,,,,,,,,,,,,,,,,,,,,,,,,,,,R_2D6PXoNGiJXqobD,1,2024-04-16_15h13.12.165,interaction task,2021.2.3,MacIntel,60.97560976,120541,,,,,,,,,,,,,,,,Smaller,Greater,,,-0.307463074,-0.508271213,1,0,0,LeftButton,"[""LeftButton""]",,,,,,,,,,,,,,,,,,0,25,25,25,1,0,both_right.png,2,RandomDot24.png,No answer,21,,,,,,,,,
,,,,,,,,,,,,,,,,,,,,,,,,,,,,,,,R_2D6PXoNGiJXqobD,1,2024-04-16_15h13.12.165,interaction task,2021.2.3,MacIntel,60.97560976,120541,,,,,,,,,,,,,,,,Greater,Smaller,,,-0.245961931,-0.492764486,1,0,0,LeftButton,"[""LeftButton""]",,,,,4.928855896,3.3025,space,,,,,,,,,,,0,26,26,26,1,3,only_sub_wrong.png,1,RandomDot4.png,No answer,20,0.7154,,,,,,,,
,,,,,,,,,,,,,,,,,,,,,,,,,,,,,,,R_2D6PXoNGiJXqobD,1,2024-04-16_15h13.12.165,interaction task,2021.2.3,MacIntel,60.97560976,120541,,,,,,,,,,,,,,,,Smaller,Greater,,,-0.210159895,-0.508963216,1,0,0,LeftButton,"[""LeftButton""]",,,,,,,,,,,,,,,,,,0,27,27,27,1,5,both_right.png,10,RandomDot42.png,LeftButton,19,,,,,,,,,
,,,,,,,,,,,,,,,,,,,,,,,,,,,,,,,R_2D6PXoNGiJXqobD,1,2024-04-16_15h13.12.165,interaction task,2021.2.3,MacIntel,60.97560976,120541,,,,,,,,,,,,,,,,Greater,Smaller,,,-0.243306139,-0.495537245,1,0,0,LeftButton,"[""LeftButton""]",,,,,4.9599194,2.34,space,,,,,,,,,,,0,28,28,28,1,3,only_sub_wrong.png,1,RandomDot36.png,No answer,19,1.2332,,,,,,,,
,,,,,,,,,,,,,,,,,,,,,,,,,,,,,,,R_2D6PXoNGiJXqobD,1,2024-04-16_15h13.12.165,interaction task,2021.2.3,MacIntel,60.97560976,120541,,,,,,,,,,,,,,,,Smaller,Greater,,,0.203324551,-0.517968886,1,0,0,RightButton,"[""RightButton""]",,,,,,,,,,,,,,,,,,0,29,29,29,1,4,both_right.png,10,RandomDot41.png,RightButton,5,,,,,,,,,
,,,,,,,,,,,,,,,,,,,,,,,,,,,,,,,R_2D6PXoNGiJXqobD,1,2024-04-16_15h13.12.165,interaction task,2021.2.3,MacIntel,60.97560976,120541,,,,,,,,,,,,,,,,Smaller,Greater,,,0.232400852,-0.493533529,1,0,0,RightButton,"[""RightButton""]",,,,,,,,,,,,,8.94435707,5.5198,space,11.32376486,9.8849,0,30,30,30,1,1,both_wrong.png,3,RandomDot23.png,No answer,20,,1.2368,,,,,,,
,,,,,,,,,,,,,,,,,,,,,,,,,,,,,,,R_2D6PXoNGiJXqobD,1,2024-04-16_15h13.12.165,interaction task,2021.2.3,MacIntel,60.97560976,120541,,,,,,,,,,,,,,,,Smaller,Greater,,,-0.218298425,-0.527892253,1,0,0,LeftButton,"[""LeftButton""]",0,4.1235,space,0.7929,,,,,,,,,,,,,,0,31,31,31,1,2,only_sub_right.png,0,RandomDot16.png,No answer,21,,,,,,,,,
,,,,,,,,,,,,,,,,,,,,,,,,,,,,,,,R_2D6PXoNGiJXqobD,1,2024-04-16_15h13.12.165,interaction task,2021.2.3,MacIntel,60.97560976,120541,,,,,,,,,,,,,,,,Greater,Smaller,,,0.303863949,-0.476649848,1,0,0,RightButton,"[""RightButton""]",,,,,,,,,,,,,,,,,,0,32,32,32,1,0,both_right.png,0,RandomDot36.png,No answer,21,,,,,,,,,
,,,,,,,,,,,,,,,,,,,,,,,,,,,,,,,R_2D6PXoNGiJXqobD,1,2024-04-16_15h13.12.165,interaction task,2021.2.3,MacIntel,60.97560976,120541,,,,,,,,,,,,,,,,Smaller,Greater,,,-0.249709659,-0.517814128,1,0,0,LeftButton,"[""LeftButton""]",,,,,4.986701965,2.015,space,,,,,,,,,,,0,33,33,33,1,1,both_wrong.png,1,RandomDot10.png,No answer,19,0.33,,,,,,,,
,,,,,,,,,,,,,,,,,,,,,,,,,,,,,,,R_2D6PXoNGiJXqobD,1,2024-04-16_15h13.12.165,interaction task,2021.2.3,MacIntel,60.97560976,120541,,,,,,,,,,,,,,,,Greater,Smaller,,,0.261868032,-0.491947021,1,0,0,RightButton,"[""RightButton""]",,,,,,,,10,3.4703,space,0,6.5201,,,,,,0,34,34,34,1,3,only_sub_wrong.png,2,RandomDot39.png,No answer,20,,,0.4667,,,,,,
,,,,,,,,,,,,,,,,,,,,,,,,,,,,,,,R_2D6PXoNGiJXqobD,1,2024-04-16_15h13.12.165,interaction task,2021.2.3,MacIntel,60.97560976,120541,,,,,,,,,,,,,,,,Greater,Smaller,,,0.287856632,-0.511315782,1,0,0,RightButton,"[""RightButton""]",33,3.4073,space,0.6066,,,,,,,,,,,,,,0,35,35,35,1,3,only_sub_wrong.png,0,RandomDot15.png,No answer,20,,,,,,,,,
,,,,,,,,,,,,,,,,,,,,,,,,,,,,,,,R_2D6PXoNGiJXqobD,1,2024-04-16_15h13.12.165,interaction task,2021.2.3,MacIntel,60.97560976,120541,,,,,,,,,,,,,,,,Smaller,Greater,,,-0.2519271,-0.490408936,1,0,0,LeftButton,"[""LeftButton""]",,,,,,,,0,3.0312,space,0,3.9634,,,,,,0,36,36,36,1,3,only_sub_wrong.png,2,RandomDot31.png,No answer,19,,,0.3596,,,,,,
,,,,,,,,,,,,,,,,,,,,,,,,,,,,,,,R_2D6PXoNGiJXqobD,1,2024-04-16_15h13.12.165,interaction task,2021.2.3,MacIntel,60.97560976,120541,,,,,,,,,,,,,,,,Smaller,Greater,,,0.303781467,-0.528594428,1,0,0,RightButton,"[""RightButton""]",51,3.0001,space,1.0334,,,,,,,,,,,,,,0,37,37,37,1,1,both_wrong.png,0,RandomDot22.png,No answer,21,,,,,,,,,
,,,,,,,,,,,,,,,,,,,,,,,,,,,,,,,R_2D6PXoNGiJXqobD,1,2024-04-16_15h13.12.165,interaction task,2021.2.3,MacIntel,60.97560976,120541,,,,,,,,,,,,,,,,Greater,Smaller,,,0.284630161,-0.4768023,1,0,0,RightButton,"[""RightButton""]",,,,,,,,,,,,,0,4.9505,space,0,6.9875,0,38,38,38,1,2,only_sub_right.png,3,RandomDot20.png,No answer,21,,0.3492,,,,,,,
,,,,,,,,,,,,,,,,,,,,,,,,,,,,,,,R_2D6PXoNGiJXqobD,1,2024-04-16_15h13.12.165,interaction task,2021.2.3,MacIntel,60.97560976,120541,,,,,,,,,,,,,,,,Greater,Smaller,,,-0.217509206,-0.505116916,1,0,0,LeftButton,"[""LeftButton""]",,,,,,,,,,,,,,,,,,0,39,39,39,1,0,both_right.png,1,RandomDot35.png,No answer,21,,,,,,,,,
,,,,,,,,,,,,,,,,,,,,,,,,,,,,,,,R_2D6PXoNGiJXqobD,1,2024-04-16_15h13.12.165,interaction task,2021.2.3,MacIntel,60.97560976,120541,,,,,,,,,,,,,,,,Smaller,Greater,,,0.253847249,-0.51762207,1,0,0,RightButton,"[""RightButton""]",,,,,,,,20,2.6717,space,19,3.5238,,,,,,0,40,40,40,1,1,both_wrong.png,2,RandomDot8.png,No answer,20,,,1.469,,,,,,
,,,,,,,,,,,,,,,,,,,,,,,,,,,,,,,R_2D6PXoNGiJXqobD,1,2024-04-16_15h13.12.165,interaction task,2021.2.3,MacIntel,60.97560976,120541,,,,,,,,,,,,,,,,Greater,Smaller,,,0.31047482,-0.500876736,1,0,0,RightButton,"[""RightButton""]",0,6.8919,space,0.4454,,,,,,,,,,,,,,0,41,41,41,1,2,only_sub_right.png,0,RandomDot21.png,No answer,19,,,,,,,,,
,,,,,,,,,,,,,,,,,,,,,,,,,,,,,,,R_2D6PXoNGiJXqobD,1,2024-04-16_15h13.12.165,interaction task,2021.2.3,MacIntel,60.97560976,120541,,,,,,,,,,,,,,,,Smaller,Greater,,,0.270656247,-0.503154839,1,0,0,RightButton,"[""RightButton""]",,,,,,,,,,,,,0.335124794,2.3974,space,4.686559812,4.0548,,,,,,2,only_sub_right.png,3,RandomDot7.png,No answer,20,,0.4246,,,0,0,0,0,1
