choose_trial,key_resp.keys,key_resp.rt,key_resp_4.keys,key_resp_4.rt,session_trait,slider_face_judge.response,slider_face_judge.rt,key_resp_3.keys,key_resp_3.rt,face_loop.thisRepN,face_loop.thisTrialN,face_loop.thisN,face_loop.thisIndex,face_loop.ran,face_serial,image_name,isCheck,answer,check_question,participant,session,date,expName,psychopyVersion,OS,frameRate,SONAid,session.thisRepN,session.thisTrialN,session.thisN,session.thisIndex,session.ran,session_serial,slider_judge_img
"[0,1,2,3,4,5,6,7,8,9,10,11,12,13,14,15,16,17,18,19,20,21,22,23,24,25,26,27,28,29,30,31,32,33,34,35,36,37,38,39,40,41,42,43,44,45,46,47,48,49,50,51,52]",space,4.2446,space,2.1064,critical,2.022222307,9.7056,space,3.4308,0,0,0,14,1,15,image/15.jpg,0,0,,R_2KyfqZxEJXtBkzL,2,2024-05-12_11h19.06.396,face trait task,2021.2.3,Win32,59.88023952,120416,,,,,,,
,,,,,,1,4.7398,space,2.1335,0,1,1,50,1,51,image/fill_img.png,1,1,Please move the slider all the way to the LEFT to show that you are paying attention.,R_2KyfqZxEJXtBkzL,2,2024-05-12_11h19.06.396,face trait task,2021.2.3,Win32,59.88023952,120416,,,,,,,
,,,,,,2.088889016,4.5812,space,1.2533,0,2,2,16,1,17,image/17.jpg,0,0,,R_2KyfqZxEJXtBkzL,2,2024-05-12_11h19.06.396,face trait task,2021.2.3,Win32,59.88023952,120416,,,,,,,
,,,,,,4.005555471,3.5595,space,0.8977,0,3,3,3,1,4,image/4.jpg,0,0,,R_2KyfqZxEJXtBkzL,2,2024-05-12_11h19.06.396,face trait task,2021.2.3,Win32,59.88023952,120416,,,,,,,
,,,,,,4.072222392,2.5726,space,0.933,0,4,4,44,1,45,image/45.jpg,0,0,,R_2KyfqZxEJXtBkzL,2,2024-05-12_11h19.06.396,face trait task,2021.2.3,Win32,59.88023952,120416,,,,,,,
,,,,,,5,3.7672,space,2.0882,0,5,5,4,1,5,image/5.jpg,0,0,,R_2KyfqZxEJXtBkzL,2,2024-05-12_11h19.06.396,face trait task,2021.2.3,Win32,59.88023952,120416,,,,,,,
,,,,,,4.911111196,6.9986,space,0.9376,0,6,6,10,1,11,image/11.jpg,0,0,,R_2KyfqZxEJXtBkzL,2,2024-05-12_11h19.06.396,face trait task,2021.2.3,Win32,59.88023952,120416,,,,,,,
,,,,,,5.055555556,3.3439,space,1.1802,0,7,7,35,1,36,image/36.jpg,0,0,,R_2KyfqZxEJXtBkzL,2,2024-05-12_11h19.06.396,face trait task,2021.2.3,Win32,59.88023952,120416,,,,,,,
,,,,,,4.055555556,5.0184,space,0.7716,0,8,8,34,1,35,image/35.jpg,0,0,,R_2KyfqZxEJXtBkzL,2,2024-05-12_11h19.06.396,face trait task,2021.2.3,Win32,59.88023952,120416,,,,,,,
,,,,,,5.994444953,3.432,space,0.856,0,9,9,17,1,18,image/18.jpg,0,0,,R_2KyfqZxEJXtBkzL,2,2024-05-12_11h19.06.396,face trait task,2021.2.3,Win32,59.88023952,120416,,,,,,,
,,,,,,6.994444953,5.5345,space,0.8302,0,10,10,45,1,46,image/46.jpg,0,0,,R_2KyfqZxEJXtBkzL,2,2024-05-12_11h19.06.396,face trait task,2021.2.3,Win32,59.88023952,120416,,,,,,,
,,,,,,3.972222222,2.0238,space,0.807,0,11,11,2,1,3,image/3.jpg,0,0,,R_2KyfqZxEJXtBkzL,2,2024-05-12_11h19.06.396,face trait task,2021.2.3,Win32,59.88023952,120416,,,,,,,
,,,,,,5.077777863,1.6459,space,0.8747,0,12,12,7,1,8,image/8.jpg,0,0,,R_2KyfqZxEJXtBkzL,2,2024-05-12_11h19.06.396,face trait task,2021.2.3,Win32,59.88023952,120416,,,,,,,
,,,,,,5.050000085,1.0398,space,0.4014,0,13,13,33,1,34,image/34.jpg,0,0,,R_2KyfqZxEJXtBkzL,2,2024-05-12_11h19.06.396,face trait task,2021.2.3,Win32,59.88023952,120416,,,,,,,
,,,,,,3.038889143,1.897,space,0.4721,0,14,14,43,1,44,image/44.jpg,0,0,,R_2KyfqZxEJXtBkzL,2,2024-05-12_11h19.06.396,face trait task,2021.2.3,Win32,59.88023952,120416,,,,,,,
,,,,,,4.994444529,2.1715,space,1.2645,0,15,15,13,1,14,image/14.jpg,0,0,,R_2KyfqZxEJXtBkzL,2,2024-05-12_11h19.06.396,face trait task,2021.2.3,Win32,59.88023952,120416,,,,,,,
,,,,,,6.011110942,1.4675,space,0.4373,0,16,16,27,1,28,image/28.jpg,0,0,,R_2KyfqZxEJXtBkzL,2,2024-05-12_11h19.06.396,face trait task,2021.2.3,Win32,59.88023952,120416,,,,,,,
,,,,,,6.033333672,3.3315,space,1.1831,0,17,17,24,1,25,image/25.jpg,0,0,,R_2KyfqZxEJXtBkzL,2,2024-05-12_11h19.06.396,face trait task,2021.2.3,Win32,59.88023952,120416,,,,,,,
,,,,,,4.033333249,2.112,space,1.1257,0,18,18,46,1,47,image/47.jpg,0,0,,R_2KyfqZxEJXtBkzL,2,2024-05-12_11h19.06.396,face trait task,2021.2.3,Win32,59.88023952,120416,,,,,,,
,,,,,,3.022222307,2.1681,space,0.3935,0,19,19,40,1,41,image/41.jpg,0,0,,R_2KyfqZxEJXtBkzL,2,2024-05-12_11h19.06.396,face trait task,2021.2.3,Win32,59.88023952,120416,,,,,,,
,,,,,,6.077778286,2.4437,space,0.5763,0,20,20,21,1,22,image/22.jpg,0,0,,R_2KyfqZxEJXtBkzL,2,2024-05-12_11h19.06.396,face trait task,2021.2.3,Win32,59.88023952,120416,,,,,,,
,,,,,,5.138888889,1.7223,space,0.4906,0,21,21,32,1,33,image/33.jpg,0,0,,R_2KyfqZxEJXtBkzL,2,2024-05-12_11h19.06.396,face trait task,2021.2.3,Win32,59.88023952,120416,,,,,,,
,,,,,,1,3.6079,space,1.8156,0,22,22,51,1,52,image/fill_img.png,1,1,Please move the slider all the way to the LEFT to show that you are paying attention.,R_2KyfqZxEJXtBkzL,2,2024-05-12_11h19.06.396,face trait task,2021.2.3,Win32,59.88023952,120416,,,,,,,
,,,,,,4.994444529,2.3633,space,0.8284,0,23,23,0,1,1,image/1.jpg,0,0,,R_2KyfqZxEJXtBkzL,2,2024-05-12_11h19.06.396,face trait task,2021.2.3,Win32,59.88023952,120416,,,,,,,
,,,,,,4.983333588,0.9822,space,0.4185,0,24,24,38,1,39,image/39.jpg,0,0,,R_2KyfqZxEJXtBkzL,2,2024-05-12_11h19.06.396,face trait task,2021.2.3,Win32,59.88023952,120416,,,,,,,
,,,,,,5.944444444,1.6264,space,0.3544,0,25,25,47,1,48,image/48.jpg,0,0,,R_2KyfqZxEJXtBkzL,2,2024-05-12_11h19.06.396,face trait task,2021.2.3,Win32,59.88023952,120416,,,,,,,
,,,,,,6.083333333,1.693,space,0.3881,0,26,26,9,1,10,image/10.jpg,0,0,,R_2KyfqZxEJXtBkzL,2,2024-05-12_11h19.06.396,face trait task,2021.2.3,Win32,59.88023952,120416,,,,,,,
,,,,,,4.238889058,2.0964,space,1.7412,0,27,27,1,1,2,image/2.jpg,0,0,,R_2KyfqZxEJXtBkzL,2,2024-05-12_11h19.06.396,face trait task,2021.2.3,Win32,59.88023952,120416,,,,,,,
,,,,,,3.544444614,1.329,space,0.6299,0,28,28,11,1,12,image/12.jpg,0,0,,R_2KyfqZxEJXtBkzL,2,2024-05-12_11h19.06.396,face trait task,2021.2.3,Win32,59.88023952,120416,,,,,,,
,,,,,,1,2.8581,space,1.3283,0,29,29,52,1,53,image/fill_img.png,1,1,Please move the slider all the way to the LEFT to show that you are paying attention.,R_2KyfqZxEJXtBkzL,2,2024-05-12_11h19.06.396,face trait task,2021.2.3,Win32,59.88023952,120416,,,,,,,
,,,,,,4.961111281,1.8902,space,0.4308,0,30,30,41,1,42,image/42.jpg,0,0,,R_2KyfqZxEJXtBkzL,2,2024-05-12_11h19.06.396,face trait task,2021.2.3,Win32,59.88023952,120416,,,,,,,
,,,,,,5.238889058,3.8399,space,3.1904,0,31,31,28,1,29,image/29.jpg,0,0,,R_2KyfqZxEJXtBkzL,2,2024-05-12_11h19.06.396,face trait task,2021.2.3,Win32,59.88023952,120416,,,,,,,
,,,,,,5.905555725,1.1979,space,0.4234,0,32,32,42,1,43,image/43.jpg,0,0,,R_2KyfqZxEJXtBkzL,2,2024-05-12_11h19.06.396,face trait task,2021.2.3,Win32,59.88023952,120416,,,,,,,
,,,,,,5.877777947,0.89,space,0.3374,0,33,33,29,1,30,image/30.jpg,0,0,,R_2KyfqZxEJXtBkzL,2,2024-05-12_11h19.06.396,face trait task,2021.2.3,Win32,59.88023952,120416,,,,,,,
,,,,,,5,2.2032,space,0.4616,0,34,34,37,1,38,image/38.jpg,0,0,,R_2KyfqZxEJXtBkzL,2,2024-05-12_11h19.06.396,face trait task,2021.2.3,Win32,59.88023952,120416,,,,,,,
,,,,,,4.716666751,1.4567,space,0.4284,0,35,35,15,1,16,image/16.jpg,0,0,,R_2KyfqZxEJXtBkzL,2,2024-05-12_11h19.06.396,face trait task,2021.2.3,Win32,59.88023952,120416,,,,,,,
,,,,,,4.166666667,2.6477,space,1.8569,0,36,36,8,1,9,image/9.jpg,0,0,,R_2KyfqZxEJXtBkzL,2,2024-05-12_11h19.06.396,face trait task,2021.2.3,Win32,59.88023952,120416,,,,,,,
,,,,,,4.077777863,2.3015,space,1.4205,0,37,37,36,1,37,image/37.jpg,0,0,,R_2KyfqZxEJXtBkzL,2,2024-05-12_11h19.06.396,face trait task,2021.2.3,Win32,59.88023952,120416,,,,,,,
,,,,,,5.327777863,1.4617,space,0.4814,0,38,38,39,1,40,image/40.jpg,0,0,,R_2KyfqZxEJXtBkzL,2,2024-05-12_11h19.06.396,face trait task,2021.2.3,Win32,59.88023952,120416,,,,,,,
,,,,,,5.322222392,1.0381,space,0.4461,0,39,39,23,1,24,image/24.jpg,0,0,,R_2KyfqZxEJXtBkzL,2,2024-05-12_11h19.06.396,face trait task,2021.2.3,Win32,59.88023952,120416,,,,,,,
,,,,,,5.727777693,1.9107,space,1.4315,0,40,40,6,1,7,image/7.jpg,0,0,,R_2KyfqZxEJXtBkzL,2,2024-05-12_11h19.06.396,face trait task,2021.2.3,Win32,59.88023952,120416,,,,,,,
,,,,,,4.222222222,1.6364,space,0.6849,0,41,41,26,1,27,image/27.jpg,0,0,,R_2KyfqZxEJXtBkzL,2,2024-05-12_11h19.06.396,face trait task,2021.2.3,Win32,59.88023952,120416,,,,,,,
,,,,,,4.550000085,1.4927,space,0.444,0,42,42,12,1,13,image/13.jpg,0,0,,R_2KyfqZxEJXtBkzL,2,2024-05-12_11h19.06.396,face trait task,2021.2.3,Win32,59.88023952,120416,,,,,,,
,,,,,,3.988889058,1.5067,space,0.4666,0,43,43,19,1,20,image/20.jpg,0,0,,R_2KyfqZxEJXtBkzL,2,2024-05-12_11h19.06.396,face trait task,2021.2.3,Win32,59.88023952,120416,,,,,,,
,,,,,,4.733333588,3.059,space,0.9331,0,44,44,5,1,6,image/6.jpg,0,0,,R_2KyfqZxEJXtBkzL,2,2024-05-12_11h19.06.396,face trait task,2021.2.3,Win32,59.88023952,120416,,,,,,,
,,,,,,3.938888974,5.6802,space,0.5427,0,45,45,20,1,21,image/21.jpg,0,0,,R_2KyfqZxEJXtBkzL,2,2024-05-12_11h19.06.396,face trait task,2021.2.3,Win32,59.88023952,120416,,,,,,,
,,,,,,4.027777778,1.4961,space,0.4489,0,46,46,31,1,32,image/32.jpg,0,0,,R_2KyfqZxEJXtBkzL,2,2024-05-12_11h19.06.396,face trait task,2021.2.3,Win32,59.88023952,120416,,,,,,,
,,,,,,5.122222477,1.1565,space,0.6958,0,47,47,30,1,31,image/31.jpg,0,0,,R_2KyfqZxEJXtBkzL,2,2024-05-12_11h19.06.396,face trait task,2021.2.3,Win32,59.88023952,120416,,,,,,,
,,,,,,5.555555556,2.6935,space,0.4483,0,48,48,49,1,50,image/50.jpg,0,0,,R_2KyfqZxEJXtBkzL,2,2024-05-12_11h19.06.396,face trait task,2021.2.3,Win32,59.88023952,120416,,,,,,,
,,,,,,4.905555725,2.0212,space,1.1826,0,49,49,18,1,19,image/19.jpg,0,0,,R_2KyfqZxEJXtBkzL,2,2024-05-12_11h19.06.396,face trait task,2021.2.3,Win32,59.88023952,120416,,,,,,,
,,,,,,4.10555564,2.0286,space,0.4795,0,50,50,22,1,23,image/23.jpg,0,0,,R_2KyfqZxEJXtBkzL,2,2024-05-12_11h19.06.396,face trait task,2021.2.3,Win32,59.88023952,120416,,,,,,,
,,,,,,3.438888974,2.0385,space,1.4175,0,51,51,48,1,49,image/49.jpg,0,0,,R_2KyfqZxEJXtBkzL,2,2024-05-12_11h19.06.396,face trait task,2021.2.3,Win32,59.88023952,120416,,,,,,,
,,,,,,3.022222307,1.7189,space,0.545,0,52,52,25,1,26,image/26.jpg,0,0,,R_2KyfqZxEJXtBkzL,2,2024-05-12_11h19.06.396,face trait task,2021.2.3,Win32,59.88023952,120416,,,,,,,
,,,,,,,,,,,,,,,,,,,,R_2KyfqZxEJXtBkzL,2,2024-05-12_11h19.06.396,face trait task,2021.2.3,Win32,59.88023952,120416,0,0,0,0,1,0,critical.png
,,,,,friendly,1.988888847,4.32,space,2.5165,0,0,0,24,1,25,image/25.jpg,0,0,,R_2KyfqZxEJXtBkzL,2,2024-05-12_11h19.06.396,face trait task,2021.2.3,Win32,59.88023952,120416,,,,,,,
,,,,,,1.555555556,2.0397,space,0.1575,0,1,1,29,1,30,image/30.jpg,0,0,,R_2KyfqZxEJXtBkzL,2,2024-05-12_11h19.06.396,face trait task,2021.2.3,Win32,59.88023952,120416,,,,,,,
,,,,,,3.027777778,3.4471,space,0.6092,0,2,2,19,1,20,image/20.jpg,0,0,,R_2KyfqZxEJXtBkzL,2,2024-05-12_11h19.06.396,face trait task,2021.2.3,Win32,59.88023952,120416,,,,,,,
,,,,,,3.322222392,2.613,space,0.3208,0,3,3,22,1,23,image/23.jpg,0,0,,R_2KyfqZxEJXtBkzL,2,2024-05-12_11h19.06.396,face trait task,2021.2.3,Win32,59.88023952,120416,,,,,,,
,,,,,,4.994444529,3.9323,space,0.1566,0,4,4,20,1,21,image/21.jpg,0,0,,R_2KyfqZxEJXtBkzL,2,2024-05-12_11h19.06.396,face trait task,2021.2.3,Win32,59.88023952,120416,,,,,,,
,,,,,,1,3.07,space,2.0185,0,5,5,16,1,17,image/17.jpg,0,0,,R_2KyfqZxEJXtBkzL,2,2024-05-12_11h19.06.396,face trait task,2021.2.3,Win32,59.88023952,120416,,,,,,,
,,,,,,5.516666836,3.3753,space,0.795,0,6,6,48,1,49,image/49.jpg,0,0,,R_2KyfqZxEJXtBkzL,2,2024-05-12_11h19.06.396,face trait task,2021.2.3,Win32,59.88023952,120416,,,,,,,
,,,,,,4.494444529,3.0343,space,1.0384,0,7,7,32,1,33,image/33.jpg,0,0,,R_2KyfqZxEJXtBkzL,2,2024-05-12_11h19.06.396,face trait task,2021.2.3,Win32,59.88023952,120416,,,,,,,
,,,,,,3.994444529,2.3499,space,1.6317,0,8,8,42,1,43,image/43.jpg,0,0,,R_2KyfqZxEJXtBkzL,2,2024-05-12_11h19.06.396,face trait task,2021.2.3,Win32,59.88023952,120416,,,,,,,
,,,,,,5.177778032,1.6067,space,1.5252,0,9,9,3,1,4,image/4.jpg,0,0,,R_2KyfqZxEJXtBkzL,2,2024-05-12_11h19.06.396,face trait task,2021.2.3,Win32,59.88023952,120416,,,,,,,
,,,,,,2.477777693,2.9989,space,0.9761,0,10,10,40,1,41,image/41.jpg,0,0,,R_2KyfqZxEJXtBkzL,2,2024-05-12_11h19.06.396,face trait task,2021.2.3,Win32,59.88023952,120416,,,,,,,
,,,,,,4.511111365,2.7871,space,0.893,0,11,11,1,1,2,image/2.jpg,0,0,,R_2KyfqZxEJXtBkzL,2,2024-05-12_11h19.06.396,face trait task,2021.2.3,Win32,59.88023952,120416,,,,,,,
,,,,,,3.994444529,2.2779,space,0.1782,0,12,12,17,1,18,image/18.jpg,0,0,,R_2KyfqZxEJXtBkzL,2,2024-05-12_11h19.06.396,face trait task,2021.2.3,Win32,59.88023952,120416,,,,,,,
,,,,,,3.994444529,1.9079,space,1.2041,0,13,13,47,1,48,image/48.jpg,0,0,,R_2KyfqZxEJXtBkzL,2,2024-05-12_11h19.06.396,face trait task,2021.2.3,Win32,59.88023952,120416,,,,,,,
,,,,,,5,2.9305,space,0.3606,0,14,14,2,1,3,image/3.jpg,0,0,,R_2KyfqZxEJXtBkzL,2,2024-05-12_11h19.06.396,face trait task,2021.2.3,Win32,59.88023952,120416,,,,,,,
,,,,,,2.444444444,4.2917,space,2.5576,0,15,15,13,1,14,image/14.jpg,0,0,,R_2KyfqZxEJXtBkzL,2,2024-05-12_11h19.06.396,face trait task,2021.2.3,Win32,59.88023952,120416,,,,,,,
,,,,,,3.988889058,1.5507,space,1.2863,0,16,16,9,1,10,image/10.jpg,0,0,,R_2KyfqZxEJXtBkzL,2,2024-05-12_11h19.06.396,face trait task,2021.2.3,Win32,59.88023952,120416,,,,,,,
,,,,,,1,2.4925,space,1.1768,0,17,17,51,1,52,image/fill_img.png,1,1,Please move the slider all the way to the LEFT to show that you are paying attention.,R_2KyfqZxEJXtBkzL,2,2024-05-12_11h19.06.396,face trait task,2021.2.3,Win32,59.88023952,120416,,,,,,,
,,,,,,5.950000339,1.8334,space,0.7594,0,18,18,34,1,35,image/35.jpg,0,0,,R_2KyfqZxEJXtBkzL,2,2024-05-12_11h19.06.396,face trait task,2021.2.3,Win32,59.88023952,120416,,,,,,,
,,,,,,4.316666921,2.7782,space,1.8247,0,19,19,5,1,6,image/6.jpg,0,0,,R_2KyfqZxEJXtBkzL,2,2024-05-12_11h19.06.396,face trait task,2021.2.3,Win32,59.88023952,120416,,,,,,,
,,,,,,4.005555471,1.6038,space,0.7585,0,20,20,7,1,8,image/8.jpg,0,0,,R_2KyfqZxEJXtBkzL,2,2024-05-12_11h19.06.396,face trait task,2021.2.3,Win32,59.88023952,120416,,,,,,,
,,,,,,2.327777863,2.4535,space,0.9933,0,21,21,14,1,15,image/15.jpg,0,0,,R_2KyfqZxEJXtBkzL,2,2024-05-12_11h19.06.396,face trait task,2021.2.3,Win32,59.88023952,120416,,,,,,,
,,,,,,2.972222222,1.8853,space,0.591,0,22,22,43,1,44,image/44.jpg,0,0,,R_2KyfqZxEJXtBkzL,2,2024-05-12_11h19.06.396,face trait task,2021.2.3,Win32,59.88023952,120416,,,,,,,
,,,,,,2.983333588,1.5126,space,1.0136,0,23,23,37,1,38,image/38.jpg,0,0,,R_2KyfqZxEJXtBkzL,2,2024-05-12_11h19.06.396,face trait task,2021.2.3,Win32,59.88023952,120416,,,,,,,
,,,,,,1,2.0346,space,1.2396,0,24,24,50,1,51,image/fill_img.png,1,1,Please move the slider all the way to the LEFT to show that you are paying attention.,R_2KyfqZxEJXtBkzL,2,2024-05-12_11h19.06.396,face trait task,2021.2.3,Win32,59.88023952,120416,,,,,,,
,,,,,,3.988889058,2.7189,space,0.4084,0,25,25,23,1,24,image/24.jpg,0,0,,R_2KyfqZxEJXtBkzL,2,2024-05-12_11h19.06.396,face trait task,2021.2.3,Win32,59.88023952,120416,,,,,,,
,,,,,,3.016666836,1.3047,space,0.9314,0,26,26,8,1,9,image/9.jpg,0,0,,R_2KyfqZxEJXtBkzL,2,2024-05-12_11h19.06.396,face trait task,2021.2.3,Win32,59.88023952,120416,,,,,,,
,,,,,,5.616666582,1.4512,space,1.3485,0,27,27,4,1,5,image/5.jpg,0,0,,R_2KyfqZxEJXtBkzL,2,2024-05-12_11h19.06.396,face trait task,2021.2.3,Win32,59.88023952,120416,,,,,,,
,,,,,,5.227777693,1.8277,space,0.9203,0,28,28,31,1,32,image/32.jpg,0,0,,R_2KyfqZxEJXtBkzL,2,2024-05-12_11h19.06.396,face trait task,2021.2.3,Win32,59.88023952,120416,,,,,,,
,,,,,,3.983333588,2.5717,space,0.8003,0,29,29,26,1,27,image/27.jpg,0,0,,R_2KyfqZxEJXtBkzL,2,2024-05-12_11h19.06.396,face trait task,2021.2.3,Win32,59.88023952,120416,,,,,,,
,,,,,,2.150000042,2.6719,space,0.9477,0,30,30,18,1,19,image/19.jpg,0,0,,R_2KyfqZxEJXtBkzL,2,2024-05-12_11h19.06.396,face trait task,2021.2.3,Win32,59.88023952,120416,,,,,,,
,,,,,,3.838888804,2.1611,space,0.3154,0,31,31,28,1,29,image/29.jpg,0,0,,R_2KyfqZxEJXtBkzL,2,2024-05-12_11h19.06.396,face trait task,2021.2.3,Win32,59.88023952,120416,,,,,,,
,,,,,,3.988889058,1.8747,space,0.989,0,32,32,6,1,7,image/7.jpg,0,0,,R_2KyfqZxEJXtBkzL,2,2024-05-12_11h19.06.396,face trait task,2021.2.3,Win32,59.88023952,120416,,,,,,,
,,,,,,3.977777693,1.3988,space,1.9895,0,33,33,0,1,1,image/1.jpg,0,0,,R_2KyfqZxEJXtBkzL,2,2024-05-12_11h19.06.396,face trait task,2021.2.3,Win32,59.88023952,120416,,,,,,,
,,,,,,2.994444529,1.5029,space,1.2024,0,34,34,38,1,39,image/39.jpg,0,0,,R_2KyfqZxEJXtBkzL,2,2024-05-12_11h19.06.396,face trait task,2021.2.3,Win32,59.88023952,120416,,,,,,,
,,,,,,4,3.8991,space,0.9001,0,35,35,39,1,40,image/40.jpg,0,0,,R_2KyfqZxEJXtBkzL,2,2024-05-12_11h19.06.396,face trait task,2021.2.3,Win32,59.88023952,120416,,,,,,,
,,,,,,4.266666836,2.3605,space,0.5748,0,36,36,25,1,26,image/26.jpg,0,0,,R_2KyfqZxEJXtBkzL,2,2024-05-12_11h19.06.396,face trait task,2021.2.3,Win32,59.88023952,120416,,,,,,,
,,,,,,4.277777778,2.1546,space,0.8551,0,37,37,44,1,45,image/45.jpg,0,0,,R_2KyfqZxEJXtBkzL,2,2024-05-12_11h19.06.396,face trait task,2021.2.3,Win32,59.88023952,120416,,,,,,,
,,,,,,3.244444529,1.585,space,0.866,0,38,38,30,1,31,image/31.jpg,0,0,,R_2KyfqZxEJXtBkzL,2,2024-05-12_11h19.06.396,face trait task,2021.2.3,Win32,59.88023952,120416,,,,,,,
,,,,,,5.016666836,2.5388,space,0.8604,0,39,39,46,1,47,image/47.jpg,0,0,,R_2KyfqZxEJXtBkzL,2,2024-05-12_11h19.06.396,face trait task,2021.2.3,Win32,59.88023952,120416,,,,,,,
,,,,,,6.027777778,1.5259,space,0.9854,0,40,40,11,1,12,image/12.jpg,0,0,,R_2KyfqZxEJXtBkzL,2,2024-05-12_11h19.06.396,face trait task,2021.2.3,Win32,59.88023952,120416,,,,,,,
,,,,,,5.466666751,1.9375,space,0.3826,0,41,41,12,1,13,image/13.jpg,0,0,,R_2KyfqZxEJXtBkzL,2,2024-05-12_11h19.06.396,face trait task,2021.2.3,Win32,59.88023952,120416,,,,,,,
,,,,,,4.427778032,1.6145,space,0.141,0,42,42,33,1,34,image/34.jpg,0,0,,R_2KyfqZxEJXtBkzL,2,2024-05-12_11h19.06.396,face trait task,2021.2.3,Win32,59.88023952,120416,,,,,,,
,,,,,,3.972222222,1.5216,space,1.1034,0,43,43,35,1,36,image/36.jpg,0,0,,R_2KyfqZxEJXtBkzL,2,2024-05-12_11h19.06.396,face trait task,2021.2.3,Win32,59.88023952,120416,,,,,,,
,,,,,,3.327777863,1.3412,space,0.9738,0,44,44,21,1,22,image/22.jpg,0,0,,R_2KyfqZxEJXtBkzL,2,2024-05-12_11h19.06.396,face trait task,2021.2.3,Win32,59.88023952,120416,,,,,,,
,,,,,,1,1.8356,space,1.427,0,45,45,52,1,53,image/fill_img.png,1,1,Please move the slider all the way to the LEFT to show that you are paying attention.,R_2KyfqZxEJXtBkzL,2,2024-05-12_11h19.06.396,face trait task,2021.2.3,Win32,59.88023952,120416,,,,,,,
,,,,,,5.444444444,2.7192,space,1.7638,0,46,46,10,1,11,image/11.jpg,0,0,,R_2KyfqZxEJXtBkzL,2,2024-05-12_11h19.06.396,face trait task,2021.2.3,Win32,59.88023952,120416,,,,,,,
,,,,,,4.949999915,1.5458,space,0.5409,0,47,47,49,1,50,image/50.jpg,0,0,,R_2KyfqZxEJXtBkzL,2,2024-05-12_11h19.06.396,face trait task,2021.2.3,Win32,59.88023952,120416,,,,,,,
,,,,,,4,1.8249,space,0.639,0,48,48,45,1,46,image/46.jpg,0,0,,R_2KyfqZxEJXtBkzL,2,2024-05-12_11h19.06.396,face trait task,2021.2.3,Win32,59.88023952,120416,,,,,,,
,,,,,,3.005555471,1.854,space,0.3306,0,49,49,15,1,16,image/16.jpg,0,0,,R_2KyfqZxEJXtBkzL,2,2024-05-12_11h19.06.396,face trait task,2021.2.3,Win32,59.88023952,120416,,,,,,,
,,,,,,3.333333333,1.3173,space,1.4995,0,50,50,41,1,42,image/42.jpg,0,0,,R_2KyfqZxEJXtBkzL,2,2024-05-12_11h19.06.396,face trait task,2021.2.3,Win32,59.88023952,120416,,,,,,,
,,,,,,3.555555556,1.4309,space,0.6605,0,51,51,36,1,37,image/37.jpg,0,0,,R_2KyfqZxEJXtBkzL,2,2024-05-12_11h19.06.396,face trait task,2021.2.3,Win32,59.88023952,120416,,,,,,,
,,,,,,4.011111365,2.3633,space,1.1609,0,52,52,27,1,28,image/28.jpg,0,0,,R_2KyfqZxEJXtBkzL,2,2024-05-12_11h19.06.396,face trait task,2021.2.3,Win32,59.88023952,120416,,,,,,,
,,,,,,,,,,,,,,,,,,,,R_2KyfqZxEJXtBkzL,2,2024-05-12_11h19.06.396,face trait task,2021.2.3,Win32,59.88023952,120416,0,1,1,3,1,3,friendly.png
,,,,,trustworthy,4.516666836,4.0341,space,2.4781,0,0,0,32,1,33,image/33.jpg,0,0,,R_2KyfqZxEJXtBkzL,2,2024-05-12_11h19.06.396,face trait task,2021.2.3,Win32,59.88023952,120416,,,,,,,
,,,,,,3.488889058,4.8441,space,2.9771,0,1,1,19,1,20,image/20.jpg,0,0,,R_2KyfqZxEJXtBkzL,2,2024-05-12_11h19.06.396,face trait task,2021.2.3,Win32,59.88023952,120416,,,,,,,
,,,,,,2.966666751,1.7694,space,1.3237,0,2,2,25,1,26,image/26.jpg,0,0,,R_2KyfqZxEJXtBkzL,2,2024-05-12_11h19.06.396,face trait task,2021.2.3,Win32,59.88023952,120416,,,,,,,
,,,,,,1,1.8042,space,0.9725,0,3,3,51,1,52,image/fill_img.png,1,1,Please move the slider all the way to the LEFT to show that you are paying attention.,R_2KyfqZxEJXtBkzL,2,2024-05-12_11h19.06.396,face trait task,2021.2.3,Win32,59.88023952,120416,,,,,,,
,,,,,,4.016666836,1.7025,space,1.138,0,4,4,17,1,18,image/18.jpg,0,0,,R_2KyfqZxEJXtBkzL,2,2024-05-12_11h19.06.396,face trait task,2021.2.3,Win32,59.88023952,120416,,,,,,,
,,,,,,3.427778032,3.9813,space,3.3607,0,5,5,49,1,50,image/50.jpg,0,0,,R_2KyfqZxEJXtBkzL,2,2024-05-12_11h19.06.396,face trait task,2021.2.3,Win32,59.88023952,120416,,,,,,,
,,,,,,2.961111281,1.6014,space,0.7992,0,6,6,28,1,29,image/29.jpg,0,0,,R_2KyfqZxEJXtBkzL,2,2024-05-12_11h19.06.396,face trait task,2021.2.3,Win32,59.88023952,120416,,,,,,,
,,,,,,4.422222137,2.0347,space,1.1081,0,7,7,9,1,10,image/10.jpg,0,0,,R_2KyfqZxEJXtBkzL,2,2024-05-12_11h19.06.396,face trait task,2021.2.3,Win32,59.88023952,120416,,,,,,,
,,,,,,5.027777778,1.3128,space,1.2574,0,8,8,3,1,4,image/4.jpg,0,0,,R_2KyfqZxEJXtBkzL,2,2024-05-12_11h19.06.396,face trait task,2021.2.3,Win32,59.88023952,120416,,,,,,,
,,,,,,2.994444529,3.5492,space,2.1328,0,9,9,14,1,15,image/15.jpg,0,0,,R_2KyfqZxEJXtBkzL,2,2024-05-12_11h19.06.396,face trait task,2021.2.3,Win32,59.88023952,120416,,,,,,,
,,,,,,4.466666751,2.7168,space,0.612,0,10,10,20,1,21,image/21.jpg,0,0,,R_2KyfqZxEJXtBkzL,2,2024-05-12_11h19.06.396,face trait task,2021.2.3,Win32,59.88023952,120416,,,,,,,
,,,,,,5.555555556,1.9762,space,0.9664,0,11,11,4,1,5,image/5.jpg,0,0,,R_2KyfqZxEJXtBkzL,2,2024-05-12_11h19.06.396,face trait task,2021.2.3,Win32,59.88023952,120416,,,,,,,
,,,,,,1,2.032,space,0.8889,0,12,12,50,1,51,image/fill_img.png,1,1,Please move the slider all the way to the LEFT to show that you are paying attention.,R_2KyfqZxEJXtBkzL,2,2024-05-12_11h19.06.396,face trait task,2021.2.3,Win32,59.88023952,120416,,,,,,,
,,,,,,4.483333588,2.5585,space,0.9341,0,13,13,45,1,46,image/46.jpg,0,0,,R_2KyfqZxEJXtBkzL,2,2024-05-12_11h19.06.396,face trait task,2021.2.3,Win32,59.88023952,120416,,,,,,,
,,,,,,4.994444529,2.0676,space,1.1563,0,14,14,27,1,28,image/28.jpg,0,0,,R_2KyfqZxEJXtBkzL,2,2024-05-12_11h19.06.396,face trait task,2021.2.3,Win32,59.88023952,120416,,,,,,,
,,,,,,4.89444436,2.3192,space,0.6527,0,15,15,0,1,1,image/1.jpg,0,0,,R_2KyfqZxEJXtBkzL,2,2024-05-12_11h19.06.396,face trait task,2021.2.3,Win32,59.88023952,120416,,,,,,,
,,,,,,3.25,2.9444,space,0.2605,0,16,16,8,1,9,image/9.jpg,0,0,,R_2KyfqZxEJXtBkzL,2,2024-05-12_11h19.06.396,face trait task,2021.2.3,Win32,59.88023952,120416,,,,,,,
,,,,,,4,2.097,space,0.2967,0,17,17,15,1,16,image/16.jpg,0,0,,R_2KyfqZxEJXtBkzL,2,2024-05-12_11h19.06.396,face trait task,2021.2.3,Win32,59.88023952,120416,,,,,,,
,,,,,,4.444444444,2.7174,space,0.7772,0,18,18,7,1,8,image/8.jpg,0,0,,R_2KyfqZxEJXtBkzL,2,2024-05-12_11h19.06.396,face trait task,2021.2.3,Win32,59.88023952,120416,,,,,,,
,,,,,,5.438888974,2.9942,space,1.4073,0,19,19,1,1,2,image/2.jpg,0,0,,R_2KyfqZxEJXtBkzL,2,2024-05-12_11h19.06.396,face trait task,2021.2.3,Win32,59.88023952,120416,,,,,,,
,,,,,,4.561111026,1.7326,space,0.584,0,20,20,26,1,27,image/27.jpg,0,0,,R_2KyfqZxEJXtBkzL,2,2024-05-12_11h19.06.396,face trait task,2021.2.3,Win32,59.88023952,120416,,,,,,,
,,,,,,3.072222392,2.5575,space,1.4246,0,21,21,38,1,39,image/39.jpg,0,0,,R_2KyfqZxEJXtBkzL,2,2024-05-12_11h19.06.396,face trait task,2021.2.3,Win32,59.88023952,120416,,,,,,,
,,,,,,4.005555471,1.9248,space,0.3469,0,22,22,47,1,48,image/48.jpg,0,0,,R_2KyfqZxEJXtBkzL,2,2024-05-12_11h19.06.396,face trait task,2021.2.3,Win32,59.88023952,120416,,,,,,,
,,,,,,4,3.2217,space,0.3483,0,23,23,5,1,6,image/6.jpg,0,0,,R_2KyfqZxEJXtBkzL,2,2024-05-12_11h19.06.396,face trait task,2021.2.3,Win32,59.88023952,120416,,,,,,,
,,,,,,4.994444529,1.3459,space,0.5748,0,24,24,23,1,24,image/24.jpg,0,0,,R_2KyfqZxEJXtBkzL,2,2024-05-12_11h19.06.396,face trait task,2021.2.3,Win32,59.88023952,120416,,,,,,,
,,,,,,3.016666836,2.665,space,1.6655,0,25,25,16,1,17,image/17.jpg,0,0,,R_2KyfqZxEJXtBkzL,2,2024-05-12_11h19.06.396,face trait task,2021.2.3,Win32,59.88023952,120416,,,,,,,
,,,,,,5.011111365,3.0008,space,0.4927,0,26,26,10,1,11,image/11.jpg,0,0,,R_2KyfqZxEJXtBkzL,2,2024-05-12_11h19.06.396,face trait task,2021.2.3,Win32,59.88023952,120416,,,,,,,
,,,,,,4.016666836,1.5812,space,0.3938,0,27,27,12,1,13,image/13.jpg,0,0,,R_2KyfqZxEJXtBkzL,2,2024-05-12_11h19.06.396,face trait task,2021.2.3,Win32,59.88023952,120416,,,,,,,
,,,,,,4.266666836,2.0742,space,1.3179,0,28,28,44,1,45,image/45.jpg,0,0,,R_2KyfqZxEJXtBkzL,2,2024-05-12_11h19.06.396,face trait task,2021.2.3,Win32,59.88023952,120416,,,,,,,
,,,,,,3.755555471,2.4679,space,0.0546,0,29,29,30,1,31,image/31.jpg,0,0,,R_2KyfqZxEJXtBkzL,2,2024-05-12_11h19.06.396,face trait task,2021.2.3,Win32,59.88023952,120416,,,,,,,
,,,,,,3.977777693,1.5923,space,0.526,0,30,30,42,1,43,image/43.jpg,0,0,,R_2KyfqZxEJXtBkzL,2,2024-05-12_11h19.06.396,face trait task,2021.2.3,Win32,59.88023952,120416,,,,,,,
,,,,,,5.150000254,1.5991,space,0.3314,0,31,31,48,1,49,image/49.jpg,0,0,,R_2KyfqZxEJXtBkzL,2,2024-05-12_11h19.06.396,face trait task,2021.2.3,Win32,59.88023952,120416,,,,,,,
,,,,,,3.583333333,1.6514,space,0.1677,0,32,32,29,1,30,image/30.jpg,0,0,,R_2KyfqZxEJXtBkzL,2,2024-05-12_11h19.06.396,face trait task,2021.2.3,Win32,59.88023952,120416,,,,,,,
,,,,,,3.988889058,1.4655,space,0.858,0,33,33,31,1,32,image/32.jpg,0,0,,R_2KyfqZxEJXtBkzL,2,2024-05-12_11h19.06.396,face trait task,2021.2.3,Win32,59.88023952,120416,,,,,,,
,,,,,,4.983333588,3.3027,space,1.3062,0,34,34,39,1,40,image/40.jpg,0,0,,R_2KyfqZxEJXtBkzL,2,2024-05-12_11h19.06.396,face trait task,2021.2.3,Win32,59.88023952,120416,,,,,,,
,,,,,,5.094444699,1.7197,space,0.8095,0,35,35,6,1,7,image/7.jpg,0,0,,R_2KyfqZxEJXtBkzL,2,2024-05-12_11h19.06.396,face trait task,2021.2.3,Win32,59.88023952,120416,,,,,,,
,,,,,,4.70555581,2.0046,space,1.4728,0,36,36,46,1,47,image/47.jpg,0,0,,R_2KyfqZxEJXtBkzL,2,2024-05-12_11h19.06.396,face trait task,2021.2.3,Win32,59.88023952,120416,,,,,,,
,,,,,,3.027777778,4.4844,space,2.5738,0,37,37,40,1,41,image/41.jpg,0,0,,R_2KyfqZxEJXtBkzL,2,2024-05-12_11h19.06.396,face trait task,2021.2.3,Win32,59.88023952,120416,,,,,,,
,,,,,,4.016666836,2.4219,space,1.1974,0,38,38,36,1,37,image/37.jpg,0,0,,R_2KyfqZxEJXtBkzL,2,2024-05-12_11h19.06.396,face trait task,2021.2.3,Win32,59.88023952,120416,,,,,,,
,,,,,,4,1.5205,space,0.5041,0,39,39,33,1,34,image/34.jpg,0,0,,R_2KyfqZxEJXtBkzL,2,2024-05-12_11h19.06.396,face trait task,2021.2.3,Win32,59.88023952,120416,,,,,,,
,,,,,,3.333333333,1.3955,space,0.2855,0,40,40,21,1,22,image/22.jpg,0,0,,R_2KyfqZxEJXtBkzL,2,2024-05-12_11h19.06.396,face trait task,2021.2.3,Win32,59.88023952,120416,,,,,,,
,,,,,,3.972222222,1.4442,space,0.5431,0,41,41,35,1,36,image/36.jpg,0,0,,R_2KyfqZxEJXtBkzL,2,2024-05-12_11h19.06.396,face trait task,2021.2.3,Win32,59.88023952,120416,,,,,,,
,,,,,,4.272222307,1.7129,space,1.1287,0,42,42,2,1,3,image/3.jpg,0,0,,R_2KyfqZxEJXtBkzL,2,2024-05-12_11h19.06.396,face trait task,2021.2.3,Win32,59.88023952,120416,,,,,,,
,,,,,,4.988889058,1.8375,space,1.1761,0,43,43,11,1,12,image/12.jpg,0,0,,R_2KyfqZxEJXtBkzL,2,2024-05-12_11h19.06.396,face trait task,2021.2.3,Win32,59.88023952,120416,,,,,,,
,,,,,,4.988889058,1.3656,space,1.5729,0,44,44,34,1,35,image/35.jpg,0,0,,R_2KyfqZxEJXtBkzL,2,2024-05-12_11h19.06.396,face trait task,2021.2.3,Win32,59.88023952,120416,,,,,,,
,,,,,,3.14444436,1.3536,space,1.9219,0,45,45,13,1,14,image/14.jpg,0,0,,R_2KyfqZxEJXtBkzL,2,2024-05-12_11h19.06.396,face trait task,2021.2.3,Win32,59.88023952,120416,,,,,,,
,,,,,,1,1.9945,space,0.8473,0,46,46,52,1,53,image/fill_img.png,1,1,Please move the slider all the way to the LEFT to show that you are paying attention.,R_2KyfqZxEJXtBkzL,2,2024-05-12_11h19.06.396,face trait task,2021.2.3,Win32,59.88023952,120416,,,,,,,
,,,,,,3.027777778,2.2823,space,1.1692,0,47,47,18,1,19,image/19.jpg,0,0,,R_2KyfqZxEJXtBkzL,2,2024-05-12_11h19.06.396,face trait task,2021.2.3,Win32,59.88023952,120416,,,,,,,
,,,,,,4.011111365,1.5257,space,0.5456,0,48,48,41,1,42,image/42.jpg,0,0,,R_2KyfqZxEJXtBkzL,2,2024-05-12_11h19.06.396,face trait task,2021.2.3,Win32,59.88023952,120416,,,,,,,
,,,,,,3.116666582,2.8878,space,0.3123,0,49,49,37,1,38,image/38.jpg,0,0,,R_2KyfqZxEJXtBkzL,2,2024-05-12_11h19.06.396,face trait task,2021.2.3,Win32,59.88023952,120416,,,,,,,
,,,,,,4.461111281,3.6353,space,2.2429,0,50,50,22,1,23,image/23.jpg,0,0,,R_2KyfqZxEJXtBkzL,2,2024-05-12_11h19.06.396,face trait task,2021.2.3,Win32,59.88023952,120416,,,,,,,
,,,,,,4,2.2672,space,0.9178,0,51,51,43,1,44,image/44.jpg,0,0,,R_2KyfqZxEJXtBkzL,2,2024-05-12_11h19.06.396,face trait task,2021.2.3,Win32,59.88023952,120416,,,,,,,
,,,,,,3.016666836,1.6238,space,0.5284,0,52,52,24,1,25,image/25.jpg,0,0,,R_2KyfqZxEJXtBkzL,2,2024-05-12_11h19.06.396,face trait task,2021.2.3,Win32,59.88023952,120416,,,,,,,
,,,,,,,,,,,,,,,,,,,,R_2KyfqZxEJXtBkzL,2,2024-05-12_11h19.06.396,face trait task,2021.2.3,Win32,59.88023952,120416,0,2,2,2,1,2,trustworthy.png
,,,,,competent,3.983333588,4.5322,space,0.4415,0,0,0,19,1,20,image/20.jpg,0,0,,R_2KyfqZxEJXtBkzL,2,2024-05-12_11h19.06.396,face trait task,2021.2.3,Win32,59.88023952,120416,,,,,,,
,,,,,,4.505555471,1.5808,space,0.3559,0,1,1,29,1,30,image/30.jpg,0,0,,R_2KyfqZxEJXtBkzL,2,2024-05-12_11h19.06.396,face trait task,2021.2.3,Win32,59.88023952,120416,,,,,,,
,,,,,,5.022222307,1.3,space,0.1445,0,2,2,49,1,50,image/50.jpg,0,0,,R_2KyfqZxEJXtBkzL,2,2024-05-12_11h19.06.396,face trait task,2021.2.3,Win32,59.88023952,120416,,,,,,,
,,,,,,1,1.6738,space,1.3198,0,3,3,52,1,53,image/fill_img.png,1,1,Please move the slider all the way to the LEFT to show that you are paying attention.,R_2KyfqZxEJXtBkzL,2,2024-05-12_11h19.06.396,face trait task,2021.2.3,Win32,59.88023952,120416,,,,,,,
,,,,,,5,1.9244,space,0.9298,0,4,4,33,1,34,image/34.jpg,0,0,,R_2KyfqZxEJXtBkzL,2,2024-05-12_11h19.06.396,face trait task,2021.2.3,Win32,59.88023952,120416,,,,,,,
,,,,,,5,1.5571,space,1.2552,0,5,5,17,1,18,image/18.jpg,0,0,,R_2KyfqZxEJXtBkzL,2,2024-05-12_11h19.06.396,face trait task,2021.2.3,Win32,59.88023952,120416,,,,,,,
,,,,,,1,1.6326,space,0.8042,0,6,6,50,1,51,image/fill_img.png,1,1,Please move the slider all the way to the LEFT to show that you are paying attention.,R_2KyfqZxEJXtBkzL,2,2024-05-12_11h19.06.396,face trait task,2021.2.3,Win32,59.88023952,120416,,,,,,,
,,,,,,6.005555895,2.2277,space,1.6353,0,7,7,23,1,24,image/24.jpg,0,0,,R_2KyfqZxEJXtBkzL,2,2024-05-12_11h19.06.396,face trait task,2021.2.3,Win32,59.88023952,120416,,,,,,,
,,,,,,5.005555471,1.9001,space,0.4954,0,8,8,21,1,22,image/22.jpg,0,0,,R_2KyfqZxEJXtBkzL,2,2024-05-12_11h19.06.396,face trait task,2021.2.3,Win32,59.88023952,120416,,,,,,,
,,,,,,5.022222307,3.1398,space,0.8182,0,9,9,34,1,35,image/35.jpg,0,0,,R_2KyfqZxEJXtBkzL,2,2024-05-12_11h19.06.396,face trait task,2021.2.3,Win32,59.88023952,120416,,,,,,,
,,,,,,3.433333503,4.2818,space,1.6717,0,10,10,32,1,33,image/33.jpg,0,0,,R_2KyfqZxEJXtBkzL,2,2024-05-12_11h19.06.396,face trait task,2021.2.3,Win32,59.88023952,120416,,,,,,,
,,,,,,4.011111365,1.8365,space,0.3769,0,11,11,31,1,32,image/32.jpg,0,0,,R_2KyfqZxEJXtBkzL,2,2024-05-12_11h19.06.396,face trait task,2021.2.3,Win32,59.88023952,120416,,,,,,,
,,,,,,3.550000085,2.0163,space,0.4322,0,12,12,9,1,10,image/10.jpg,0,0,,R_2KyfqZxEJXtBkzL,2,2024-05-12_11h19.06.396,face trait task,2021.2.3,Win32,59.88023952,120416,,,,,,,
,,,,,,2.766666836,2.7829,space,1.0637,0,13,13,14,1,15,image/15.jpg,0,0,,R_2KyfqZxEJXtBkzL,2,2024-05-12_11h19.06.396,face trait task,2021.2.3,Win32,59.88023952,120416,,,,,,,
,,,,,,4.411111196,2.7235,space,1.1485,0,14,14,47,1,48,image/48.jpg,0,0,,R_2KyfqZxEJXtBkzL,2,2024-05-12_11h19.06.396,face trait task,2021.2.3,Win32,59.88023952,120416,,,,,,,
,,,,,,1,1.8439,space,0.8983,0,15,15,51,1,52,image/fill_img.png,1,1,Please move the slider all the way to the LEFT to show that you are paying attention.,R_2KyfqZxEJXtBkzL,2,2024-05-12_11h19.06.396,face trait task,2021.2.3,Win32,59.88023952,120416,,,,,,,
,,,,,,5.033333249,1.5349,space,0.4328,0,16,16,3,1,4,image/4.jpg,0,0,,R_2KyfqZxEJXtBkzL,2,2024-05-12_11h19.06.396,face trait task,2021.2.3,Win32,59.88023952,120416,,,,,,,
,,,,,,5.60555564,1.7359,space,0.9082,0,17,17,20,1,21,image/21.jpg,0,0,,R_2KyfqZxEJXtBkzL,2,2024-05-12_11h19.06.396,face trait task,2021.2.3,Win32,59.88023952,120416,,,,,,,
,,,,,,4.294444614,1.4302,space,0.3588,0,18,18,48,1,49,image/49.jpg,0,0,,R_2KyfqZxEJXtBkzL,2,2024-05-12_11h19.06.396,face trait task,2021.2.3,Win32,59.88023952,120416,,,,,,,
,,,,,,5.044444614,1.9796,space,0.5054,0,19,19,22,1,23,image/23.jpg,0,0,,R_2KyfqZxEJXtBkzL,2,2024-05-12_11h19.06.396,face trait task,2021.2.3,Win32,59.88023952,120416,,,,,,,
,,,,,,4.5,1.8993,space,0.4105,0,20,20,5,1,6,image/6.jpg,0,0,,R_2KyfqZxEJXtBkzL,2,2024-05-12_11h19.06.396,face trait task,2021.2.3,Win32,59.88023952,120416,,,,,,,
,,,,,,4.488889058,2.2044,space,0.2255,0,21,21,8,1,9,image/9.jpg,0,0,,R_2KyfqZxEJXtBkzL,2,2024-05-12_11h19.06.396,face trait task,2021.2.3,Win32,59.88023952,120416,,,,,,,
,,,,,,5.400000254,2.8515,space,1.2026,0,22,22,4,1,5,image/5.jpg,0,0,,R_2KyfqZxEJXtBkzL,2,2024-05-12_11h19.06.396,face trait task,2021.2.3,Win32,59.88023952,120416,,,,,,,
,,,,,,6.022222731,2.6312,space,1.1545,0,23,23,1,1,2,image/2.jpg,0,0,,R_2KyfqZxEJXtBkzL,2,2024-05-12_11h19.06.396,face trait task,2021.2.3,Win32,59.88023952,120416,,,,,,,
,,,,,,4.427778032,1.8885,space,1.1118,0,24,24,2,1,3,image/3.jpg,0,0,,R_2KyfqZxEJXtBkzL,2,2024-05-12_11h19.06.396,face trait task,2021.2.3,Win32,59.88023952,120416,,,,,,,
,,,,,,4,2.4838,space,0.3683,0,25,25,26,1,27,image/27.jpg,0,0,,R_2KyfqZxEJXtBkzL,2,2024-05-12_11h19.06.396,face trait task,2021.2.3,Win32,59.88023952,120416,,,,,,,
,,,,,,5.494444529,2.9713,space,0.3242,0,26,26,27,1,28,image/28.jpg,0,0,,R_2KyfqZxEJXtBkzL,2,2024-05-12_11h19.06.396,face trait task,2021.2.3,Win32,59.88023952,120416,,,,,,,
,,,,,,5.011111365,1.8208,space,0.2996,0,27,27,40,1,41,image/41.jpg,0,0,,R_2KyfqZxEJXtBkzL,2,2024-05-12_11h19.06.396,face trait task,2021.2.3,Win32,59.88023952,120416,,,,,,,
,,,,,,4.988889058,2.0746,space,0.3013,0,28,28,37,1,38,image/38.jpg,0,0,,R_2KyfqZxEJXtBkzL,2,2024-05-12_11h19.06.396,face trait task,2021.2.3,Win32,59.88023952,120416,,,,,,,
,,,,,,4.527777778,1.6187,space,1.3135,0,29,29,10,1,11,image/11.jpg,0,0,,R_2KyfqZxEJXtBkzL,2,2024-05-12_11h19.06.396,face trait task,2021.2.3,Win32,59.88023952,120416,,,,,,,
,,,,,,4.005555471,2.2143,space,0.6829,0,30,30,12,1,13,image/13.jpg,0,0,,R_2KyfqZxEJXtBkzL,2,2024-05-12_11h19.06.396,face trait task,2021.2.3,Win32,59.88023952,120416,,,,,,,
,,,,,,4.45555581,1.9744,space,0.2055,0,31,31,46,1,47,image/47.jpg,0,0,,R_2KyfqZxEJXtBkzL,2,2024-05-12_11h19.06.396,face trait task,2021.2.3,Win32,59.88023952,120416,,,,,,,
,,,,,,4.994444529,2.1224,space,0.3995,0,32,32,28,1,29,image/29.jpg,0,0,,R_2KyfqZxEJXtBkzL,2,2024-05-12_11h19.06.396,face trait task,2021.2.3,Win32,59.88023952,120416,,,,,,,
,,,,,,6.027777778,2.2131,space,0.7043,0,33,33,43,1,44,image/44.jpg,0,0,,R_2KyfqZxEJXtBkzL,2,2024-05-12_11h19.06.396,face trait task,2021.2.3,Win32,59.88023952,120416,,,,,,,
,,,,,,5.383333418,2.0538,space,1.0302,0,34,34,24,1,25,image/25.jpg,0,0,,R_2KyfqZxEJXtBkzL,2,2024-05-12_11h19.06.396,face trait task,2021.2.3,Win32,59.88023952,120416,,,,,,,
,,,,,,4,2.4081,space,0.6398,0,35,35,13,1,14,image/14.jpg,0,0,,R_2KyfqZxEJXtBkzL,2,2024-05-12_11h19.06.396,face trait task,2021.2.3,Win32,59.88023952,120416,,,,,,,
,,,,,,6.016666836,1.7073,space,0.5198,0,36,36,39,1,40,image/40.jpg,0,0,,R_2KyfqZxEJXtBkzL,2,2024-05-12_11h19.06.396,face trait task,2021.2.3,Win32,59.88023952,120416,,,,,,,
,,,,,,3.994444529,2.5212,space,0.7215,0,37,37,16,1,17,image/17.jpg,0,0,,R_2KyfqZxEJXtBkzL,2,2024-05-12_11h19.06.396,face trait task,2021.2.3,Win32,59.88023952,120416,,,,,,,
,,,,,,5.022222307,4.0716,space,2.698,0,38,38,25,1,26,image/26.jpg,0,0,,R_2KyfqZxEJXtBkzL,2,2024-05-12_11h19.06.396,face trait task,2021.2.3,Win32,59.88023952,120416,,,,,,,
,,,,,,4.477777693,2.0105,space,0.794,0,39,39,15,1,16,image/16.jpg,0,0,,R_2KyfqZxEJXtBkzL,2,2024-05-12_11h19.06.396,face trait task,2021.2.3,Win32,59.88023952,120416,,,,,,,
,,,,,,3.938888974,3.4445,space,1.9785,0,40,40,36,1,37,image/37.jpg,0,0,,R_2KyfqZxEJXtBkzL,2,2024-05-12_11h19.06.396,face trait task,2021.2.3,Win32,59.88023952,120416,,,,,,,
,,,,,,3.994444529,2.0746,space,0.5308,0,41,41,42,1,43,image/43.jpg,0,0,,R_2KyfqZxEJXtBkzL,2,2024-05-12_11h19.06.396,face trait task,2021.2.3,Win32,59.88023952,120416,,,,,,,
,,,,,,5.027777778,3.3497,space,0.553,0,42,42,41,1,42,image/42.jpg,0,0,,R_2KyfqZxEJXtBkzL,2,2024-05-12_11h19.06.396,face trait task,2021.2.3,Win32,59.88023952,120416,,,,,,,
,,,,,,3.938888974,1.7286,space,0.3863,0,43,43,30,1,31,image/31.jpg,0,0,,R_2KyfqZxEJXtBkzL,2,2024-05-12_11h19.06.396,face trait task,2021.2.3,Win32,59.88023952,120416,,,,,,,
,,,,,,5.011111365,1.4208,space,0.7836,0,44,44,0,1,1,image/1.jpg,0,0,,R_2KyfqZxEJXtBkzL,2,2024-05-12_11h19.06.396,face trait task,2021.2.3,Win32,59.88023952,120416,,,,,,,
,,,,,,5.988889058,1.4285,space,0.5677,0,45,45,6,1,7,image/7.jpg,0,0,,R_2KyfqZxEJXtBkzL,2,2024-05-12_11h19.06.396,face trait task,2021.2.3,Win32,59.88023952,120416,,,,,,,
,,,,,,5.511111365,1.5953,space,0.4677,0,46,46,44,1,45,image/45.jpg,0,0,,R_2KyfqZxEJXtBkzL,2,2024-05-12_11h19.06.396,face trait task,2021.2.3,Win32,59.88023952,120416,,,,,,,
,,,,,,5.077777863,3.1637,space,2.9227,0,47,47,11,1,12,image/12.jpg,0,0,,R_2KyfqZxEJXtBkzL,2,2024-05-12_11h19.06.396,face trait task,2021.2.3,Win32,59.88023952,120416,,,,,,,
,,,,,,6.033333672,2.6646,space,1.4033,0,48,48,45,1,46,image/46.jpg,0,0,,R_2KyfqZxEJXtBkzL,2,2024-05-12_11h19.06.396,face trait task,2021.2.3,Win32,59.88023952,120416,,,,,,,
,,,,,,6,2.1293,space,0.725,0,49,49,38,1,39,image/39.jpg,0,0,,R_2KyfqZxEJXtBkzL,2,2024-05-12_11h19.06.396,face trait task,2021.2.3,Win32,59.88023952,120416,,,,,,,
,,,,,,5.027777778,1.3787,space,0.998,0,50,50,18,1,19,image/19.jpg,0,0,,R_2KyfqZxEJXtBkzL,2,2024-05-12_11h19.06.396,face trait task,2021.2.3,Win32,59.88023952,120416,,,,,,,
,,,,,,4.966666751,1.6475,space,0.6174,0,51,51,7,1,8,image/8.jpg,0,0,,R_2KyfqZxEJXtBkzL,2,2024-05-12_11h19.06.396,face trait task,2021.2.3,Win32,59.88023952,120416,,,,,,,
,,,,,,4.305555556,1.957,space,0.3738,0,52,52,35,1,36,image/36.jpg,0,0,,R_2KyfqZxEJXtBkzL,2,2024-05-12_11h19.06.396,face trait task,2021.2.3,Win32,59.88023952,120416,,,,,,,
,,,,,,,,,,,,,,,,,,,,R_2KyfqZxEJXtBkzL,2,2024-05-12_11h19.06.396,face trait task,2021.2.3,Win32,59.88023952,120416,0,3,3,1,1,1,competent.png
