choose_trial,key_resp.keys,key_resp.rt,key_resp_4.keys,key_resp_4.rt,session_trait,slider_face_judge.response,slider_face_judge.rt,key_resp_3.keys,key_resp_3.rt,face_loop.thisRepN,face_loop.thisTrialN,face_loop.thisN,face_loop.thisIndex,face_loop.ran,face_serial,image_name,isCheck,answer,check_question,participant,session,date,expName,psychopyVersion,OS,frameRate,SONAid,session.thisRepN,session.thisTrialN,session.thisN,session.thisIndex,session.ran,session_serial,slider_judge_img
"[0,1,2,3,4,5,6,7,8,9,10,11,12,13,14,15,16,17,18,19,20,21,22,23,24,25,26,27,28,29,30,31,32,33,34,35,36,37,38,39,40,41,42,43,44,45,46,47,48,49,51,53,52]",space,1.3876,space,1.8671,critical,3.961460368,3.8437,space,1.1872,0,0,0,34,1,35,image/35.jpg,0,0,,R_2M3BSrq6ZzSs0t3,2,2024-05-18_17h57.58.730,face trait task,2021.2.3,MacIntel,62.89308176,120533,,,,,,,
,,,,,,5.018310954,7.3862,space,0.443,0,1,1,44,1,45,image/45.jpg,0,0,,R_2M3BSrq6ZzSs0t3,2,2024-05-18_17h57.58.730,face trait task,2021.2.3,MacIntel,62.89308176,120533,,,,,,,
,,,,,,4.044285889,4.2628,space,1.1556,0,2,2,19,1,20,image/20.jpg,0,0,,R_2M3BSrq6ZzSs0t3,2,2024-05-18_17h57.58.730,face trait task,2021.2.3,MacIntel,62.89308176,120533,,,,,,,
,,,,,,4.015367025,3.8888,space,0.2913,0,3,3,33,1,34,image/34.jpg,0,0,,R_2M3BSrq6ZzSs0t3,2,2024-05-18_17h57.58.730,face trait task,2021.2.3,MacIntel,62.89308176,120533,,,,,,,
,,,,,,1,10.4874,space,1.1779,0,4,4,51,1,54,image/fill_img.png,1,1,Please move the slider all the way to the LEFT to show that you are paying attention.,R_2M3BSrq6ZzSs0t3,2,2024-05-18_17h57.58.730,face trait task,2021.2.3,MacIntel,62.89308176,120533,,,,,,,
,,,,,,3.022923584,3.4218,space,0.4049,0,5,5,41,1,42,image/42.jpg,0,0,,R_2M3BSrq6ZzSs0t3,2,2024-05-18_17h57.58.730,face trait task,2021.2.3,MacIntel,62.89308176,120533,,,,,,,
,,,,,,3.739950358,2.1281,space,0.488,0,6,6,17,1,18,image/18.jpg,0,0,,R_2M3BSrq6ZzSs0t3,2,2024-05-18_17h57.58.730,face trait task,2021.2.3,MacIntel,62.89308176,120533,,,,,,,
,,,,,,3.011909587,2.907,space,0.2428,0,7,7,15,1,16,image/16.jpg,0,0,,R_2M3BSrq6ZzSs0t3,2,2024-05-18_17h57.58.730,face trait task,2021.2.3,MacIntel,62.89308176,120533,,,,,,,
,,,,,,4.979373372,4.9165,space,2.8585,0,8,8,3,1,4,image/4.jpg,0,0,,R_2M3BSrq6ZzSs0t3,2,2024-05-18_17h57.58.730,face trait task,2021.2.3,MacIntel,62.89308176,120533,,,,,,,
,,,,,,4.023854167,6.656,space,3.0253,0,9,9,9,1,10,image/10.jpg,0,0,,R_2M3BSrq6ZzSs0t3,2,2024-05-18_17h57.58.730,face trait task,2021.2.3,MacIntel,62.89308176,120533,,,,,,,
,,,,,,3.344586182,2.689,space,1.539,0,10,10,38,1,39,image/39.jpg,0,0,,R_2M3BSrq6ZzSs0t3,2,2024-05-18_17h57.58.730,face trait task,2021.2.3,MacIntel,62.89308176,120533,,,,,,,
,,,,,,2.534350586,4.4511,space,0.4641,0,11,11,11,1,12,image/12.jpg,0,0,,R_2M3BSrq6ZzSs0t3,2,2024-05-18_17h57.58.730,face trait task,2021.2.3,MacIntel,62.89308176,120533,,,,,,,
,,,,,,2.535982869,2.4725,space,0.1848,0,12,12,46,1,47,image/47.jpg,0,0,,R_2M3BSrq6ZzSs0t3,2,2024-05-18_17h57.58.730,face trait task,2021.2.3,MacIntel,62.89308176,120533,,,,,,,
,,,,,,2.574085286,3.7072,space,0.1377,0,13,13,13,1,14,image/14.jpg,0,0,,R_2M3BSrq6ZzSs0t3,2,2024-05-18_17h57.58.730,face trait task,2021.2.3,MacIntel,62.89308176,120533,,,,,,,
,,,,,,3.302533773,4.0199,space,1.6634,0,14,14,22,1,23,image/23.jpg,0,0,,R_2M3BSrq6ZzSs0t3,2,2024-05-18_17h57.58.730,face trait task,2021.2.3,MacIntel,62.89308176,120533,,,,,,,
,,,,,,4.561160482,3.2869,space,1.459,0,15,15,39,1,40,image/40.jpg,0,0,,R_2M3BSrq6ZzSs0t3,2,2024-05-18_17h57.58.730,face trait task,2021.2.3,MacIntel,62.89308176,120533,,,,,,,
,,,,,,3.237865804,2.2562,space,2.7031,0,16,16,45,1,46,image/46.jpg,0,0,,R_2M3BSrq6ZzSs0t3,2,2024-05-18_17h57.58.730,face trait task,2021.2.3,MacIntel,62.89308176,120533,,,,,,,
,,,,,,4.214083252,2.3259,space,1.4592,0,17,17,20,1,21,image/21.jpg,0,0,,R_2M3BSrq6ZzSs0t3,2,2024-05-18_17h57.58.730,face trait task,2021.2.3,MacIntel,62.89308176,120533,,,,,,,
,,,,,,3.756275635,1.5733,space,1.5864,0,18,18,49,1,50,image/50.jpg,0,0,,R_2M3BSrq6ZzSs0t3,2,2024-05-18_17h57.58.730,face trait task,2021.2.3,MacIntel,62.89308176,120533,,,,,,,
,,,,,,3.998815918,2.5061,space,0.7611,0,19,19,8,1,9,image/9.jpg,0,0,,R_2M3BSrq6ZzSs0t3,2,2024-05-18_17h57.58.730,face trait task,2021.2.3,MacIntel,62.89308176,120533,,,,,,,
,,,,,,3.165042318,2.173,space,0.4719,0,20,20,2,1,3,image/3.jpg,0,0,,R_2M3BSrq6ZzSs0t3,2,2024-05-18_17h57.58.730,face trait task,2021.2.3,MacIntel,62.89308176,120533,,,,,,,
,,,,,,5.044723307,2.5055,space,0.2194,0,21,21,47,1,48,image/48.jpg,0,0,,R_2M3BSrq6ZzSs0t3,2,2024-05-18_17h57.58.730,face trait task,2021.2.3,MacIntel,62.89308176,120533,,,,,,,
,,,,,,3.749944255,2.2898,space,1.621,0,22,22,24,1,25,image/25.jpg,0,0,,R_2M3BSrq6ZzSs0t3,2,2024-05-18_17h57.58.730,face trait task,2021.2.3,MacIntel,62.89308176,120533,,,,,,,
,,,,,,5.128419189,3.6745,space,0.6394,0,23,23,28,1,29,image/29.jpg,0,0,,R_2M3BSrq6ZzSs0t3,2,2024-05-18_17h57.58.730,face trait task,2021.2.3,MacIntel,62.89308176,120533,,,,,,,
,,,,,,4.641643473,2.1383,space,1.6908,0,24,24,23,1,24,image/24.jpg,0,0,,R_2M3BSrq6ZzSs0t3,2,2024-05-18_17h57.58.730,face trait task,2021.2.3,MacIntel,62.89308176,120533,,,,,,,
,,,,,,3.62762736,3.7054,space,0.1892,0,25,25,12,1,13,image/13.jpg,0,0,,R_2M3BSrq6ZzSs0t3,2,2024-05-18_17h57.58.730,face trait task,2021.2.3,MacIntel,62.89308176,120533,,,,,,,
,,,,,,5.589928792,3.6522,space,0.7499,0,26,26,0,1,1,image/1.jpg,0,0,,R_2M3BSrq6ZzSs0t3,2,2024-05-18_17h57.58.730,face trait task,2021.2.3,MacIntel,62.89308176,120533,,,,,,,
,,,,,,1.015501099,7.2635,space,0.5674,0,27,27,50,1,52,image/fill_img.png,1,1,Please move the slider all the way to the LEFT to show that you are paying attention.,R_2M3BSrq6ZzSs0t3,2,2024-05-18_17h57.58.730,face trait task,2021.2.3,MacIntel,62.89308176,120533,,,,,,,
,,,,,,5.578592122,4.2384,space,1.2874,0,28,28,30,1,31,image/31.jpg,0,0,,R_2M3BSrq6ZzSs0t3,2,2024-05-18_17h57.58.730,face trait task,2021.2.3,MacIntel,62.89308176,120533,,,,,,,
,,,,,,4.503881429,2.1417,space,1.3189,0,29,29,37,1,38,image/38.jpg,0,0,,R_2M3BSrq6ZzSs0t3,2,2024-05-18_17h57.58.730,face trait task,2021.2.3,MacIntel,62.89308176,120533,,,,,,,
,,,,,,5.590748291,3.5571,space,0.424,0,30,30,40,1,41,image/41.jpg,0,0,,R_2M3BSrq6ZzSs0t3,2,2024-05-18_17h57.58.730,face trait task,2021.2.3,MacIntel,62.89308176,120533,,,,,,,
,,,,,,5.20063151,2.3414,space,1.0324,0,31,31,5,1,6,image/6.jpg,0,0,,R_2M3BSrq6ZzSs0t3,2,2024-05-18_17h57.58.730,face trait task,2021.2.3,MacIntel,62.89308176,120533,,,,,,,
,,,,,,4.440976969,2.9343,space,0.8945,0,32,32,4,1,5,image/5.jpg,0,0,,R_2M3BSrq6ZzSs0t3,2,2024-05-18_17h57.58.730,face trait task,2021.2.3,MacIntel,62.89308176,120533,,,,,,,
,,,,,,3.537297363,6.0517,space,0.1743,0,33,33,31,1,32,image/32.jpg,0,0,,R_2M3BSrq6ZzSs0t3,2,2024-05-18_17h57.58.730,face trait task,2021.2.3,MacIntel,62.89308176,120533,,,,,,,
,,,,,,4.31243042,6.4673,space,0.399,0,34,34,36,1,37,image/37.jpg,0,0,,R_2M3BSrq6ZzSs0t3,2,2024-05-18_17h57.58.730,face trait task,2021.2.3,MacIntel,62.89308176,120533,,,,,,,
,,,,,,3.363815918,3.1351,space,0.09,0,35,35,27,1,28,image/28.jpg,0,0,,R_2M3BSrq6ZzSs0t3,2,2024-05-18_17h57.58.730,face trait task,2021.2.3,MacIntel,62.89308176,120533,,,,,,,
,,,,,,3.801710612,2.0895,space,0.9087,0,36,36,32,1,33,image/33.jpg,0,0,,R_2M3BSrq6ZzSs0t3,2,2024-05-18_17h57.58.730,face trait task,2021.2.3,MacIntel,62.89308176,120533,,,,,,,
,,,,,,4.890146077,1.3746,space,2.2906,0,37,37,25,1,26,image/26.jpg,0,0,,R_2M3BSrq6ZzSs0t3,2,2024-05-18_17h57.58.730,face trait task,2021.2.3,MacIntel,62.89308176,120533,,,,,,,
,,,,,,2.870628255,3.9747,space,0.7018,0,38,38,16,1,17,image/17.jpg,0,0,,R_2M3BSrq6ZzSs0t3,2,2024-05-18_17h57.58.730,face trait task,2021.2.3,MacIntel,62.89308176,120533,,,,,,,
,,,,,,1.058347575,3.2366,space,0.5015,0,39,39,52,1,53,image/fill_img.png,1,1,Please move the slider all the way to the LEFT to show that you are paying attention.,R_2M3BSrq6ZzSs0t3,2,2024-05-18_17h57.58.730,face trait task,2021.2.3,MacIntel,62.89308176,120533,,,,,,,
,,,,,,3.675976969,2.9843,space,0.1795,0,40,40,10,1,11,image/11.jpg,0,0,,R_2M3BSrq6ZzSs0t3,2,2024-05-18_17h57.58.730,face trait task,2021.2.3,MacIntel,62.89308176,120533,,,,,,,
,,,,,,2.378374227,3.1233,space,1.3184,0,41,41,42,1,43,image/43.jpg,0,0,,R_2M3BSrq6ZzSs0t3,2,2024-05-18_17h57.58.730,face trait task,2021.2.3,MacIntel,62.89308176,120533,,,,,,,
,,,,,,4.547691243,3.372,space,0.5165,0,42,42,21,1,22,image/22.jpg,0,0,,R_2M3BSrq6ZzSs0t3,2,2024-05-18_17h57.58.730,face trait task,2021.2.3,MacIntel,62.89308176,120533,,,,,,,
,,,,,,5.04664917,7.0522,space,0.3896,0,43,43,48,1,49,image/49.jpg,0,0,,R_2M3BSrq6ZzSs0t3,2,2024-05-18_17h57.58.730,face trait task,2021.2.3,MacIntel,62.89308176,120533,,,,,,,
,,,,,,3.526443685,5.6839,space,0.1872,0,44,44,43,1,44,image/44.jpg,0,0,,R_2M3BSrq6ZzSs0t3,2,2024-05-18_17h57.58.730,face trait task,2021.2.3,MacIntel,62.89308176,120533,,,,,,,
,,,,,,2.671593831,2.3236,space,1.7542,0,45,45,35,1,36,image/36.jpg,0,0,,R_2M3BSrq6ZzSs0t3,2,2024-05-18_17h57.58.730,face trait task,2021.2.3,MacIntel,62.89308176,120533,,,,,,,
,,,,,,3.544470622,2.1242,space,1.4863,0,46,46,7,1,8,image/8.jpg,0,0,,R_2M3BSrq6ZzSs0t3,2,2024-05-18_17h57.58.730,face trait task,2021.2.3,MacIntel,62.89308176,120533,,,,,,,
,,,,,,4.330963542,2.16,space,1.2586,0,47,47,26,1,27,image/27.jpg,0,0,,R_2M3BSrq6ZzSs0t3,2,2024-05-18_17h57.58.730,face trait task,2021.2.3,MacIntel,62.89308176,120533,,,,,,,
,,,,,,3.697282715,1.8911,space,0.1363,0,48,48,18,1,19,image/19.jpg,0,0,,R_2M3BSrq6ZzSs0t3,2,2024-05-18_17h57.58.730,face trait task,2021.2.3,MacIntel,62.89308176,120533,,,,,,,
,,,,,,2.694092611,7.6008,space,0.0986,0,49,49,14,1,15,image/15.jpg,0,0,,R_2M3BSrq6ZzSs0t3,2,2024-05-18_17h57.58.730,face trait task,2021.2.3,MacIntel,62.89308176,120533,,,,,,,
,,,,,,4.318149007,1.756,space,2.7541,0,50,50,1,1,2,image/2.jpg,0,0,,R_2M3BSrq6ZzSs0t3,2,2024-05-18_17h57.58.730,face trait task,2021.2.3,MacIntel,62.89308176,120533,,,,,,,
,,,,,,3.514285889,2.9754,space,1.7045,0,51,51,29,1,30,image/30.jpg,0,0,,R_2M3BSrq6ZzSs0t3,2,2024-05-18_17h57.58.730,face trait task,2021.2.3,MacIntel,62.89308176,120533,,,,,,,
,,,,,,4.097183838,2.0904,space,0.6935,0,52,52,6,1,7,image/7.jpg,0,0,,R_2M3BSrq6ZzSs0t3,2,2024-05-18_17h57.58.730,face trait task,2021.2.3,MacIntel,62.89308176,120533,,,,,,,
,,,,,,,,,,,,,,,,,,,,R_2M3BSrq6ZzSs0t3,2,2024-05-18_17h57.58.730,face trait task,2021.2.3,MacIntel,62.89308176,120533,0,0,0,0,1,0,critical.png
,,,,,friendly,3.471745605,2.2399,space,0.6564,0,0,0,6,1,7,image/7.jpg,0,0,,R_2M3BSrq6ZzSs0t3,2,2024-05-18_17h57.58.730,face trait task,2021.2.3,MacIntel,62.89308176,120533,,,,,,,
,,,,,,4.244299723,2.4387,space,1.8203,0,1,1,28,1,29,image/29.jpg,0,0,,R_2M3BSrq6ZzSs0t3,2,2024-05-18_17h57.58.730,face trait task,2021.2.3,MacIntel,62.89308176,120533,,,,,,,
,,,,,,4.027416992,1.976,space,0.25,0,2,2,41,1,42,image/42.jpg,0,0,,R_2M3BSrq6ZzSs0t3,2,2024-05-18_17h57.58.730,face trait task,2021.2.3,MacIntel,62.89308176,120533,,,,,,,
,,,,,,4.027416992,2.1065,space,1.0873,0,3,3,32,1,33,image/33.jpg,0,0,,R_2M3BSrq6ZzSs0t3,2,2024-05-18_17h57.58.730,face trait task,2021.2.3,MacIntel,62.89308176,120533,,,,,,,
,,,,,,4.02581543,1.4395,space,1.1828,0,4,4,4,1,5,image/5.jpg,0,0,,R_2M3BSrq6ZzSs0t3,2,2024-05-18_17h57.58.730,face trait task,2021.2.3,MacIntel,62.89308176,120533,,,,,,,
,,,,,,4.73575887,2.9719,space,0.4279,0,5,5,20,1,21,image/21.jpg,0,0,,R_2M3BSrq6ZzSs0t3,2,2024-05-18_17h57.58.730,face trait task,2021.2.3,MacIntel,62.89308176,120533,,,,,,,
,,,,,,4.73575887,2.3401,space,0.7708,0,6,6,19,1,20,image/20.jpg,0,0,,R_2M3BSrq6ZzSs0t3,2,2024-05-18_17h57.58.730,face trait task,2021.2.3,MacIntel,62.89308176,120533,,,,,,,
,,,,,,4.23596639,2.9564,space,0.3544,0,7,7,46,1,47,image/47.jpg,0,0,,R_2M3BSrq6ZzSs0t3,2,2024-05-18_17h57.58.730,face trait task,2021.2.3,MacIntel,62.89308176,120533,,,,,,,
,,,,,,4.23596639,1.5231,space,0.7439,0,8,8,37,1,38,image/38.jpg,0,0,,R_2M3BSrq6ZzSs0t3,2,2024-05-18_17h57.58.730,face trait task,2021.2.3,MacIntel,62.89308176,120533,,,,,,,
,,,,,,3.371904704,3.2574,space,0.3868,0,9,9,16,1,17,image/17.jpg,0,0,,R_2M3BSrq6ZzSs0t3,2,2024-05-18_17h57.58.730,face trait task,2021.2.3,MacIntel,62.89308176,120533,,,,,,,
,,,,,,3.693341471,2.223,space,0.4209,0,10,10,29,1,30,image/30.jpg,0,0,,R_2M3BSrq6ZzSs0t3,2,2024-05-18_17h57.58.730,face trait task,2021.2.3,MacIntel,62.89308176,120533,,,,,,,
,,,,,,3.693341471,2.0731,space,0.3223,0,11,11,42,1,43,image/43.jpg,0,0,,R_2M3BSrq6ZzSs0t3,2,2024-05-18_17h57.58.730,face trait task,2021.2.3,MacIntel,62.89308176,120533,,,,,,,
,,,,,,3.693341471,2.8693,space,0.4738,0,12,12,48,1,49,image/49.jpg,0,0,,R_2M3BSrq6ZzSs0t3,2,2024-05-18_17h57.58.730,face trait task,2021.2.3,MacIntel,62.89308176,120533,,,,,,,
,,,,,,1.009405111,4.2863,space,0.7737,0,13,13,51,1,54,image/fill_img.png,1,1,Please move the slider all the way to the LEFT to show that you are paying attention.,R_2M3BSrq6ZzSs0t3,2,2024-05-18_17h57.58.730,face trait task,2021.2.3,MacIntel,62.89308176,120533,,,,,,,
,,,,,,3.676368408,2.3039,space,0.9497,0,14,14,30,1,31,image/31.jpg,0,0,,R_2M3BSrq6ZzSs0t3,2,2024-05-18_17h57.58.730,face trait task,2021.2.3,MacIntel,62.89308176,120533,,,,,,,
,,,,,,3.358679606,3.0512,space,0.3599,0,15,15,44,1,45,image/45.jpg,0,0,,R_2M3BSrq6ZzSs0t3,2,2024-05-18_17h57.58.730,face trait task,2021.2.3,MacIntel,62.89308176,120533,,,,,,,
,,,,,,5.164440104,3.9226,space,0.3935,0,16,16,40,1,41,image/41.jpg,0,0,,R_2M3BSrq6ZzSs0t3,2,2024-05-18_17h57.58.730,face trait task,2021.2.3,MacIntel,62.89308176,120533,,,,,,,
,,,,,,4.696138916,3.2343,space,0.3332,0,17,17,2,1,3,image/3.jpg,0,0,,R_2M3BSrq6ZzSs0t3,2,2024-05-18_17h57.58.730,face trait task,2021.2.3,MacIntel,62.89308176,120533,,,,,,,
,,,,,,4.537960205,1.8238,space,1.5368,0,18,18,43,1,44,image/44.jpg,0,0,,R_2M3BSrq6ZzSs0t3,2,2024-05-18_17h57.58.730,face trait task,2021.2.3,MacIntel,62.89308176,120533,,,,,,,
,,,,,,4.537960205,1.741,space,1.155,0,19,19,39,1,40,image/40.jpg,0,0,,R_2M3BSrq6ZzSs0t3,2,2024-05-18_17h57.58.730,face trait task,2021.2.3,MacIntel,62.89308176,120533,,,,,,,
,,,,,,1.02135376,4.0331,space,0.3451,0,20,20,50,1,52,image/fill_img.png,1,1,Please move the slider all the way to the LEFT to show that you are paying attention.,R_2M3BSrq6ZzSs0t3,2,2024-05-18_17h57.58.730,face trait task,2021.2.3,MacIntel,62.89308176,120533,,,,,,,
,,,,,,3.27203776,2.6547,space,1.4589,0,21,21,15,1,16,image/16.jpg,0,0,,R_2M3BSrq6ZzSs0t3,2,2024-05-18_17h57.58.730,face trait task,2021.2.3,MacIntel,62.89308176,120533,,,,,,,
,,,,,,3.285096029,3.0011,space,0.2404,0,22,22,45,1,46,image/46.jpg,0,0,,R_2M3BSrq6ZzSs0t3,2,2024-05-18_17h57.58.730,face trait task,2021.2.3,MacIntel,62.89308176,120533,,,,,,,
,,,,,,3.285096029,1.2913,space,0.6003,0,23,23,18,1,19,image/19.jpg,0,0,,R_2M3BSrq6ZzSs0t3,2,2024-05-18_17h57.58.730,face trait task,2021.2.3,MacIntel,62.89308176,120533,,,,,,,
,,,,,,3.285096029,1.2895,space,1.3278,0,24,24,33,1,34,image/34.jpg,0,0,,R_2M3BSrq6ZzSs0t3,2,2024-05-18_17h57.58.730,face trait task,2021.2.3,MacIntel,62.89308176,120533,,,,,,,
,,,,,,3.285096029,2.439,space,0.9007,0,25,25,38,1,39,image/39.jpg,0,0,,R_2M3BSrq6ZzSs0t3,2,2024-05-18_17h57.58.730,face trait task,2021.2.3,MacIntel,62.89308176,120533,,,,,,,
,,,,,,3.285096029,1.2908,space,0.635,0,26,26,24,1,25,image/25.jpg,0,0,,R_2M3BSrq6ZzSs0t3,2,2024-05-18_17h57.58.730,face trait task,2021.2.3,MacIntel,62.89308176,120533,,,,,,,
,,,,,,3.7027771,2.0234,space,0.5662,0,27,27,17,1,18,image/18.jpg,0,0,,R_2M3BSrq6ZzSs0t3,2,2024-05-18_17h57.58.730,face trait task,2021.2.3,MacIntel,62.89308176,120533,,,,,,,
,,,,,,3.7027771,1.9892,space,0.2855,0,28,28,31,1,32,image/32.jpg,0,0,,R_2M3BSrq6ZzSs0t3,2,2024-05-18_17h57.58.730,face trait task,2021.2.3,MacIntel,62.89308176,120533,,,,,,,
,,,,,,3.7027771,1.7745,space,0.2913,0,29,29,7,1,8,image/8.jpg,0,0,,R_2M3BSrq6ZzSs0t3,2,2024-05-18_17h57.58.730,face trait task,2021.2.3,MacIntel,62.89308176,120533,,,,,,,
,,,,,,3.7027771,1.6892,space,0.4847,0,30,30,0,1,1,image/1.jpg,0,0,,R_2M3BSrq6ZzSs0t3,2,2024-05-18_17h57.58.730,face trait task,2021.2.3,MacIntel,62.89308176,120533,,,,,,,
,,,,,,4.247527669,1.3554,space,0.6342,0,31,31,13,1,14,image/14.jpg,0,0,,R_2M3BSrq6ZzSs0t3,2,2024-05-18_17h57.58.730,face trait task,2021.2.3,MacIntel,62.89308176,120533,,,,,,,
,,,,,,4.247527669,1.2242,space,0.4664,0,32,32,14,1,15,image/15.jpg,0,0,,R_2M3BSrq6ZzSs0t3,2,2024-05-18_17h57.58.730,face trait task,2021.2.3,MacIntel,62.89308176,120533,,,,,,,
,,,,,,4.891652832,1.9889,space,0.4034,0,33,33,3,1,4,image/4.jpg,0,0,,R_2M3BSrq6ZzSs0t3,2,2024-05-18_17h57.58.730,face trait task,2021.2.3,MacIntel,62.89308176,120533,,,,,,,
,,,,,,5.035559896,1.9397,space,0.3547,0,34,34,36,1,37,image/37.jpg,0,0,,R_2M3BSrq6ZzSs0t3,2,2024-05-18_17h57.58.730,face trait task,2021.2.3,MacIntel,62.89308176,120533,,,,,,,
,,,,,,5.035559896,1.3227,space,0.3379,0,35,35,27,1,28,image/28.jpg,0,0,,R_2M3BSrq6ZzSs0t3,2,2024-05-18_17h57.58.730,face trait task,2021.2.3,MacIntel,62.89308176,120533,,,,,,,
,,,,,,2.491758219,3.3397,space,0.3501,0,36,36,1,1,2,image/2.jpg,0,0,,R_2M3BSrq6ZzSs0t3,2,2024-05-18_17h57.58.730,face trait task,2021.2.3,MacIntel,62.89308176,120533,,,,,,,
,,,,,,2.491758219,2.4399,space,0.2699,0,37,37,8,1,9,image/9.jpg,0,0,,R_2M3BSrq6ZzSs0t3,2,2024-05-18_17h57.58.730,face trait task,2021.2.3,MacIntel,62.89308176,120533,,,,,,,
,,,,,,2.777751058,1.8075,space,0.2354,0,38,38,10,1,11,image/11.jpg,0,0,,R_2M3BSrq6ZzSs0t3,2,2024-05-18_17h57.58.730,face trait task,2021.2.3,MacIntel,62.89308176,120533,,,,,,,
,,,,,,4.255688883,1.773,space,0.2578,0,39,39,11,1,12,image/12.jpg,0,0,,R_2M3BSrq6ZzSs0t3,2,2024-05-18_17h57.58.730,face trait task,2021.2.3,MacIntel,62.89308176,120533,,,,,,,
,,,,,,3.780854085,1.9393,space,0.444,0,40,40,49,1,50,image/50.jpg,0,0,,R_2M3BSrq6ZzSs0t3,2,2024-05-18_17h57.58.730,face trait task,2021.2.3,MacIntel,62.89308176,120533,,,,,,,
,,,,,,4.170086263,1.6906,space,0.3324,0,41,41,23,1,24,image/24.jpg,0,0,,R_2M3BSrq6ZzSs0t3,2,2024-05-18_17h57.58.730,face trait task,2021.2.3,MacIntel,62.89308176,120533,,,,,,,
,,,,,,4.170086263,8.2349,space,0.3472,0,42,42,47,1,48,image/48.jpg,0,0,,R_2M3BSrq6ZzSs0t3,2,2024-05-18_17h57.58.730,face trait task,2021.2.3,MacIntel,62.89308176,120533,,,,,,,
,,,,,,4.678117269,7.5043,space,0.3057,0,43,43,22,1,23,image/23.jpg,0,0,,R_2M3BSrq6ZzSs0t3,2,2024-05-18_17h57.58.730,face trait task,2021.2.3,MacIntel,62.89308176,120533,,,,,,,
,,,,,,4.678117269,1.8394,space,0.6216,0,44,44,21,1,22,image/22.jpg,0,0,,R_2M3BSrq6ZzSs0t3,2,2024-05-18_17h57.58.730,face trait task,2021.2.3,MacIntel,62.89308176,120533,,,,,,,
,,,,,,4.678117269,8.4887,space,0.3116,0,45,45,12,1,13,image/13.jpg,0,0,,R_2M3BSrq6ZzSs0t3,2,2024-05-18_17h57.58.730,face trait task,2021.2.3,MacIntel,62.89308176,120533,,,,,,,
,,,,,,2.83532959,2.7744,space,0.3385,0,46,46,35,1,36,image/36.jpg,0,0,,R_2M3BSrq6ZzSs0t3,2,2024-05-18_17h57.58.730,face trait task,2021.2.3,MacIntel,62.89308176,120533,,,,,,,
,,,,,,4.162323405,1.4716,space,0.6049,0,47,47,25,1,26,image/26.jpg,0,0,,R_2M3BSrq6ZzSs0t3,2,2024-05-18_17h57.58.730,face trait task,2021.2.3,MacIntel,62.89308176,120533,,,,,,,
,,,,,,4.237346598,5.0829,space,0.3141,0,48,48,34,1,35,image/35.jpg,0,0,,R_2M3BSrq6ZzSs0t3,2,2024-05-18_17h57.58.730,face trait task,2021.2.3,MacIntel,62.89308176,120533,,,,,,,
,,,,,,4.023119303,2.7057,space,0.2183,0,49,49,26,1,27,image/27.jpg,0,0,,R_2M3BSrq6ZzSs0t3,2,2024-05-18_17h57.58.730,face trait task,2021.2.3,MacIntel,62.89308176,120533,,,,,,,
,,,,,,1.027105509,2.7215,space,0.221,0,50,50,52,1,53,image/fill_img.png,1,1,Please move the slider all the way to the LEFT to show that you are paying attention.,R_2M3BSrq6ZzSs0t3,2,2024-05-18_17h57.58.730,face trait task,2021.2.3,MacIntel,62.89308176,120533,,,,,,,
,,,,,,3.100713704,2.4885,space,0.44,0,51,51,9,1,10,image/10.jpg,0,0,,R_2M3BSrq6ZzSs0t3,2,2024-05-18_17h57.58.730,face trait task,2021.2.3,MacIntel,62.89308176,120533,,,,,,,
,,,,,,3.100713704,1.7071,space,0.3534,0,52,52,5,1,6,image/6.jpg,0,0,,R_2M3BSrq6ZzSs0t3,2,2024-05-18_17h57.58.730,face trait task,2021.2.3,MacIntel,62.89308176,120533,,,,,,,
,,,,,,,,,,,,,,,,,,,,R_2M3BSrq6ZzSs0t3,2,2024-05-18_17h57.58.730,face trait task,2021.2.3,MacIntel,62.89308176,120533,0,1,1,3,1,3,friendly.png
,,,,,trustworthy,2.402513631,2.132,space,0.2365,0,0,0,8,1,9,image/9.jpg,0,0,,R_2M3BSrq6ZzSs0t3,2,2024-05-18_17h57.58.730,face trait task,2021.2.3,MacIntel,62.89308176,120533,,,,,,,
,,,,,,4.675543213,2.2745,space,0.3916,0,1,1,33,1,34,image/34.jpg,0,0,,R_2M3BSrq6ZzSs0t3,2,2024-05-18_17h57.58.730,face trait task,2021.2.3,MacIntel,62.89308176,120533,,,,,,,
,,,,,,3.638258057,1.6899,space,0.5049,0,2,2,17,1,18,image/18.jpg,0,0,,R_2M3BSrq6ZzSs0t3,2,2024-05-18_17h57.58.730,face trait task,2021.2.3,MacIntel,62.89308176,120533,,,,,,,
,,,,,,4.836031901,3.2548,space,0.5382,0,3,3,35,1,36,image/36.jpg,0,0,,R_2M3BSrq6ZzSs0t3,2,2024-05-18_17h57.58.730,face trait task,2021.2.3,MacIntel,62.89308176,120533,,,,,,,
,,,,,,4.836031901,1.5058,space,0.9,0,4,4,0,1,1,image/1.jpg,0,0,,R_2M3BSrq6ZzSs0t3,2,2024-05-18_17h57.58.730,face trait task,2021.2.3,MacIntel,62.89308176,120533,,,,,,,
,,,,,,4.303890381,2.357,space,0.3406,0,5,5,30,1,31,image/31.jpg,0,0,,R_2M3BSrq6ZzSs0t3,2,2024-05-18_17h57.58.730,face trait task,2021.2.3,MacIntel,62.89308176,120533,,,,,,,
,,,,,,4.294833171,1.7724,space,0.4367,0,6,6,40,1,41,image/41.jpg,0,0,,R_2M3BSrq6ZzSs0t3,2,2024-05-18_17h57.58.730,face trait task,2021.2.3,MacIntel,62.89308176,120533,,,,,,,
,,,,,,4.294833171,1.9904,space,0.34,0,7,7,13,1,14,image/14.jpg,0,0,,R_2M3BSrq6ZzSs0t3,2,2024-05-18_17h57.58.730,face trait task,2021.2.3,MacIntel,62.89308176,120533,,,,,,,
,,,,,,4.294833171,3.0892,space,0.8998,0,8,8,2,1,3,image/3.jpg,0,0,,R_2M3BSrq6ZzSs0t3,2,2024-05-18_17h57.58.730,face trait task,2021.2.3,MacIntel,62.89308176,120533,,,,,,,
,,,,,,4.294833171,2.5392,space,1.019,0,9,9,43,1,44,image/44.jpg,0,0,,R_2M3BSrq6ZzSs0t3,2,2024-05-18_17h57.58.730,face trait task,2021.2.3,MacIntel,62.89308176,120533,,,,,,,
,,,,,,4.294833171,1.6229,space,0.9657,0,10,10,46,1,47,image/47.jpg,0,0,,R_2M3BSrq6ZzSs0t3,2,2024-05-18_17h57.58.730,face trait task,2021.2.3,MacIntel,62.89308176,120533,,,,,,,
,,,,,,5.68318807,4.1402,space,1.7826,0,11,11,44,1,45,image/45.jpg,0,0,,R_2M3BSrq6ZzSs0t3,2,2024-05-18_17h57.58.730,face trait task,2021.2.3,MacIntel,62.89308176,120533,,,,,,,
,,,,,,5.167630208,2.2396,space,0.3715,0,12,12,5,1,6,image/6.jpg,0,0,,R_2M3BSrq6ZzSs0t3,2,2024-05-18_17h57.58.730,face trait task,2021.2.3,MacIntel,62.89308176,120533,,,,,,,
,,,,,,5.257007243,2.0233,space,0.2377,0,13,13,7,1,8,image/8.jpg,0,0,,R_2M3BSrq6ZzSs0t3,2,2024-05-18_17h57.58.730,face trait task,2021.2.3,MacIntel,62.89308176,120533,,,,,,,
,,,,,,5.300415853,1.6225,space,0.3842,0,14,14,41,1,42,image/42.jpg,0,0,,R_2M3BSrq6ZzSs0t3,2,2024-05-18_17h57.58.730,face trait task,2021.2.3,MacIntel,62.89308176,120533,,,,,,,
,,,,,,4.048415934,1.6226,space,0.2263,0,15,15,19,1,20,image/20.jpg,0,0,,R_2M3BSrq6ZzSs0t3,2,2024-05-18_17h57.58.730,face trait task,2021.2.3,MacIntel,62.89308176,120533,,,,,,,
,,,,,,4.048415934,1.1054,space,0.3194,0,16,16,3,1,4,image/4.jpg,0,0,,R_2M3BSrq6ZzSs0t3,2,2024-05-18_17h57.58.730,face trait task,2021.2.3,MacIntel,62.89308176,120533,,,,,,,
,,,,,,4.048415934,1.6069,space,0.3156,0,17,17,28,1,29,image/29.jpg,0,0,,R_2M3BSrq6ZzSs0t3,2,2024-05-18_17h57.58.730,face trait task,2021.2.3,MacIntel,62.89308176,120533,,,,,,,
,,,,,,4.546573079,2.0421,space,0.276,0,18,18,45,1,46,image/46.jpg,0,0,,R_2M3BSrq6ZzSs0t3,2,2024-05-18_17h57.58.730,face trait task,2021.2.3,MacIntel,62.89308176,120533,,,,,,,
,,,,,,4.326588949,2.675,space,0.267,0,19,19,22,1,23,image/23.jpg,0,0,,R_2M3BSrq6ZzSs0t3,2,2024-05-18_17h57.58.730,face trait task,2021.2.3,MacIntel,62.89308176,120533,,,,,,,
,,,,,,4.770944824,1.859,space,0.2387,0,20,20,6,1,7,image/7.jpg,0,0,,R_2M3BSrq6ZzSs0t3,2,2024-05-18_17h57.58.730,face trait task,2021.2.3,MacIntel,62.89308176,120533,,,,,,,
,,,,,,4.522099609,1.6092,space,0.2333,0,21,21,14,1,15,image/15.jpg,0,0,,R_2M3BSrq6ZzSs0t3,2,2024-05-18_17h57.58.730,face trait task,2021.2.3,MacIntel,62.89308176,120533,,,,,,,
,,,,,,4.522099609,1.6237,space,0.7273,0,22,22,48,1,49,image/49.jpg,0,0,,R_2M3BSrq6ZzSs0t3,2,2024-05-18_17h57.58.730,face trait task,2021.2.3,MacIntel,62.89308176,120533,,,,,,,
,,,,,,4.522099609,1.2577,space,0.3706,0,23,23,10,1,11,image/11.jpg,0,0,,R_2M3BSrq6ZzSs0t3,2,2024-05-18_17h57.58.730,face trait task,2021.2.3,MacIntel,62.89308176,120533,,,,,,,
,,,,,,1.079760132,2.5035,space,0.7035,0,24,24,50,1,52,image/fill_img.png,1,1,Please move the slider all the way to the LEFT to show that you are paying attention.,R_2M3BSrq6ZzSs0t3,2,2024-05-18_17h57.58.730,face trait task,2021.2.3,MacIntel,62.89308176,120533,,,,,,,
,,,,,,4.761722819,2.7396,space,2.1863,0,25,25,38,1,39,image/39.jpg,0,0,,R_2M3BSrq6ZzSs0t3,2,2024-05-18_17h57.58.730,face trait task,2021.2.3,MacIntel,62.89308176,120533,,,,,,,
,,,,,,3.550138753,4.9243,space,0.3259,0,26,26,32,1,33,image/33.jpg,0,0,,R_2M3BSrq6ZzSs0t3,2,2024-05-18_17h57.58.730,face trait task,2021.2.3,MacIntel,62.89308176,120533,,,,,,,
,,,,,,1.037396444,2.0555,space,0.3232,0,27,27,51,1,54,image/fill_img.png,1,1,Please move the slider all the way to the LEFT to show that you are paying attention.,R_2M3BSrq6ZzSs0t3,2,2024-05-18_17h57.58.730,face trait task,2021.2.3,MacIntel,62.89308176,120533,,,,,,,
,,,,,,4.527384033,1.7691,space,0.4535,0,28,28,21,1,22,image/22.jpg,0,0,,R_2M3BSrq6ZzSs0t3,2,2024-05-18_17h57.58.730,face trait task,2021.2.3,MacIntel,62.89308176,120533,,,,,,,
,,,,,,3.348700765,3.8539,space,0.1647,0,29,29,26,1,27,image/27.jpg,0,0,,R_2M3BSrq6ZzSs0t3,2,2024-05-18_17h57.58.730,face trait task,2021.2.3,MacIntel,62.89308176,120533,,,,,,,
,,,,,,1.009685262,3.3874,space,0.3394,0,30,30,52,1,53,image/fill_img.png,1,1,Please move the slider all the way to the LEFT to show that you are paying attention.,R_2M3BSrq6ZzSs0t3,2,2024-05-18_17h57.58.730,face trait task,2021.2.3,MacIntel,62.89308176,120533,,,,,,,
,,,,,,3.313258464,2.5546,space,0.6264,0,31,31,37,1,38,image/38.jpg,0,0,,R_2M3BSrq6ZzSs0t3,2,2024-05-18_17h57.58.730,face trait task,2021.2.3,MacIntel,62.89308176,120533,,,,,,,
,,,,,,5.046281738,1.8556,space,0.5416,0,32,32,34,1,35,image/35.jpg,0,0,,R_2M3BSrq6ZzSs0t3,2,2024-05-18_17h57.58.730,face trait task,2021.2.3,MacIntel,62.89308176,120533,,,,,,,
,,,,,,3.389500326,2.1575,space,0.6717,0,33,33,24,1,25,image/25.jpg,0,0,,R_2M3BSrq6ZzSs0t3,2,2024-05-18_17h57.58.730,face trait task,2021.2.3,MacIntel,62.89308176,120533,,,,,,,
,,,,,,2.775734863,4.1373,space,0.2744,0,34,34,29,1,30,image/30.jpg,0,0,,R_2M3BSrq6ZzSs0t3,2,2024-05-18_17h57.58.730,face trait task,2021.2.3,MacIntel,62.89308176,120533,,,,,,,
,,,,,,4.562450358,3.3392,space,0.3899,0,35,35,47,1,48,image/48.jpg,0,0,,R_2M3BSrq6ZzSs0t3,2,2024-05-18_17h57.58.730,face trait task,2021.2.3,MacIntel,62.89308176,120533,,,,,,,
,,,,,,4.562450358,5.8179,space,0.4139,0,36,36,1,1,2,image/2.jpg,0,0,,R_2M3BSrq6ZzSs0t3,2,2024-05-18_17h57.58.730,face trait task,2021.2.3,MacIntel,62.89308176,120533,,,,,,,
,,,,,,5.5197229,2.7386,space,0.6247,0,37,37,11,1,12,image/12.jpg,0,0,,R_2M3BSrq6ZzSs0t3,2,2024-05-18_17h57.58.730,face trait task,2021.2.3,MacIntel,62.89308176,120533,,,,,,,
,,,,,,2.549573975,4.6522,space,0.3441,0,38,38,16,1,17,image/17.jpg,0,0,,R_2M3BSrq6ZzSs0t3,2,2024-05-18_17h57.58.730,face trait task,2021.2.3,MacIntel,62.89308176,120533,,,,,,,
,,,,,,5.461049398,2.2563,space,0.4889,0,39,39,23,1,24,image/24.jpg,0,0,,R_2M3BSrq6ZzSs0t3,2,2024-05-18_17h57.58.730,face trait task,2021.2.3,MacIntel,62.89308176,120533,,,,,,,
,,,,,,2.54870341,1.575,space,0.4333,0,40,40,39,1,40,image/40.jpg,0,0,,R_2M3BSrq6ZzSs0t3,2,2024-05-18_17h57.58.730,face trait task,2021.2.3,MacIntel,62.89308176,120533,,,,,,,
,,,,,,5.525979004,1.8736,space,0.2541,0,41,41,31,1,32,image/32.jpg,0,0,,R_2M3BSrq6ZzSs0t3,2,2024-05-18_17h57.58.730,face trait task,2021.2.3,MacIntel,62.89308176,120533,,,,,,,
,,,,,,3.359470215,1.5247,space,0.2709,0,42,42,9,1,10,image/10.jpg,0,0,,R_2M3BSrq6ZzSs0t3,2,2024-05-18_17h57.58.730,face trait task,2021.2.3,MacIntel,62.89308176,120533,,,,,,,
,,,,,,5.120555013,1.6394,space,0.3542,0,43,43,49,1,50,image/50.jpg,0,0,,R_2M3BSrq6ZzSs0t3,2,2024-05-18_17h57.58.730,face trait task,2021.2.3,MacIntel,62.89308176,120533,,,,,,,
,,,,,,4.712449951,1.4071,space,0.4231,0,44,44,36,1,37,image/37.jpg,0,0,,R_2M3BSrq6ZzSs0t3,2,2024-05-18_17h57.58.730,face trait task,2021.2.3,MacIntel,62.89308176,120533,,,,,,,
,,,,,,4.341027425,2.3236,space,0.3252,0,45,45,42,1,43,image/43.jpg,0,0,,R_2M3BSrq6ZzSs0t3,2,2024-05-18_17h57.58.730,face trait task,2021.2.3,MacIntel,62.89308176,120533,,,,,,,
,,,,,,5.479997965,1.7568,space,0.2745,0,46,46,4,1,5,image/5.jpg,0,0,,R_2M3BSrq6ZzSs0t3,2,2024-05-18_17h57.58.730,face trait task,2021.2.3,MacIntel,62.89308176,120533,,,,,,,
,,,,,,3.443417155,1.5231,space,0.3348,0,47,47,27,1,28,image/28.jpg,0,0,,R_2M3BSrq6ZzSs0t3,2,2024-05-18_17h57.58.730,face trait task,2021.2.3,MacIntel,62.89308176,120533,,,,,,,
,,,,,,2.674167887,2.1752,space,0.1669,0,48,48,12,1,13,image/13.jpg,0,0,,R_2M3BSrq6ZzSs0t3,2,2024-05-18_17h57.58.730,face trait task,2021.2.3,MacIntel,62.89308176,120533,,,,,,,
,,,,,,2.674167887,1.0555,space,0.5043,0,49,49,25,1,26,image/26.jpg,0,0,,R_2M3BSrq6ZzSs0t3,2,2024-05-18_17h57.58.730,face trait task,2021.2.3,MacIntel,62.89308176,120533,,,,,,,
,,,,,,2.674167887,1.206,space,0.6702,0,50,50,18,1,19,image/19.jpg,0,0,,R_2M3BSrq6ZzSs0t3,2,2024-05-18_17h57.58.730,face trait task,2021.2.3,MacIntel,62.89308176,120533,,,,,,,
,,,,,,3.135233968,1.625,space,1.0706,0,51,51,15,1,16,image/16.jpg,0,0,,R_2M3BSrq6ZzSs0t3,2,2024-05-18_17h57.58.730,face trait task,2021.2.3,MacIntel,62.89308176,120533,,,,,,,
,,,,,,3.135233968,1.1057,space,0.7864,0,52,52,20,1,21,image/21.jpg,0,0,,R_2M3BSrq6ZzSs0t3,2,2024-05-18_17h57.58.730,face trait task,2021.2.3,MacIntel,62.89308176,120533,,,,,,,
,,,,,,,,,,,,,,,,,,,,R_2M3BSrq6ZzSs0t3,2,2024-05-18_17h57.58.730,face trait task,2021.2.3,MacIntel,62.89308176,120533,0,2,2,2,1,2,trustworthy.png
,,,,,competent,3.780142822,1.4841,space,0.3499,0,0,0,27,1,28,image/28.jpg,0,0,,R_2M3BSrq6ZzSs0t3,2,2024-05-18_17h57.58.730,face trait task,2021.2.3,MacIntel,62.89308176,120533,,,,,,,
,,,,,,4.595855306,2.3067,space,0.1683,0,1,1,36,1,37,image/37.jpg,0,0,,R_2M3BSrq6ZzSs0t3,2,2024-05-18_17h57.58.730,face trait task,2021.2.3,MacIntel,62.89308176,120533,,,,,,,
,,,,,,4.582537435,1.1095,space,0.9523,0,2,2,48,1,49,image/49.jpg,0,0,,R_2M3BSrq6ZzSs0t3,2,2024-05-18_17h57.58.730,face trait task,2021.2.3,MacIntel,62.89308176,120533,,,,,,,
,,,,,,4.507738851,1.1571,space,0.5247,0,3,3,46,1,47,image/47.jpg,0,0,,R_2M3BSrq6ZzSs0t3,2,2024-05-18_17h57.58.730,face trait task,2021.2.3,MacIntel,62.89308176,120533,,,,,,,
,,,,,,1.075719401,2.9208,space,0.3516,0,4,4,51,1,54,image/fill_img.png,1,1,Please move the slider all the way to the LEFT to show that you are paying attention.,R_2M3BSrq6ZzSs0t3,2,2024-05-18_17h57.58.730,face trait task,2021.2.3,MacIntel,62.89308176,120533,,,,,,,
,,,,,,2.892525635,2.8206,space,0.2931,0,5,5,38,1,39,image/39.jpg,0,0,,R_2M3BSrq6ZzSs0t3,2,2024-05-18_17h57.58.730,face trait task,2021.2.3,MacIntel,62.89308176,120533,,,,,,,
,,,,,,2.89413208,1.2424,space,0.6256,0,6,6,37,1,38,image/38.jpg,0,0,,R_2M3BSrq6ZzSs0t3,2,2024-05-18_17h57.58.730,face trait task,2021.2.3,MacIntel,62.89308176,120533,,,,,,,
,,,,,,2.89413208,1.9389,space,0.4058,0,7,7,30,1,31,image/31.jpg,0,0,,R_2M3BSrq6ZzSs0t3,2,2024-05-18_17h57.58.730,face trait task,2021.2.3,MacIntel,62.89308176,120533,,,,,,,
,,,,,,4.662161458,2.3234,space,0.3166,0,8,8,22,1,23,image/23.jpg,0,0,,R_2M3BSrq6ZzSs0t3,2,2024-05-18_17h57.58.730,face trait task,2021.2.3,MacIntel,62.89308176,120533,,,,,,,
,,,,,,5.164578451,2.8571,space,0.4341,0,9,9,2,1,3,image/3.jpg,0,0,,R_2M3BSrq6ZzSs0t3,2,2024-05-18_17h57.58.730,face trait task,2021.2.3,MacIntel,62.89308176,120533,,,,,,,
,,,,,,3.468423258,2.0423,space,0.5367,0,10,10,14,1,15,image/15.jpg,0,0,,R_2M3BSrq6ZzSs0t3,2,2024-05-18_17h57.58.730,face trait task,2021.2.3,MacIntel,62.89308176,120533,,,,,,,
,,,,,,4.408364258,1.3558,space,0.3563,0,11,11,40,1,41,image/41.jpg,0,0,,R_2M3BSrq6ZzSs0t3,2,2024-05-18_17h57.58.730,face trait task,2021.2.3,MacIntel,62.89308176,120533,,,,,,,
,,,,,,4.882882487,1.8393,space,0.3713,0,12,12,8,1,9,image/9.jpg,0,0,,R_2M3BSrq6ZzSs0t3,2,2024-05-18_17h57.58.730,face trait task,2021.2.3,MacIntel,62.89308176,120533,,,,,,,
,,,,,,5.252629395,2.0897,space,0.6024,0,13,13,45,1,46,image/46.jpg,0,0,,R_2M3BSrq6ZzSs0t3,2,2024-05-18_17h57.58.730,face trait task,2021.2.3,MacIntel,62.89308176,120533,,,,,,,
,,,,,,5.246543783,1.9891,space,0.3664,0,14,14,49,1,50,image/50.jpg,0,0,,R_2M3BSrq6ZzSs0t3,2,2024-05-18_17h57.58.730,face trait task,2021.2.3,MacIntel,62.89308176,120533,,,,,,,
,,,,,,4.009864095,3.9915,space,0.4035,0,15,15,11,1,12,image/12.jpg,0,0,,R_2M3BSrq6ZzSs0t3,2,2024-05-18_17h57.58.730,face trait task,2021.2.3,MacIntel,62.89308176,120533,,,,,,,
,,,,,,4.009864095,2.0389,space,0.7186,0,16,16,32,1,33,image/33.jpg,0,0,,R_2M3BSrq6ZzSs0t3,2,2024-05-18_17h57.58.730,face trait task,2021.2.3,MacIntel,62.89308176,120533,,,,,,,
,,,,,,3.667683105,1.656,space,0.357,0,17,17,10,1,11,image/11.jpg,0,0,,R_2M3BSrq6ZzSs0t3,2,2024-05-18_17h57.58.730,face trait task,2021.2.3,MacIntel,62.89308176,120533,,,,,,,
,,,,,,1.020805054,3.2155,space,0.513,0,18,18,50,1,52,image/fill_img.png,1,1,Please move the slider all the way to the LEFT to show that you are paying attention.,R_2M3BSrq6ZzSs0t3,2,2024-05-18_17h57.58.730,face trait task,2021.2.3,MacIntel,62.89308176,120533,,,,,,,
,,,,,,1.016745605,2.9918,space,0.4522,0,19,19,52,1,53,image/fill_img.png,1,1,Please move the slider all the way to the LEFT to show that you are paying attention.,R_2M3BSrq6ZzSs0t3,2,2024-05-18_17h57.58.730,face trait task,2021.2.3,MacIntel,62.89308176,120533,,,,,,,
,,,,,,3.228358561,1.9387,space,0.7178,0,20,20,23,1,24,image/24.jpg,0,0,,R_2M3BSrq6ZzSs0t3,2,2024-05-18_17h57.58.730,face trait task,2021.2.3,MacIntel,62.89308176,120533,,,,,,,
,,,,,,3.216070557,2.3558,space,1.3387,0,21,21,1,1,2,image/2.jpg,0,0,,R_2M3BSrq6ZzSs0t3,2,2024-05-18_17h57.58.730,face trait task,2021.2.3,MacIntel,62.89308176,120533,,,,,,,
,,,,,,3.216070557,2.4891,space,0.5916,0,22,22,13,1,14,image/14.jpg,0,0,,R_2M3BSrq6ZzSs0t3,2,2024-05-18_17h57.58.730,face trait task,2021.2.3,MacIntel,62.89308176,120533,,,,,,,
,,,,,,3.216070557,1.6559,space,0.4996,0,23,23,29,1,30,image/30.jpg,0,0,,R_2M3BSrq6ZzSs0t3,2,2024-05-18_17h57.58.730,face trait task,2021.2.3,MacIntel,62.89308176,120533,,,,,,,
,,,,,,3.216070557,1.2065,space,0.3704,0,24,24,39,1,40,image/40.jpg,0,0,,R_2M3BSrq6ZzSs0t3,2,2024-05-18_17h57.58.730,face trait task,2021.2.3,MacIntel,62.89308176,120533,,,,,,,
,,,,,,3.216070557,1.6645,space,0.3765,0,25,25,17,1,18,image/18.jpg,0,0,,R_2M3BSrq6ZzSs0t3,2,2024-05-18_17h57.58.730,face trait task,2021.2.3,MacIntel,62.89308176,120533,,,,,,,
,,,,,,5.514205322,6.6033,space,0.208,0,26,26,34,1,35,image/35.jpg,0,0,,R_2M3BSrq6ZzSs0t3,2,2024-05-18_17h57.58.730,face trait task,2021.2.3,MacIntel,62.89308176,120533,,,,,,,
,,,,,,5.514205322,1.7744,space,0.991,0,27,27,44,1,45,image/45.jpg,0,0,,R_2M3BSrq6ZzSs0t3,2,2024-05-18_17h57.58.730,face trait task,2021.2.3,MacIntel,62.89308176,120533,,,,,,,
,,,,,,4.089800212,2.0225,space,0.3335,0,28,28,28,1,29,image/29.jpg,0,0,,R_2M3BSrq6ZzSs0t3,2,2024-05-18_17h57.58.730,face trait task,2021.2.3,MacIntel,62.89308176,120533,,,,,,,
,,,,,,4.03007487,2.5239,space,0.3557,0,29,29,31,1,32,image/32.jpg,0,0,,R_2M3BSrq6ZzSs0t3,2,2024-05-18_17h57.58.730,face trait task,2021.2.3,MacIntel,62.89308176,120533,,,,,,,
,,,,,,4.03007487,1.3404,space,0.2045,0,30,30,0,1,1,image/1.jpg,0,0,,R_2M3BSrq6ZzSs0t3,2,2024-05-18_17h57.58.730,face trait task,2021.2.3,MacIntel,62.89308176,120533,,,,,,,
,,,,,,4.03007487,1.6061,space,0.4924,0,31,31,6,1,7,image/7.jpg,0,0,,R_2M3BSrq6ZzSs0t3,2,2024-05-18_17h57.58.730,face trait task,2021.2.3,MacIntel,62.89308176,120533,,,,,,,
,,,,,,3.933208822,1.4569,space,0.393,0,32,32,18,1,19,image/19.jpg,0,0,,R_2M3BSrq6ZzSs0t3,2,2024-05-18_17h57.58.730,face trait task,2021.2.3,MacIntel,62.89308176,120533,,,,,,,
,,,,,,3.933208822,1.489,space,0.4199,0,33,33,4,1,5,image/5.jpg,0,0,,R_2M3BSrq6ZzSs0t3,2,2024-05-18_17h57.58.730,face trait task,2021.2.3,MacIntel,62.89308176,120533,,,,,,,
,,,,,,3.933208822,1.4066,space,0.334,0,34,34,47,1,48,image/48.jpg,0,0,,R_2M3BSrq6ZzSs0t3,2,2024-05-18_17h57.58.730,face trait task,2021.2.3,MacIntel,62.89308176,120533,,,,,,,
,,,,,,3.933208822,1.2571,space,0.354,0,35,35,33,1,34,image/34.jpg,0,0,,R_2M3BSrq6ZzSs0t3,2,2024-05-18_17h57.58.730,face trait task,2021.2.3,MacIntel,62.89308176,120533,,,,,,,
,,,,,,3.933208822,1.1404,space,0.3042,0,36,36,20,1,21,image/21.jpg,0,0,,R_2M3BSrq6ZzSs0t3,2,2024-05-18_17h57.58.730,face trait task,2021.2.3,MacIntel,62.89308176,120533,,,,,,,
,,,,,,4.990968018,4.1721,space,0.2392,0,37,37,25,1,26,image/26.jpg,0,0,,R_2M3BSrq6ZzSs0t3,2,2024-05-18_17h57.58.730,face trait task,2021.2.3,MacIntel,62.89308176,120533,,,,,,,
,,,,,,3.085088298,1.889,space,0.2835,0,38,38,19,1,20,image/20.jpg,0,0,,R_2M3BSrq6ZzSs0t3,2,2024-05-18_17h57.58.730,face trait task,2021.2.3,MacIntel,62.89308176,120533,,,,,,,
,,,,,,5.529912923,6.8675,space,0.1888,0,39,39,41,1,42,image/42.jpg,0,0,,R_2M3BSrq6ZzSs0t3,2,2024-05-18_17h57.58.730,face trait task,2021.2.3,MacIntel,62.89308176,120533,,,,,,,
,,,,,,2.006142985,3.4028,space,0.2569,0,40,40,16,1,17,image/17.jpg,0,0,,R_2M3BSrq6ZzSs0t3,2,2024-05-18_17h57.58.730,face trait task,2021.2.3,MacIntel,62.89308176,120533,,,,,,,
,,,,,,4.349417725,1.8071,space,0.3746,0,41,41,7,1,8,image/8.jpg,0,0,,R_2M3BSrq6ZzSs0t3,2,2024-05-18_17h57.58.730,face trait task,2021.2.3,MacIntel,62.89308176,120533,,,,,,,
,,,,,,5.148502197,1.6901,space,0.3199,0,42,42,35,1,36,image/36.jpg,0,0,,R_2M3BSrq6ZzSs0t3,2,2024-05-18_17h57.58.730,face trait task,2021.2.3,MacIntel,62.89308176,120533,,,,,,,
,,,,,,5.148502197,1.4406,space,0.7755,0,43,43,5,1,6,image/6.jpg,0,0,,R_2M3BSrq6ZzSs0t3,2,2024-05-18_17h57.58.730,face trait task,2021.2.3,MacIntel,62.89308176,120533,,,,,,,
,,,,,,5.148502197,1.2233,space,0.8585,0,44,44,43,1,44,image/44.jpg,0,0,,R_2M3BSrq6ZzSs0t3,2,2024-05-18_17h57.58.730,face trait task,2021.2.3,MacIntel,62.89308176,120533,,,,,,,
,,,,,,3.430284831,4.7653,space,0.6873,0,45,45,26,1,27,image/27.jpg,0,0,,R_2M3BSrq6ZzSs0t3,2,2024-05-18_17h57.58.730,face trait task,2021.2.3,MacIntel,62.89308176,120533,,,,,,,
,,,,,,4.050549316,2.9345,space,0.5464,0,46,46,21,1,22,image/22.jpg,0,0,,R_2M3BSrq6ZzSs0t3,2,2024-05-18_17h57.58.730,face trait task,2021.2.3,MacIntel,62.89308176,120533,,,,,,,
,,,,,,4.050549316,1.2234,space,0.927,0,47,47,3,1,4,image/4.jpg,0,0,,R_2M3BSrq6ZzSs0t3,2,2024-05-18_17h57.58.730,face trait task,2021.2.3,MacIntel,62.89308176,120533,,,,,,,
,,,,,,4.050549316,1.3058,space,0.367,0,48,48,24,1,25,image/25.jpg,0,0,,R_2M3BSrq6ZzSs0t3,2,2024-05-18_17h57.58.730,face trait task,2021.2.3,MacIntel,62.89308176,120533,,,,,,,
,,,,,,4.450989176,3.0681,space,0.2761,0,49,49,12,1,13,image/13.jpg,0,0,,R_2M3BSrq6ZzSs0t3,2,2024-05-18_17h57.58.730,face trait task,2021.2.3,MacIntel,62.89308176,120533,,,,,,,
,,,,,,4.228934733,0.957,space,0.4339,0,50,50,42,1,43,image/43.jpg,0,0,,R_2M3BSrq6ZzSs0t3,2,2024-05-18_17h57.58.730,face trait task,2021.2.3,MacIntel,62.89308176,120533,,,,,,,
,,,,,,4.228934733,2.0073,space,0.3553,0,51,51,9,1,10,image/10.jpg,0,0,,R_2M3BSrq6ZzSs0t3,2,2024-05-18_17h57.58.730,face trait task,2021.2.3,MacIntel,62.89308176,120533,,,,,,,
,,,,,,3.498131104,5.4866,space,0.4066,0,52,52,15,1,16,image/16.jpg,0,0,,R_2M3BSrq6ZzSs0t3,2,2024-05-18_17h57.58.730,face trait task,2021.2.3,MacIntel,62.89308176,120533,,,,,,,
,,,,,,,,,,,,,,,,,,,,R_2M3BSrq6ZzSs0t3,2,2024-05-18_17h57.58.730,face trait task,2021.2.3,MacIntel,62.89308176,120533,0,3,3,1,1,1,competent.png
