chooserow,ParID,pre_instru_resp_2.keys,pre_instru_resp_2.rt,pre_instru_resp_3.keys,pre_instru_resp_3.rt,pre_instru_resp_9.keys,pre_instru_resp_9.rt,pre_instru_resp_8.keys,pre_instru_resp_8.rt,pre_instru_resp_4.keys,pre_instru_resp_4.rt,pre_instru_resp_5.keys,pre_instru_resp_5.rt,pre_instru_resp_6.keys,pre_instru_resp_6.rt,key_resp_3.keys,key_resp_3.rt,key_resp_4.keys,key_resp_4.rt,key_resp_5.keys,key_resp_5.rt,key_resp_6.keys,key_resp_6.rt,key_resp_7.keys,key_resp_7.rt,trials_2.thisRepN,trials_2.thisTrialN,trials_2.thisN,trials_2.thisIndex,trials_2.ran,participant,session,date,expName,psychopyVersion,OS,frameRate,SONAid,pre_instru_resp.keys,pre_instru_resp.rt,clicked,judge_2.x,judge_2.y,judge_2.leftButton,judge_2.midButton,judge_2.rightButton,trials.thisRepN,trials.thisTrialN,trials.thisN,trials.thisIndex,trials.ran,prac_answer,prac_dot_sti,dotlefttext,dotrighttext,judge_2.clicked_name,prac_acc,judge.x,judge.y,judge.leftButton,judge.midButton,judge.rightButton,judge.clicked_name,clicked_guilt,slider_guilt.response,slider_guilt.rt,key_guilt.keys,share_slider.response,share_slider.rt,key_share.keys,slider_apology.response,slider_apology.rt,key_apology.keys,slider_hide.response,slider_hide.rt,slider_forgiveness.response,slider_forgiveness.rt,key_forgiveness.keys,key_forgiveness.rt,slider_mad.response,slider_mad.rt,trialseq.thisRepN,trialseq.thisTrialN,trialseq.thisN,trialseq.thisIndex,trialseq.ran,type_trial,stipic,DV,picture,answer,number,key_apology.rt,key_share.rt,key_guilt.rt,incompleteTrials,trials_redo.thisRepN,trials_redo.thisTrialN,trials_redo.thisN,trials_redo.thisIndex,trials_redo.ran
"[138,80,64,183,173,61,153,161,159,150,100,110,95,203,111,158,56,28,113,58,17,45,125,188,75,91,104,140,85,11,53,169,182,146,120,67,130,107,194,177,132,82]",R_2M3BSrq6ZzSs0t3,space,1.3148,space,1.6491,space,11.2004,space,10.2023,space,13.462,space,14.1458,space,0.8293,2,8.5344,1,9.0078,2,8.9717,2,5.0927,2,1.732,0,0,0,0,1,R_2M3BSrq6ZzSs0t3,1,2024-05-18_17h41.23.560,interaction task,2021.2.3,MacIntel,61.72839506,120533,,,,,,,,,,,,,,,,,,,,,,,,,,,,,,,,,,,,,,,,,,,,,,,,,,,,,,,,,,,,,,,
,,,,space,1.0949,space,6.1486,space,4.8658,space,0.7334,space,4.7486,space,0.3336,3,2.3839,3,6.2994,3,4.2666,2,1.3351,2,0.4008,1,0,1,0,1,R_2M3BSrq6ZzSs0t3,1,2024-05-18_17h41.23.560,interaction task,2021.2.3,MacIntel,61.72839506,120533,,,,,,,,,,,,,,,,,,,,,,,,,,,,,,,,,,,,,,,,,,,,,,,,,,,,,,,,,,,,,,,
,,,,space,0.0535,space,0.0589,space,0.1177,space,0.1679,space,0.0379,space,0.1021,3,2.7666,2,2.7696,3,4.0015,2,1.1181,2,0.808,2,0,2,0,1,R_2M3BSrq6ZzSs0t3,1,2024-05-18_17h41.23.560,interaction task,2021.2.3,MacIntel,61.72839506,120533,,,,,,,,,,,,,,,,,,,,,,,,,,,,,,,,,,,,,,,,,,,,,,,,,,,,,,,,,,,,,,,
,,,,space,0.218,space,9.7842,space,5.3343,space,0.4856,space,1.2839,space,0.8229,3,1.3719,1,2.0002,3,2.7048,2,1.7194,2,0.4549,3,0,3,0,1,R_2M3BSrq6ZzSs0t3,1,2024-05-18_17h41.23.560,interaction task,2021.2.3,MacIntel,61.72839506,120533,,,,,,,,,,,,,,,,,,,,,,,,,,,,,,,,,,,,,,,,,,,,,,,,,,,,,,,,,,,,,,,
,,,,,,,,,,,,,,,,,,,,,,,,,,,,,,,R_2M3BSrq6ZzSs0t3,1,2024-05-18_17h41.23.560,interaction task,2021.2.3,MacIntel,61.72839506,120533,space,3.1073,[],0.077009413,-0.378882378,0,0,0,0,0,0,0,1,RightButton_2,11dot2.png,Smaller,Greater,,,,,,,,,,,,,,,,,,,,,,,,,,,,,,,,,,,,,,,,,,,,,,
,,,,,,,,,,,,,,,,,,,,,,,,,,,,,,,R_2M3BSrq6ZzSs0t3,1,2024-05-18_17h41.23.560,interaction task,2021.2.3,MacIntel,61.72839506,120533,,,"[""RightButton_2""]",0.269600169,-0.323141547,1,0,0,0,1,1,2,1,LeftButton_2,11dot1.png,Greater,Smaller,RightButton_2,,,,,,,,,,,,,,,,,,,,,,,,,,,,,,,,,,,,,,,,,,,,,
,,,,,,,,,,,,,,,,,,,,,,,,,,,,,,,R_2M3BSrq6ZzSs0t3,1,2024-05-18_17h41.23.560,interaction task,2021.2.3,MacIntel,61.72839506,120533,,,"[""RightButton_2""]",0.265238529,-0.290784641,1,0,0,0,2,2,1,1,RightButton_2,9dot1.png,Greater,Smaller,RightButton_2,,,,,,,,,,,,,,,,,,,,,,,,,,,,,,,,,,,,,,,,,,,,,
,,,,,,,,,,,,,,,,,,,,,,,,,,,,,,,R_2M3BSrq6ZzSs0t3,1,2024-05-18_17h41.23.560,interaction task,2021.2.3,MacIntel,61.72839506,120533,,,,,,,,,,,,,,,,Smaller,Greater,,0.2,0.274435679,-0.531754557,1,0,0,RightButton,"[""RightButton""]",,,,,,,,,,,,100,7.3976,space,1.8167,0,13.4981,0,0,0,0,1,2,only_sub_right.png,3,RandomDot25.png,No answer,21,,,,,,,,,
,,,,,,,,,,,,,,,,,,,,,,,,,,,,,,,R_2M3BSrq6ZzSs0t3,1,2024-05-18_17h41.23.560,interaction task,2021.2.3,MacIntel,61.72839506,120533,,,,,,,,,,,,,,,,Smaller,Greater,,,0.327114275,-0.507010227,1,0,0,RightButton,"[""RightButton""]",,,,,,,35,8.1717,space,80,15.8168,,,,,,,0,1,1,1,1,1,both_wrong.png,2,RandomDot8.png,No answer,20,4.1835,,,,,,,,
,,,,,,,,,,,,,,,,,,,,,,,,,,,,,,,R_2M3BSrq6ZzSs0t3,1,2024-05-18_17h41.23.560,interaction task,2021.2.3,MacIntel,61.72839506,120533,,,,,,,,,,,,,,,,Greater,Smaller,,,-0.271829987,-0.508898926,1,0,0,LeftButton,"[""LeftButton""]",,,,4.997751024,7.7382,space,,,,,,,,,,,,0,2,2,2,1,1,both_wrong.png,1,RandomDot6.png,No answer,20,,1.2995,,,,,,,
,,,,,,,,,,,,,,,,,,,,,,,,,,,,,,,R_2M3BSrq6ZzSs0t3,1,2024-05-18_17h41.23.560,interaction task,2021.2.3,MacIntel,61.72839506,120533,,,,,,,,,,,,,,,,Greater,Smaller,,,-0.288362545,-0.508956163,1,0,0,LeftButton,"[""LeftButton""]",,,,,,,,,,,,26.6647219,8.5123,space,2.0343,18.55140027,7.4284,0,3,3,3,1,3,only_sub_wrong.png,3,RandomDot17.png,No answer,19,,,,,,,,,
,,,,,,,,,,,,,,,,,,,,,,,,,,,,,,,R_2M3BSrq6ZzSs0t3,1,2024-05-18_17h41.23.560,interaction task,2021.2.3,MacIntel,61.72839506,120533,,,,,,,,,,,,,,,,Greater,Smaller,,,0.260256873,-0.521548801,1,0,0,RightButton,"[""RightButton""]",,,,,,,33,5.9732,space,81,10.5567,,,,,,,0,4,4,4,1,3,only_sub_wrong.png,2,RandomDot20.png,No answer,19,1.1701,,,,,,,,
,,,,,,,,,,,,,,,,,,,,,,,,,,,,,,,R_2M3BSrq6ZzSs0t3,1,2024-05-18_17h41.23.560,interaction task,2021.2.3,MacIntel,61.72839506,120533,,,,,,,,,,,,,,,,Greater,Smaller,,,0.275948334,-0.499874403,1,0,0,RightButton,"[""RightButton""]",,,,4.457291497,1.995,space,,,,,,,,,,,,0,5,5,5,1,1,both_wrong.png,1,RandomDot23.png,No answer,21,,1.1895,,,,,,,
,,,,,,,,,,,,,,,,,,,,,,,,,,,,,,,R_2M3BSrq6ZzSs0t3,1,2024-05-18_17h41.23.560,interaction task,2021.2.3,MacIntel,61.72839506,120533,,,,,,,,,,,,,,,,Smaller,Greater,,,0.338969676,-0.51537774,1,0,0,RightButton,"[""RightButton""]",33,5.9245,space,,,,,,,,,,,,,,,0,6,6,6,1,3,only_sub_wrong.png,0,RandomDot25.png,No answer,20,,,3.3843,,,,,,
,,,,,,,,,,,,,,,,,,,,,,,,,,,,,,,R_2M3BSrq6ZzSs0t3,1,2024-05-18_17h41.23.560,interaction task,2021.2.3,MacIntel,61.72839506,120533,,,,,,,,,,,,,,,,Greater,Smaller,,,-0.298702198,-0.528947618,1,0,0,LeftButton,"[""LeftButton""]",,,,4.375991821,4.3569,space,,,,,,,,,,,,0,7,7,7,1,3,only_sub_wrong.png,1,RandomDot36.png,No answer,19,,1.5511,,,,,,,
,,,,,,,,,,,,,,,,,,,,,,,,,,,,,,,R_2M3BSrq6ZzSs0t3,1,2024-05-18_17h41.23.560,interaction task,2021.2.3,MacIntel,61.72839506,120533,,,,,,,,,,,,,,,,Greater,Smaller,,,0.241591644,-0.544525825,1,0,0,RightButton,"[""RightButton""]",,,,2.353020138,2.3402,space,,,,,,,,,,,,0,8,8,8,1,3,only_sub_wrong.png,1,RandomDot11.png,No answer,20,,0.6175,,,,,,,
,,,,,,,,,,,,,,,,,,,,,,,,,,,,,,,R_2M3BSrq6ZzSs0t3,1,2024-05-18_17h41.23.560,interaction task,2021.2.3,MacIntel,61.72839506,120533,,,,,,,,,,,,,,,,Smaller,Greater,,,-0.303306368,-0.459416504,1,0,0,LeftButton,"[""LeftButton""]",28,3.0917,space,,,,,,,,,,,,,,,0,9,9,9,1,3,only_sub_wrong.png,0,RandomDot16.png,No answer,21,,,0.36,,,,,,
,,,,,,,,,,,,,,,,,,,,,,,,,,,,,,,R_2M3BSrq6ZzSs0t3,1,2024-05-18_17h41.23.560,interaction task,2021.2.3,MacIntel,61.72839506,120533,,,,,,,,,,,,,,,,Greater,Smaller,,,0.224510871,-0.52161065,1,0,0,RightButton,"[""RightButton""]",6,3.7085,space,,,,,,,,,,,,,,,0,10,10,10,1,2,only_sub_right.png,0,RandomDot33.png,No answer,21,,,0.7344,,,,,,
,,,,,,,,,,,,,,,,,,,,,,,,,,,,,,,R_2M3BSrq6ZzSs0t3,1,2024-05-18_17h41.23.560,interaction task,2021.2.3,MacIntel,61.72839506,120533,,,,,,,,,,,,,,,,Greater,Smaller,,,-0.291981294,-0.49738756,1,0,0,LeftButton,"[""LeftButton""]",,,,2.732867347,3.734,space,,,,,,,,,,,,0,11,11,11,1,2,only_sub_right.png,1,RandomDot6.png,No answer,21,,0.0684,,,,,,,
,,,,,,,,,,,,,,,,,,,,,,,,,,,,,,,R_2M3BSrq6ZzSs0t3,1,2024-05-18_17h41.23.560,interaction task,2021.2.3,MacIntel,61.72839506,120533,,,,,,,,,,,,,,,,Smaller,Greater,,,0.269066705,-0.517491319,1,0,0,RightButton,"[""RightButton""]",,,,,,,,,,,,26.78990905,1.4553,space,0.5514,41.62206853,2.5727,0,12,12,12,1,1,both_wrong.png,3,RandomDot12.png,No answer,19,,,,,,,,,
,,,,,,,,,,,,,,,,,,,,,,,,,,,,,,,R_2M3BSrq6ZzSs0t3,1,2024-05-18_17h41.23.560,interaction task,2021.2.3,MacIntel,61.72839506,120533,,,,,,,,,,,,,,,,Smaller,Greater,,,-0.299207391,-0.471117757,1,0,0,LeftButton,"[""LeftButton""]",,,,,,,,,,,,,,,,,,0,13,13,13,1,5,both_right.png,10,RandomDot42.png,LeftButton,21,,,,,,,,,
,,,,,,,,,,,,,,,,,,,,,,,,,,,,,,,R_2M3BSrq6ZzSs0t3,1,2024-05-18_17h41.23.560,interaction task,2021.2.3,MacIntel,61.72839506,120533,,,,,,,,,,,,,,,,Greater,Smaller,,,-0.249507056,-0.495174018,1,0,0,LeftButton,"[""LeftButton""]",,,,1.367359161,3.4072,space,,,,,,,,,,,,0,14,14,14,1,2,only_sub_right.png,1,RandomDot4.png,No answer,19,,2.2681,,,,,,,
,,,,,,,,,,,,,,,,,,,,,,,,,,,,,,,R_2M3BSrq6ZzSs0t3,1,2024-05-18_17h41.23.560,interaction task,2021.2.3,MacIntel,61.72839506,120533,,,,,,,,,,,,,,,,Greater,Smaller,,,0.309501224,-0.51184828,1,0,0,RightButton,"[""RightButton""]",,,,1.144594404,1.7417,space,,,,,,,,,,,,0,15,15,15,1,3,only_sub_wrong.png,1,RandomDot1.png,No answer,19,,1.1839,,,,,,,
,,,,,,,,,,,,,,,,,,,,,,,,,,,,,,,R_2M3BSrq6ZzSs0t3,1,2024-05-18_17h41.23.560,interaction task,2021.2.3,MacIntel,61.72839506,120533,,,,,,,,,,,,,,,,Smaller,Greater,,,-0.329702928,-0.502577989,1,0,0,LeftButton,"[""LeftButton""]",34,2.05,space,,,,,,,,,,,,,,,0,16,16,16,1,1,both_wrong.png,0,RandomDot39.png,No answer,21,,,0.1334,,,,,,
,,,,,,,,,,,,,,,,,,,,,,,,,,,,,,,R_2M3BSrq6ZzSs0t3,1,2024-05-18_17h41.23.560,interaction task,2021.2.3,MacIntel,61.72839506,120533,,,,,,,,,,,,,,,,Greater,Smaller,,,-0.290779114,-0.541109077,1,0,0,LeftButton,"[""LeftButton""]",,,,,,,,,,,,,,,,,,0,17,17,17,1,0,both_right.png,2,RandomDot23.png,No answer,19,,,,,,,,,
,,,,,,,,,,,,,,,,,,,,,,,,,,,,,,,R_2M3BSrq6ZzSs0t3,1,2024-05-18_17h41.23.560,interaction task,2021.2.3,MacIntel,61.72839506,120533,,,,,,,,,,,,,,,,Greater,Smaller,,,-0.262762027,-0.472338732,1,0,0,LeftButton,"[""LeftButton""]",,,,1.344638824,2.0781,space,,,,,,,,,,,,0,18,18,18,1,2,only_sub_right.png,1,RandomDot3.png,No answer,20,,0.3363,,,,,,,
,,,,,,,,,,,,,,,,,,,,,,,,,,,,,,,R_2M3BSrq6ZzSs0t3,1,2024-05-18_17h41.23.560,interaction task,2021.2.3,MacIntel,61.72839506,120533,,,,,,,,,,,,,,,,Smaller,Greater,,,0.18418969,-0.537173394,1,0,0,RightButton,"[""RightButton""]",28,1.8067,space,,,,,,,,,,,,,,,0,19,19,19,1,1,both_wrong.png,0,RandomDot34.png,No answer,19,,,2.3662,,,,,,
,,,,,,,,,,,,,,,,,,,,,,,,,,,,,,,R_2M3BSrq6ZzSs0t3,1,2024-05-18_17h41.23.560,interaction task,2021.2.3,MacIntel,61.72839506,120533,,,,,,,,,,,,,,,,Greater,Smaller,,,0.245935737,-0.544452989,1,0,0,RightButton,"[""RightButton""]",,,,,,,,,,,,,,,,,,0,20,20,20,1,0,both_right.png,1,RandomDot7.png,No answer,21,,,,,,,,,
,,,,,,,,,,,,,,,,,,,,,,,,,,,,,,,R_2M3BSrq6ZzSs0t3,1,2024-05-18_17h41.23.560,interaction task,2021.2.3,MacIntel,61.72839506,120533,,,,,,,,,,,,,,,,Smaller,Greater,,,-0.334021293,-0.501117893,1,0,0,LeftButton,"[""LeftButton""]",,,,,,,,,,,,,,,,,,0,21,21,21,1,0,both_right.png,3,RandomDot13.png,No answer,20,,,,,,,,,
,,,,,,,,,,,,,,,,,,,,,,,,,,,,,,,R_2M3BSrq6ZzSs0t3,1,2024-05-18_17h41.23.560,interaction task,2021.2.3,MacIntel,61.72839506,120533,,,,,,,,,,,,,,,,Greater,Smaller,,,-0.301146486,-0.516250678,1,0,0,LeftButton,"[""LeftButton""]",,,,,,,36,3.258,space,17,4.3077,,,,,,,0,22,22,22,1,2,only_sub_right.png,2,RandomDot36.png,No answer,21,0.6196,,,,,,,,
,,,,,,,,,,,,,,,,,,,,,,,,,,,,,,,R_2M3BSrq6ZzSs0t3,1,2024-05-18_17h41.23.560,interaction task,2021.2.3,MacIntel,61.72839506,120533,,,,,,,,,,,,,,,,Smaller,Greater,,,-0.325058873,-0.535059543,1,0,0,LeftButton,"[""LeftButton""]",,,,,,,,,,,,29.0645304,4.3548,space,0.3006,27.55975862,5.1204,0,23,23,23,1,3,only_sub_wrong.png,3,RandomDot22.png,No answer,21,,,,,,,,,
,,,,,,,,,,,,,,,,,,,,,,,,,,,,,,,R_2M3BSrq6ZzSs0t3,1,2024-05-18_17h41.23.560,interaction task,2021.2.3,MacIntel,61.72839506,120533,,,,,,,,,,,,,,,,Greater,Smaller,,,-0.250416989,-0.525717502,1,0,0,LeftButton,"[""LeftButton""]",,,,,,,18,10.6558,space,33,9.5519,,,,,,,0,24,24,24,1,1,both_wrong.png,2,RandomDot10.png,No answer,20,0.0679,,,,,,,,
,,,,,,,,,,,,,,,,,,,,,,,,,,,,,,,R_2M3BSrq6ZzSs0t3,1,2024-05-18_17h41.23.560,interaction task,2021.2.3,MacIntel,61.72839506,120533,,,,,,,,,,,,,,,,Smaller,Greater,,,-0.313802338,-0.53559299,1,0,0,LeftButton,"[""LeftButton""]",,,,,,,,,,,,23.98343926,2.8048,space,0.1537,32.08804832,1.4382,0,25,25,25,1,1,both_wrong.png,3,RandomDot23.png,No answer,20,,,,,,,,,
,,,,,,,,,,,,,,,,,,,,,,,,,,,,,,,R_2M3BSrq6ZzSs0t3,1,2024-05-18_17h41.23.560,interaction task,2021.2.3,MacIntel,61.72839506,120533,,,,,,,,,,,,,,,,Smaller,Greater,,,-0.257563951,0.262773166,0,0,0,,[],,,,,,,,,,,,,,,,,,0,26,26,26,1,2,only_sub_right.png,0,RandomDot29.png,No answer,20,,,,104,,,,,
,,,,,,,,,,,,,,,,,,,,,,,,,,,,,,,R_2M3BSrq6ZzSs0t3,1,2024-05-18_17h41.23.560,interaction task,2021.2.3,MacIntel,61.72839506,120533,,,,,,,,,,,,,,,,Smaller,Greater,,,0.307926008,-0.523916558,1,0,0,RightButton,"[""RightButton""]",,,,,,,,,,,,11.05553727,2.5901,space,0.1004,30.37303578,1.407,0,27,27,27,1,2,only_sub_right.png,3,RandomDot8.png,No answer,19,,,,,,,,,
,,,,,,,,,,,,,,,,,,,,,,,,,,,,,,,R_2M3BSrq6ZzSs0t3,1,2024-05-18_17h41.23.560,interaction task,2021.2.3,MacIntel,61.72839506,120533,,,,,,,,,,,,,,,,Greater,Smaller,,,-0.330023702,-0.54035414,1,0,0,LeftButton,"[""LeftButton""]",,,,,,,,,,,,25.66405531,2.5019,space,0.2669,17.12114139,1.3708,0,28,28,28,1,1,both_wrong.png,3,RandomDot40.png,No answer,21,,,,,,,,,
,,,,,,,,,,,,,,,,,,,,,,,,,,,,,,,R_2M3BSrq6ZzSs0t3,1,2024-05-18_17h41.23.560,interaction task,2021.2.3,MacIntel,61.72839506,120533,,,,,,,,,,,,,,,,Smaller,Greater,,,0.259662628,-0.540474175,1,0,0,RightButton,"[""RightButton""]",,,,,,,,,,,,,,,,,,0,29,29,29,1,0,both_right.png,0,RandomDot38.png,No answer,21,,,,,,,,,
,,,,,,,,,,,,,,,,,,,,,,,,,,,,,,,R_2M3BSrq6ZzSs0t3,1,2024-05-18_17h41.23.560,interaction task,2021.2.3,MacIntel,61.72839506,120533,,,,,,,,,,,,,,,,Greater,Smaller,,,0.280481381,-0.518918728,1,0,0,RightButton,"[""RightButton""]",11,1.8574,space,,,,,,,,,,,,,,,0,30,30,30,1,1,both_wrong.png,0,RandomDot32.png,No answer,19,,,0.3337,,,,,,
,,,,,,,,,,,,,,,,,,,,,,,,,,,,,,,R_2M3BSrq6ZzSs0t3,1,2024-05-18_17h41.23.560,interaction task,2021.2.3,MacIntel,61.72839506,120533,,,,,,,,,,,,,,,,Greater,Smaller,,,-0.306585566,-0.541847331,1,0,0,LeftButton,"[""LeftButton""]",,,,,,,20,2.6397,space,31,3.7553,,,,,,,0,31,31,31,1,3,only_sub_wrong.png,2,RandomDot1.png,No answer,20,0.2517,,,,,,,,
,,,,,,,,,,,,,,,,,,,,,,,,,,,,,,,R_2M3BSrq6ZzSs0t3,1,2024-05-18_17h41.23.560,interaction task,2021.2.3,MacIntel,61.72839506,120533,,,,,,,,,,,,,,,,Greater,Smaller,,,0.253923967,-0.546119927,1,0,0,,[],,,,,,,,,,,,,,,,,,0,32,32,32,1,3,only_sub_wrong.png,3,RandomDot8.png,No answer,21,,,,182,,,,,
,,,,,,,,,,,,,,,,,,,,,,,,,,,,,,,R_2M3BSrq6ZzSs0t3,1,2024-05-18_17h41.23.560,interaction task,2021.2.3,MacIntel,61.72839506,120533,,,,,,,,,,,,,,,,Greater,Smaller,,,-0.310079066,-0.498037652,1,0,0,LeftButton,"[""LeftButton""]",11,1.76,space,,,,,,,,,,,,,,,0,33,33,33,1,3,only_sub_wrong.png,0,RandomDot38.png,No answer,21,,,0.2687,,,,,,
,,,,,,,,,,,,,,,,,,,,,,,,,,,,,,,R_2M3BSrq6ZzSs0t3,1,2024-05-18_17h41.23.560,interaction task,2021.2.3,MacIntel,61.72839506,120533,,,,,,,,,,,,,,,,Greater,Smaller,,,-0.324234221,-0.501375461,1,0,0,LeftButton,"[""LeftButton""]",,,,,,,12,1.7547,space,22,2.6556,,,,,,,0,34,34,34,1,2,only_sub_right.png,2,RandomDot21.png,No answer,21,0.3654,,,,,,,,
,,,,,,,,,,,,,,,,,,,,,,,,,,,,,,,R_2M3BSrq6ZzSs0t3,1,2024-05-18_17h41.23.560,interaction task,2021.2.3,MacIntel,61.72839506,120533,,,,,,,,,,,,,,,,Smaller,Greater,,,-0.343473265,-0.522074653,1,0,0,LeftButton,"[""LeftButton""]",,,,1.109884474,3.8202,space,,,,,,,,,,,,0,35,35,35,1,1,both_wrong.png,1,RandomDot17.png,No answer,20,,0.0161,,,,,,,
,,,,,,,,,,,,,,,,,,,,,,,,,,,,,,,R_2M3BSrq6ZzSs0t3,1,2024-05-18_17h41.23.560,interaction task,2021.2.3,MacIntel,61.72839506,120533,,,,,,,,,,,,,,,,Smaller,Greater,,,-0.286019389,-0.514115804,1,0,0,LeftButton,"[""LeftButton""]",,,,,,,18,30.9899,space,21,32.139,,,,,,,0,36,36,36,1,2,only_sub_right.png,2,RandomDot8.png,No answer,21,0.0843,,,,,,,,
,,,,,,,,,,,,,,,,,,,,,,,,,,,,,,,R_2M3BSrq6ZzSs0t3,1,2024-05-18_17h41.23.560,interaction task,2021.2.3,MacIntel,61.72839506,120533,,,,,,,,,,,,,,,,Smaller,Greater,,,0.255376604,-0.468061659,1,0,0,RightButton,"[""RightButton""]",12,1.2944,space,,,,,,,,,,,,,,,0,37,37,37,1,2,only_sub_right.png,0,RandomDot37.png,No answer,21,,,0.1672,,,,,,
,,,,,,,,,,,,,,,,,,,,,,,,,,,,,,,R_2M3BSrq6ZzSs0t3,1,2024-05-18_17h41.23.560,interaction task,2021.2.3,MacIntel,61.72839506,120533,,,,,,,,,,,,,,,,Greater,Smaller,,,-0.340718757,-0.538407389,1,0,0,LeftButton,"[""LeftButton""]",,,,,,,,,,,,,,,,,,0,38,38,38,1,4,both_right.png,10,RandomDot41.png,LeftButton,5,,,,,,,,,
,,,,,,,,,,,,,,,,,,,,,,,,,,,,,,,R_2M3BSrq6ZzSs0t3,1,2024-05-18_17h41.23.560,interaction task,2021.2.3,MacIntel,61.72839506,120533,,,,,,,,,,,,,,,,Smaller,Greater,,,0.325614675,-0.467808024,1,0,0,RightButton,"[""RightButton""]",,,,,,,10,1.5384,space,14,2.4727,,,,,,,0,39,39,39,1,3,only_sub_wrong.png,2,RandomDot31.png,No answer,19,1.0681,,,,,,,,
,,,,,,,,,,,,,,,,,,,,,,,,,,,,,,,R_2M3BSrq6ZzSs0t3,1,2024-05-18_17h41.23.560,interaction task,2021.2.3,MacIntel,61.72839506,120533,,,,,,,,,,,,,,,,Greater,Smaller,,,0.266218058,-0.512246908,1,0,0,RightButton,"[""RightButton""]",,,,,,,,,,,,30.66518764,1.7201,space,0.2522,13.27469352,2.5372,0,40,40,40,1,2,only_sub_right.png,3,RandomDot20.png,No answer,21,,,,,,,,,
,,,,,,,,,,,,,,,,,,,,,,,,,,,,,,,R_2M3BSrq6ZzSs0t3,1,2024-05-18_17h41.23.560,interaction task,2021.2.3,MacIntel,61.72839506,120533,,,,,,,,,,,,,,,,Smaller,Greater,,,-0.276938968,-0.536068251,1,0,0,LeftButton,"[""LeftButton""]",,,,,,,4,1.7255,space,7,2.6746,,,,,,,0,41,41,41,1,1,both_wrong.png,2,RandomDot7.png,No answer,21,0.3513,,,,,,,,
,,,,,,,,,,,,,,,,,,,,,,,,,,,,,,,R_2M3BSrq6ZzSs0t3,1,2024-05-18_17h41.23.560,interaction task,2021.2.3,MacIntel,61.72839506,120533,,,,,,,,,,,,,,,,Smaller,Greater,,,-0.342673959,-0.521907823,1,0,0,LeftButton,"[""LeftButton""]",3,2.291,space,,,,,,,,,,,,,,,,,,,,2,only_sub_right.png,0,RandomDot29.png,No answer,20,,,0.7177,,0,0,0,0,1
,,,,,,,,,,,,,,,,,,,,,,,,,,,,,,,R_2M3BSrq6ZzSs0t3,1,2024-05-18_17h41.23.560,interaction task,2021.2.3,MacIntel,61.72839506,120533,,,,,,,,,,,,,,,,Greater,Smaller,,,-0.319699563,-0.502479926,1,0,0,LeftButton,"[""LeftButton""]",,,,,,,,,,,,10.53666137,1.5901,space,0.1016,10.32005421,2.4238,,,,,,3,only_sub_wrong.png,3,RandomDot8.png,No answer,21,,,,,0,1,1,1,1
