chooserow,ParID,pre_instru_resp_2.keys,pre_instru_resp_2.rt,pre_instru_resp_3.keys,pre_instru_resp_3.rt,pre_instru_resp_9.keys,pre_instru_resp_9.rt,pre_instru_resp_8.keys,pre_instru_resp_8.rt,pre_instru_resp_4.keys,pre_instru_resp_4.rt,pre_instru_resp_5.keys,pre_instru_resp_5.rt,pre_instru_resp_6.keys,pre_instru_resp_6.rt,key_resp_3.keys,key_resp_3.rt,key_resp_4.keys,key_resp_4.rt,key_resp_5.keys,key_resp_5.rt,key_resp_6.keys,key_resp_6.rt,key_resp_7.keys,key_resp_7.rt,trials_2.thisRepN,trials_2.thisTrialN,trials_2.thisN,trials_2.thisIndex,trials_2.ran,participant,session,date,expName,psychopyVersion,OS,frameRate,SONAid,pre_instru_resp.keys,pre_instru_resp.rt,clicked,judge_2.x,judge_2.y,judge_2.leftButton,judge_2.midButton,judge_2.rightButton,trials.thisRepN,trials.thisTrialN,trials.thisN,trials.thisIndex,trials.ran,prac_answer,prac_dot_sti,dotlefttext,dotrighttext,judge_2.clicked_name,prac_acc,judge.x,judge.y,judge.leftButton,judge.midButton,judge.rightButton,judge.clicked_name,clicked_guilt,slider_guilt.response,slider_guilt.rt,key_guilt.keys,key_guilt.rt,share_slider.response,share_slider.rt,key_share.keys,slider_apology.response,slider_apology.rt,key_apology.keys,slider_hide.response,slider_hide.rt,slider_forgiveness.response,slider_forgiveness.rt,key_forgiveness.keys,slider_mad.response,slider_mad.rt,trialseq.thisRepN,trialseq.thisTrialN,trialseq.thisN,trialseq.thisIndex,trialseq.ran,type_trial,stipic,DV,picture,answer,number,key_apology.rt,key_forgiveness.rt,key_share.rt,incompleteTrials,trials_redo.thisRepN,trials_redo.thisTrialN,trials_redo.thisN,trials_redo.thisIndex,trials_redo.ran
"[155,124,200,138,38,192,65,189,118,74,88,63,97,169,171,102,168,89,62,75,136,96,59,180,72,54,144,129,159,10,12,184,151,123,93,32,132,113,158,49,157,114]",R_31XdkdkFfWXTP68,space,14.9064,space,1.0112,space,0.4571,space,0.3613,space,0.7139,space,11.575,space,0.4738,1,4.4591,2,2.6591,1,1.5265,2,7.2342,3,3.7138,0,0,0,0,1,R_31XdkdkFfWXTP68,1,2024-05-25_16h00.03.236,interaction task,2021.2.3,Win32,119.047619,120326,,,,,,,,,,,,,,,,,,,,,,,,,,,,,,,,,,,,,,,,,,,,,,,,,,,,,,,,,,,,,,,
,,,,space,0.6841,space,0.495,space,0.347,space,0.4709,space,0.5583,space,0.2655,2,1.8512,2,2.9232,3,1.1352,3,0.152,2,1.0276,1,0,1,0,1,R_31XdkdkFfWXTP68,1,2024-05-25_16h00.03.236,interaction task,2021.2.3,Win32,119.047619,120326,,,,,,,,,,,,,,,,,,,,,,,,,,,,,,,,,,,,,,,,,,,,,,,,,,,,,,,,,,,,,,,
,,,,space,0.7979,space,0.3069,space,0.2967,space,0.4584,space,0.6137,space,0.3251,3,2.1373,3,1.109,3,0.7844,2,1.2422,2,0.8576,2,0,2,0,1,R_31XdkdkFfWXTP68,1,2024-05-25_16h00.03.236,interaction task,2021.2.3,Win32,119.047619,120326,,,,,,,,,,,,,,,,,,,,,,,,,,,,,,,,,,,,,,,,,,,,,,,,,,,,,,,,,,,,,,,
,,,,space,0.3814,space,0.1768,space,0.1668,space,0.1508,space,0.5237,space,0.3118,4,1.2973,3,2.0044,3,2.8745,2,0.7854,2,0.4544,3,0,3,0,1,R_31XdkdkFfWXTP68,1,2024-05-25_16h00.03.236,interaction task,2021.2.3,Win32,119.047619,120326,,,,,,,,,,,,,,,,,,,,,,,,,,,,,,,,,,,,,,,,,,,,,,,,,,,,,,,,,,,,,,,
,,,,space,0.0135,space,0.1508,space,0.183,space,0.0772,space,0.5698,space,0.3539,1,1.8502,2,1.4839,3,1.2124,2,2.1659,2,0.6552,4,0,4,0,1,R_31XdkdkFfWXTP68,1,2024-05-25_16h00.03.236,interaction task,2021.2.3,Win32,119.047619,120326,,,,,,,,,,,,,,,,,,,,,,,,,,,,,,,,,,,,,,,,,,,,,,,,,,,,,,,,,,,,,,,
,,,,space,0.1603,space,0.307,space,0.2575,space,0.1884,space,0.7475,space,0.2577,2,1.2349,1,1.3698,3,0.6835,2,0.7045,2,0.2593,5,0,5,0,1,R_31XdkdkFfWXTP68,1,2024-05-25_16h00.03.236,interaction task,2021.2.3,Win32,119.047619,120326,,,,,,,,,,,,,,,,,,,,,,,,,,,,,,,,,,,,,,,,,,,,,,,,,,,,,,,,,,,,,,,
,,,,space,0.5954,space,0.2179,space,0.208,space,0.1864,space,0.3187,space,0.2312,1,5.4015,1,4.6436,3,0.7385,2,0.5913,2,0.1459,6,0,6,0,1,R_31XdkdkFfWXTP68,1,2024-05-25_16h00.03.236,interaction task,2021.2.3,Win32,119.047619,120326,,,,,,,,,,,,,,,,,,,,,,,,,,,,,,,,,,,,,,,,,,,,,,,,,,,,,,,,,,,,,,,
,,,,space,0.4421,space,0.19,space,0.2216,space,0.1744,space,0.0002,space,0.2166,1,9.202,1,2.1004,3,1.651,2,0.3169,2,0.2002,7,0,7,0,1,R_31XdkdkFfWXTP68,1,2024-05-25_16h00.03.236,interaction task,2021.2.3,Win32,119.047619,120326,,,,,,,,,,,,,,,,,,,,,,,,,,,,,,,,,,,,,,,,,,,,,,,,,,,,,,,,,,,,,,,
,,,,space,0.4667,space,0.2166,space,0.2003,space,0.2082,space,0.5239,space,0.2412,2,2.2667,1,2.0235,3,0.2377,2,0.2232,2,0.1585,8,0,8,0,1,R_31XdkdkFfWXTP68,1,2024-05-25_16h00.03.236,interaction task,2021.2.3,Win32,119.047619,120326,,,,,,,,,,,,,,,,,,,,,,,,,,,,,,,,,,,,,,,,,,,,,,,,,,,,,,,,,,,,,,,
,,,,space,0.9897,space,0.2097,space,0.1847,space,0.5379,space,0.6691,space,0.2368,3,0.7422,1,0.4085,3,0.4179,2,0.1913,2,0.2759,9,0,9,0,1,R_31XdkdkFfWXTP68,1,2024-05-25_16h00.03.236,interaction task,2021.2.3,Win32,119.047619,120326,,,,,,,,,,,,,,,,,,,,,,,,,,,,,,,,,,,,,,,,,,,,,,,,,,,,,,,,,,,,,,,
,,,,,,,,,,,,,,,,,,,,,,,,,,,,,,,R_31XdkdkFfWXTP68,1,2024-05-25_16h00.03.236,interaction task,2021.2.3,Win32,119.047619,120326,space,0.9178,[],-0.00755814,-0.134722222,0,0,0,0,0,0,1,1,RightButton_2,11dot1.png,Smaller,Greater,,,,,,,,,,,,,,,,,,,,,,,,,,,,,,,,,,,,,,,,,,,,,,
,,,,,,,,,,,,,,,,,,,,,,,,,,,,,,,R_31XdkdkFfWXTP68,1,2024-05-25_16h00.03.236,interaction task,2021.2.3,Win32,119.047619,120326,,,"[""LeftButton_2""]",-0.251162791,-0.340277778,1,0,0,0,1,1,2,1,LeftButton_2,11dot1.png,Greater,Smaller,LeftButton_2,,,,,,,,,,,,,,,,,,,,,,,,,,,,,,,,,,,,,,,,,,,,,
,,,,,,,,,,,,,,,,,,,,,,,,,,,,,,,R_31XdkdkFfWXTP68,1,2024-05-25_16h00.03.236,interaction task,2021.2.3,Win32,119.047619,120326,,,"[""RightButton_2""]",0.326162791,-0.308333333,1,0,0,0,2,2,0,1,RightButton_2,11dot2.png,Smaller,Greater,RightButton_2,,,,,,,,,,,,,,,,,,,,,,,,,,,,,,,,,,,,,,,,,,,,,
,,,,,,,,,,,,,,,,,,,,,,,,,,,,,,,R_31XdkdkFfWXTP68,1,2024-05-25_16h00.03.236,interaction task,2021.2.3,Win32,119.047619,120326,,,,,,,,,,,,,,,,Smaller,Greater,,0.4,-0.227906977,-0.513888889,1,0,0,LeftButton,"[""LeftButton""]",70,13.3281,space,11.4193,,,,,,,,,,,,,,0,0,0,0,1,3,only_sub_wrong.png,0,RandomDot2.png,No answer,20,,,,,,,,,
,,,,,,,,,,,,,,,,,,,,,,,,,,,,,,,R_31XdkdkFfWXTP68,1,2024-05-25_16h00.03.236,interaction task,2021.2.3,Win32,119.047619,120326,,,,,,,,,,,,,,,,Greater,Smaller,,,0.337790698,-0.509722222,1,0,0,RightButton,"[""RightButton""]",,,,,,,,70,2.5469,space,70,4.8153,,,,,,0,1,1,1,1,2,only_sub_right.png,2,RandomDot20.png,No answer,20,3.6237,,,,,,,,
,,,,,,,,,,,,,,,,,,,,,,,,,,,,,,,R_31XdkdkFfWXTP68,1,2024-05-25_16h00.03.236,interaction task,2021.2.3,Win32,119.047619,120326,,,,,,,,,,,,,,,,Greater,Smaller,,,0.243023256,-0.513888889,1,0,0,RightButton,"[""RightButton""]",,,,,,,,,,,,,,,,,,0,2,2,2,1,5,both_right.png,10,RandomDot42.png,RightButton,20,,,,,,,,,
,,,,,,,,,,,,,,,,,,,,,,,,,,,,,,,R_31XdkdkFfWXTP68,1,2024-05-25_16h00.03.236,interaction task,2021.2.3,Win32,119.047619,120326,,,,,,,,,,,,,,,,Smaller,Greater,,,0.247674419,-0.455555556,1,0,0,RightButton,"[""RightButton""]",,,,,,,,,,,,,100,4.3906,space,100,3.3846,0,3,3,3,1,2,only_sub_right.png,3,RandomDot25.png,No answer,21,,1.2337,,,,,,,
,,,,,,,,,,,,,,,,,,,,,,,,,,,,,,,R_31XdkdkFfWXTP68,1,2024-05-25_16h00.03.236,interaction task,2021.2.3,Win32,119.047619,120326,,,,,,,,,,,,,,,,Greater,Smaller,,,0.349418605,-0.529166667,1,0,0,RightButton,"[""RightButton""]",,,,,,,,,,,,,,,,,,0,4,4,4,1,0,both_right.png,3,RandomDot39.png,No answer,20,,,,,,,,,
,,,,,,,,,,,,,,,,,,,,,,,,,,,,,,,R_31XdkdkFfWXTP68,1,2024-05-25_16h00.03.236,interaction task,2021.2.3,Win32,119.047619,120326,,,,,,,,,,,,,,,,Greater,Smaller,,,0.228488372,-0.495833333,1,0,0,RightButton,"[""RightButton""]",,,,,,,,,,,,,,,,,,0,5,5,5,1,4,both_right.png,10,RandomDot41.png,LeftButton,5,,,,,,,,,
,,,,,,,,,,,,,,,,,,,,,,,,,,,,,,,R_31XdkdkFfWXTP68,1,2024-05-25_16h00.03.236,interaction task,2021.2.3,Win32,119.047619,120326,,,,,,,,,,,,,,,,Greater,Smaller,,,-0.254069767,-0.533333333,1,0,0,LeftButton,"[""LeftButton""]",,,,,5,3.5549,space,,,,,,,,,,,0,6,6,6,1,1,both_wrong.png,1,RandomDot26.png,No answer,21,,,3.8177,,,,,,
,,,,,,,,,,,,,,,,,,,,,,,,,,,,,,,R_31XdkdkFfWXTP68,1,2024-05-25_16h00.03.236,interaction task,2021.2.3,Win32,119.047619,120326,,,,,,,,,,,,,,,,Smaller,Greater,,,0.252906977,-0.530555556,1,0,0,RightButton,"[""RightButton""]",,,,,,,,,,,,,100,4.526,space,100,2.5844,0,7,7,7,1,3,only_sub_wrong.png,3,RandomDot38.png,No answer,20,,0.4229,,,,,,,
,,,,,,,,,,,,,,,,,,,,,,,,,,,,,,,R_31XdkdkFfWXTP68,1,2024-05-25_16h00.03.236,interaction task,2021.2.3,Win32,119.047619,120326,,,,,,,,,,,,,,,,Smaller,Greater,,,0.299418605,-0.538888889,1,0,0,RightButton,"[""RightButton""]",,,,,3.005813953,1.6722,space,,,,,,,,,,,0,8,8,8,1,2,only_sub_right.png,1,RandomDot34.png,No answer,19,,,1.6281,,,,,,
,,,,,,,,,,,,,,,,,,,,,,,,,,,,,,,R_31XdkdkFfWXTP68,1,2024-05-25_16h00.03.236,interaction task,2021.2.3,Win32,119.047619,120326,,,,,,,,,,,,,,,,Greater,Smaller,,,0.319767442,-0.516666667,1,0,0,RightButton,"[""RightButton""]",,,,,,,,80,34.5495,space,50,36.4901,,,,,,0,9,9,9,1,1,both_wrong.png,2,RandomDot16.png,No answer,20,1.3296,,,,,,,,
,,,,,,,,,,,,,,,,,,,,,,,,,,,,,,,R_31XdkdkFfWXTP68,1,2024-05-25_16h00.03.236,interaction task,2021.2.3,Win32,119.047619,120326,,,,,,,,,,,,,,,,Greater,Smaller,,,0.302906977,-0.506944444,1,0,0,RightButton,"[""RightButton""]",,,,,,,,,,,,,60.33591731,4.0365,space,50.41108762,5.3209,0,10,10,10,1,1,both_wrong.png,3,RandomDot30.png,No answer,20,,2.1534,,,,,,,
,,,,,,,,,,,,,,,,,,,,,,,,,,,,,,,R_31XdkdkFfWXTP68,1,2024-05-25_16h00.03.236,interaction task,2021.2.3,Win32,119.047619,120326,,,,,,,,,,,,,,,,Greater,Smaller,,,-0.172674419,-0.529166667,1,0,0,LeftButton,"[""LeftButton""]",,,,,3,19.1773,space,,,,,,,,,,,0,11,11,11,1,1,both_wrong.png,1,RandomDot27.png,No answer,19,,,1.2037,,,,,,
,,,,,,,,,,,,,,,,,,,,,,,,,,,,,,,R_31XdkdkFfWXTP68,1,2024-05-25_16h00.03.236,interaction task,2021.2.3,Win32,119.047619,120326,,,,,,,,,,,,,,,,Greater,Smaller,,,0.285465116,-0.527777778,1,0,0,RightButton,"[""RightButton""]",60,1.9832,space,1.2011,,,,,,,,,,,,,,0,12,12,12,1,2,only_sub_right.png,0,RandomDot8.png,No answer,20,,,,,,,,,
,,,,,,,,,,,,,,,,,,,,,,,,,,,,,,,R_31XdkdkFfWXTP68,1,2024-05-25_16h00.03.236,interaction task,2021.2.3,Win32,119.047619,120326,,,,,,,,,,,,,,,,Greater,Smaller,,,0.227906977,-0.545833333,1,0,0,RightButton,"[""RightButton""]",,,,,,,,75,12.3429,space,29,18.2593,,,,,,0,13,13,13,1,3,only_sub_wrong.png,2,RandomDot1.png,No answer,20,2.2763,,,,,,,,
,,,,,,,,,,,,,,,,,,,,,,,,,,,,,,,R_31XdkdkFfWXTP68,1,2024-05-25_16h00.03.236,interaction task,2021.2.3,Win32,119.047619,120326,,,,,,,,,,,,,,,,Greater,Smaller,,,0.001162791,-0.998611111,0,0,0,,[],,,,,,,,,,,,,,,,,,0,14,14,14,1,3,only_sub_wrong.png,2,RandomDot23.png,No answer,20,,,,171,,,,,
,,,,,,,,,,,,,,,,,,,,,,,,,,,,,,,R_31XdkdkFfWXTP68,1,2024-05-25_16h00.03.236,interaction task,2021.2.3,Win32,119.047619,120326,,,,,,,,,,,,,,,,Smaller,Greater,,,0.325581395,-0.505555556,1,0,0,RightButton,"[""RightButton""]",55,1.6952,space,2.3624,,,,,,,,,,,,,,0,15,15,15,1,2,only_sub_right.png,0,RandomDot16.png,No answer,21,,,,,,,,,
,,,,,,,,,,,,,,,,,,,,,,,,,,,,,,,R_31XdkdkFfWXTP68,1,2024-05-25_16h00.03.236,interaction task,2021.2.3,Win32,119.047619,120326,,,,,,,,,,,,,,,,Greater,Smaller,,,-0.28255814,-0.55,1,0,0,LeftButton,"[""LeftButton""]",,,,,,,,65,0.8865,space,31,1.979,,,,,,0,16,16,16,1,3,only_sub_wrong.png,2,RandomDot13.png,No answer,21,1.5623,,,,,,,,
,,,,,,,,,,,,,,,,,,,,,,,,,,,,,,,R_31XdkdkFfWXTP68,1,2024-05-25_16h00.03.236,interaction task,2021.2.3,Win32,119.047619,120326,,,,,,,,,,,,,,,,Greater,Smaller,,,-0.295348837,-0.538888889,1,0,0,LeftButton,"[""LeftButton""]",,,,,,,,,,,,,66.091144,2.2689,space,32.55813953,0.9979,0,17,17,17,1,1,both_wrong.png,3,RandomDot6.png,No answer,21,,2.119,,,,,,,
,,,,,,,,,,,,,,,,,,,,,,,,,,,,,,,R_31XdkdkFfWXTP68,1,2024-05-25_16h00.03.236,interaction task,2021.2.3,Win32,119.047619,120326,,,,,,,,,,,,,,,,Greater,Smaller,,,0.209883721,-0.5125,1,0,0,RightButton,"[""RightButton""]",,,,,2.979651163,1.2375,space,,,,,,,,,,,0,18,18,18,1,1,both_wrong.png,1,RandomDot28.png,No answer,21,,,1.3644,,,,,,
,,,,,,,,,,,,,,,,,,,,,,,,,,,,,,,R_31XdkdkFfWXTP68,1,2024-05-25_16h00.03.236,interaction task,2021.2.3,Win32,119.047619,120326,,,,,,,,,,,,,,,,Greater,Smaller,,,0.259302326,-0.495833333,1,0,0,RightButton,"[""RightButton""]",,,,,,,,51,1.983,space,50,1.1786,,,,,,0,19,19,19,1,1,both_wrong.png,2,RandomDot10.png,No answer,20,1.0411,,,,,,,,
,,,,,,,,,,,,,,,,,,,,,,,,,,,,,,,R_31XdkdkFfWXTP68,1,2024-05-25_16h00.03.236,interaction task,2021.2.3,Win32,119.047619,120326,,,,,,,,,,,,,,,,Greater,Smaller,,,0.054069767,-0.466666667,0,0,0,,[],,,,,,,,,,,,,,,,,,0,20,20,20,1,2,only_sub_right.png,3,RandomDot10.png,No answer,19,,,,136,,,,,
,,,,,,,,,,,,,,,,,,,,,,,,,,,,,,,R_31XdkdkFfWXTP68,1,2024-05-25_16h00.03.236,interaction task,2021.2.3,Win32,119.047619,120326,,,,,,,,,,,,,,,,Greater,Smaller,,,0.26744186,-0.541666667,1,0,0,RightButton,"[""RightButton""]",54,0.9058,space,1.1251,,,,,,,,,,,,,,0,21,21,21,1,2,only_sub_right.png,0,RandomDot26.png,No answer,19,,,,,,,,,
,,,,,,,,,,,,,,,,,,,,,,,,,,,,,,,R_31XdkdkFfWXTP68,1,2024-05-25_16h00.03.236,interaction task,2021.2.3,Win32,119.047619,120326,,,,,,,,,,,,,,,,Smaller,Greater,,,-0.262790698,-0.558333333,0,0,0,,[],,,,,,,,,,,,,,,,,,0,22,22,22,1,1,both_wrong.png,0,RandomDot14.png,No answer,21,,,,59,,,,,
,,,,,,,,,,,,,,,,,,,,,,,,,,,,,,,R_31XdkdkFfWXTP68,1,2024-05-25_16h00.03.236,interaction task,2021.2.3,Win32,119.047619,120326,,,,,,,,,,,,,,,,Greater,Smaller,,,-0.279069767,-0.545833333,1,0,0,LeftButton,"[""LeftButton""]",,,,,,,,,,,,,63.33098426,1.3367,space,44.47968053,0.8265,0,23,23,23,1,3,only_sub_wrong.png,3,RandomDot20.png,No answer,19,,0.8739,,,,,,,
,,,,,,,,,,,,,,,,,,,,,,,,,,,,,,,R_31XdkdkFfWXTP68,1,2024-05-25_16h00.03.236,interaction task,2021.2.3,Win32,119.047619,120326,,,,,,,,,,,,,,,,Greater,Smaller,,,0.275,-0.543055556,1,0,0,RightButton,"[""RightButton""]",,,,,,,,52,1.4622,space,40,0.7638,,,,,,0,24,24,24,1,1,both_wrong.png,2,RandomDot1.png,No answer,21,0.6868,,,,,,,,
,,,,,,,,,,,,,,,,,,,,,,,,,,,,,,,R_31XdkdkFfWXTP68,1,2024-05-25_16h00.03.236,interaction task,2021.2.3,Win32,119.047619,120326,,,,,,,,,,,,,,,,Smaller,Greater,,,0.277906977,-0.520833333,1,0,0,RightButton,"[""RightButton""]",50,1.1509,space,1.6854,,,,,,,,,,,,,,0,25,25,25,1,1,both_wrong.png,0,RandomDot23.png,No answer,20,,,,,,,,,
,,,,,,,,,,,,,,,,,,,,,,,,,,,,,,,R_31XdkdkFfWXTP68,1,2024-05-25_16h00.03.236,interaction task,2021.2.3,Win32,119.047619,120326,,,,,,,,,,,,,,,,Greater,Smaller,,,-0.286046512,-0.484722222,1,0,0,LeftButton,"[""LeftButton""]",69,3.1099,space,1.4501,,,,,,,,,,,,,,0,26,26,26,1,3,only_sub_wrong.png,0,RandomDot33.png,No answer,19,,,,,,,,,
,,,,,,,,,,,,,,,,,,,,,,,,,,,,,,,R_31XdkdkFfWXTP68,1,2024-05-25_16h00.03.236,interaction task,2021.2.3,Win32,119.047619,120326,,,,,,,,,,,,,,,,Smaller,Greater,,,0.295930233,-0.522222222,1,0,0,RightButton,"[""RightButton""]",,,,,,,,56,2.7782,space,49,1.8207,,,,,,0,27,27,27,1,2,only_sub_right.png,2,RandomDot37.png,No answer,19,1.8277,,,,,,,,
,,,,,,,,,,,,,,,,,,,,,,,,,,,,,,,R_31XdkdkFfWXTP68,1,2024-05-25_16h00.03.236,interaction task,2021.2.3,Win32,119.047619,120326,,,,,,,,,,,,,,,,Greater,Smaller,,,0.35872093,-0.523611111,1,0,0,RightButton,"[""RightButton""]",,,,,2.485465116,0.719,space,,,,,,,,,,,0,28,28,28,1,3,only_sub_wrong.png,1,RandomDot11.png,No answer,20,,,2.0223,,,,,,
,,,,,,,,,,,,,,,,,,,,,,,,,,,,,,,R_31XdkdkFfWXTP68,1,2024-05-25_16h00.03.236,interaction task,2021.2.3,Win32,119.047619,120326,,,,,,,,,,,,,,,,Smaller,Greater,,,-0.389534884,-0.491666667,1,0,0,LeftButton,"[""LeftButton""]",,,,,,,,,,,,,,,,,,0,29,29,29,1,0,both_right.png,0,RandomDot19.png,No answer,21,,,,,,,,,
,,,,,,,,,,,,,,,,,,,,,,,,,,,,,,,R_31XdkdkFfWXTP68,1,2024-05-25_16h00.03.236,interaction task,2021.2.3,Win32,119.047619,120326,,,,,,,,,,,,,,,,Greater,Smaller,,,-0.261046512,-0.466666667,1,0,0,LeftButton,"[""LeftButton""]",,,,,,,,,,,,,,,,,,0,30,30,30,1,0,both_right.png,1,RandomDot30.png,No answer,20,,,,,,,,,
,,,,,,,,,,,,,,,,,,,,,,,,,,,,,,,R_31XdkdkFfWXTP68,1,2024-05-25_16h00.03.236,interaction task,2021.2.3,Win32,119.047619,120326,,,,,,,,,,,,,,,,Greater,Smaller,,,-0.294186047,-0.5,1,0,0,LeftButton,"[""LeftButton""]",,,,,,,,,,,,,69.20366455,1.7155,space,38.37209302,2.4997,0,31,31,31,1,3,only_sub_wrong.png,3,RandomDot20.png,No answer,20,,0.7308,,,,,,,
,,,,,,,,,,,,,,,,,,,,,,,,,,,,,,,R_31XdkdkFfWXTP68,1,2024-05-25_16h00.03.236,interaction task,2021.2.3,Win32,119.047619,120326,,,,,,,,,,,,,,,,Smaller,Greater,,,0.305813953,-0.545833333,1,0,0,RightButton,"[""RightButton""]",61,3.1416,space,1.1664,,,,,,,,,,,,,,0,32,32,32,1,3,only_sub_wrong.png,0,RandomDot26.png,No answer,19,,,,,,,,,
,,,,,,,,,,,,,,,,,,,,,,,,,,,,,,,R_31XdkdkFfWXTP68,1,2024-05-25_16h00.03.236,interaction task,2021.2.3,Win32,119.047619,120326,,,,,,,,,,,,,,,,Greater,Smaller,,,-0.263953488,-0.461111111,1,0,0,LeftButton,"[""LeftButton""]",,,,,,,,64,1.6792,space,42,0.6037,,,,,,0,33,33,33,1,2,only_sub_right.png,2,RandomDot16.png,No answer,20,1.4827,,,,,,,,
,,,,,,,,,,,,,,,,,,,,,,,,,,,,,,,R_31XdkdkFfWXTP68,1,2024-05-25_16h00.03.236,interaction task,2021.2.3,Win32,119.047619,120326,,,,,,,,,,,,,,,,Smaller,Greater,,,-0.268023256,-0.454166667,1,0,0,LeftButton,"[""LeftButton""]",,,,,,,,,,,,,51.40944327,3.8976,space,49.23655156,3.181,0,34,34,34,1,1,both_wrong.png,3,RandomDot12.png,No answer,21,,1.2575,,,,,,,
,,,,,,,,,,,,,,,,,,,,,,,,,,,,,,,R_31XdkdkFfWXTP68,1,2024-05-25_16h00.03.236,interaction task,2021.2.3,Win32,119.047619,120326,,,,,,,,,,,,,,,,Smaller,Greater,,,0.275,-0.497222222,1,0,0,RightButton,"[""RightButton""]",,,,,,,,,,,,,,,,,,0,35,35,35,1,0,both_right.png,2,RandomDot29.png,No answer,20,,,,,,,,,
,,,,,,,,,,,,,,,,,,,,,,,,,,,,,,,R_31XdkdkFfWXTP68,1,2024-05-25_16h00.03.236,interaction task,2021.2.3,Win32,119.047619,120326,,,,,,,,,,,,,,,,Greater,Smaller,,,-0.288953488,-0.463888889,1,0,0,LeftButton,"[""LeftButton""]",,,,,,,,,,,,,58.75029363,1.4287,space,47.35729387,0.7292,0,36,36,36,1,2,only_sub_right.png,3,RandomDot20.png,No answer,21,,0.7203,,,,,,,
,,,,,,,,,,,,,,,,,,,,,,,,,,,,,,,R_31XdkdkFfWXTP68,1,2024-05-25_16h00.03.236,interaction task,2021.2.3,Win32,119.047619,120326,,,,,,,,,,,,,,,,Greater,Smaller,,,-0.287209302,-0.543055556,1,0,0,LeftButton,"[""LeftButton""]",,,,,2.51744186,1.3317,space,,,,,,,,,,,0,37,37,37,1,2,only_sub_right.png,1,RandomDot3.png,No answer,20,,,0.8995,,,,,,
,,,,,,,,,,,,,,,,,,,,,,,,,,,,,,,R_31XdkdkFfWXTP68,1,2024-05-25_16h00.03.236,interaction task,2021.2.3,Win32,119.047619,120326,,,,,,,,,,,,,,,,Greater,Smaller,,,0.279069767,-0.493055556,1,0,0,RightButton,"[""RightButton""]",,,,,5,2.2553,space,,,,,,,,,,,0,38,38,38,1,3,only_sub_wrong.png,1,RandomDot1.png,No answer,19,,,1.3282,,,,,,
,,,,,,,,,,,,,,,,,,,,,,,,,,,,,,,R_31XdkdkFfWXTP68,1,2024-05-25_16h00.03.236,interaction task,2021.2.3,Win32,119.047619,120326,,,,,,,,,,,,,,,,Greater,Smaller,,,0.29127907,-0.473611111,1,0,0,RightButton,"[""RightButton""]",100,2.6819,space,2.4205,,,,,,,,,,,,,,0,39,39,39,1,1,both_wrong.png,0,RandomDot16.png,No answer,19,,,,,,,,,
,,,,,,,,,,,,,,,,,,,,,,,,,,,,,,,R_31XdkdkFfWXTP68,1,2024-05-25_16h00.03.236,interaction task,2021.2.3,Win32,119.047619,120326,,,,,,,,,,,,,,,,Greater,Smaller,,,0.312790698,-0.544444444,1,0,0,RightButton,"[""RightButton""]",,,,,5,1.9403,space,,,,,,,,,,,0,40,40,40,1,3,only_sub_wrong.png,1,RandomDot8.png,No answer,21,,,1.3859,,,,,,
,,,,,,,,,,,,,,,,,,,,,,,,,,,,,,,R_31XdkdkFfWXTP68,1,2024-05-25_16h00.03.236,interaction task,2021.2.3,Win32,119.047619,120326,,,,,,,,,,,,,,,,Smaller,Greater,,,0.278488372,-0.533333333,1,0,0,RightButton,"[""RightButton""]",,,,,4.985465116,2.1396,space,,,,,,,,,,,0,41,41,41,1,2,only_sub_right.png,1,RandomDot15.png,No answer,19,,,2.4401,,,,,,
,,,,,,,,,,,,,,,,,,,,,,,,,,,,,,,R_31XdkdkFfWXTP68,1,2024-05-25_16h00.03.236,interaction task,2021.2.3,Win32,119.047619,120326,,,,,,,,,,,,,,,,Greater,Smaller,,,-0.280232558,-0.452777778,1,0,0,LeftButton,"[""LeftButton""]",,,,,,,,,,,,,100,1.0606,space,0,3.4331,,,,,,2,only_sub_right.png,3,RandomDot10.png,No answer,19,,1.3022,,,0,0,0,1,1
,,,,,,,,,,,,,,,,,,,,,,,,,,,,,,,R_31XdkdkFfWXTP68,1,2024-05-25_16h00.03.236,interaction task,2021.2.3,Win32,119.047619,120326,,,,,,,,,,,,,,,,Smaller,Greater,,,0.270930233,-0.534722222,1,0,0,RightButton,"[""RightButton""]",64,25.7094,space,0.7537,,,,,,,,,,,,,,,,,,,1,both_wrong.png,0,RandomDot14.png,No answer,21,,,,,0,1,1,2,1
,,,,,,,,,,,,,,,,,,,,,,,,,,,,,,,R_31XdkdkFfWXTP68,1,2024-05-25_16h00.03.236,interaction task,2021.2.3,Win32,119.047619,120326,,,,,,,,,,,,,,,,Greater,Smaller,,,0.270930233,-0.511111111,1,0,0,RightButton,"[""RightButton""]",,,,,,,,73,5.9974,space,16,3.1296,,,,,,,,,,,3,only_sub_wrong.png,2,RandomDot23.png,No answer,20,3.567,,,,0,2,2,0,1
