choose_trial,key_resp.keys,key_resp.rt,key_resp_4.keys,key_resp_4.rt,session_trait,slider_face_judge.response,slider_face_judge.rt,key_resp_3.keys,key_resp_3.rt,face_loop.thisRepN,face_loop.thisTrialN,face_loop.thisN,face_loop.thisIndex,face_loop.ran,face_serial,image_name,isCheck,answer,check_question,participant,session,date,expName,psychopyVersion,OS,frameRate,SONAid,session.thisRepN,session.thisTrialN,session.thisN,session.thisIndex,session.ran,session_serial,slider_judge_img
"[0,1,2,3,4,5,6,7,8,9,10,11,12,13,14,15,16,17,18,19,20,21,22,23,24,25,26,27,28,29,30,31,32,33,34,35,36,37,38,39,40,41,42,43,44,45,46,47,48,49,59,59,58]",space,9.3491,space,8.8407,competent,3.005555725,5.6946,space,2.6825,0,0,0,38,1,39,image/39.jpg,0,0,,R_37HoYLt2WoBiFYl,2,2024-05-24_12h44.01.413,face trait task,2021.2.3,Win32,59.88023952,121486,,,,,,,
,,,,,,3.644444784,3.1273,space,2.5052,0,1,1,5,1,6,image/6.jpg,0,0,,R_37HoYLt2WoBiFYl,2,2024-05-24_12h44.01.413,face trait task,2021.2.3,Win32,59.88023952,121486,,,,,,,
,,,,,,4,1.9274,space,1.7186,0,2,2,36,1,37,image/37.jpg,0,0,,R_37HoYLt2WoBiFYl,2,2024-05-24_12h44.01.413,face trait task,2021.2.3,Win32,59.88023952,121486,,,,,,,
,,,,,,5.083333333,4.4432,space,2.4075,0,3,3,8,1,9,image/9.jpg,0,0,,R_37HoYLt2WoBiFYl,2,2024-05-24_12h44.01.413,face trait task,2021.2.3,Win32,59.88023952,121486,,,,,,,
,,,,,,4.188889058,3.9532,space,0.6624,0,4,4,24,1,25,image/25.jpg,0,0,,R_37HoYLt2WoBiFYl,2,2024-05-24_12h44.01.413,face trait task,2021.2.3,Win32,59.88023952,121486,,,,,,,
,,,,,,5.177778117,3.8997,space,1.6505,0,5,5,16,1,17,image/17.jpg,0,0,,R_37HoYLt2WoBiFYl,2,2024-05-24_12h44.01.413,face trait task,2021.2.3,Win32,59.88023952,121486,,,,,,,
,,,,,,4.027778117,4.4671,space,0.5995,0,6,6,12,1,13,image/13.jpg,0,0,,R_37HoYLt2WoBiFYl,2,2024-05-24_12h44.01.413,face trait task,2021.2.3,Win32,59.88023952,121486,,,,,,,
,,,,,,4.95,5.5465,space,0.6103,0,7,7,23,1,24,image/24.jpg,0,0,,R_37HoYLt2WoBiFYl,2,2024-05-24_12h44.01.413,face trait task,2021.2.3,Win32,59.88023952,121486,,,,,,,
,,,,,,5.794444784,2.7028,space,1.9056,0,8,8,20,1,21,image/21.jpg,0,0,,R_37HoYLt2WoBiFYl,2,2024-05-24_12h44.01.413,face trait task,2021.2.3,Win32,59.88023952,121486,,,,,,,
,,,,,,3.894444784,2.8053,space,0.3508,0,9,9,10,1,11,image/11.jpg,0,0,,R_37HoYLt2WoBiFYl,2,2024-05-24_12h44.01.413,face trait task,2021.2.3,Win32,59.88023952,121486,,,,,,,
,,,,,,3.15,4.0457,space,1.7962,0,10,10,46,1,47,image/47.jpg,0,0,,R_37HoYLt2WoBiFYl,2,2024-05-24_12h44.01.413,face trait task,2021.2.3,Win32,59.88023952,121486,,,,,,,
,,,,,,3.738889058,5.4612,space,0.6179,0,11,11,47,1,48,image/48.jpg,0,0,,R_37HoYLt2WoBiFYl,2,2024-05-24_12h44.01.413,face trait task,2021.2.3,Win32,59.88023952,121486,,,,,,,
,,,,,,4.594444784,4.7823,space,0.4361,0,12,12,41,1,42,image/42.jpg,0,0,,R_37HoYLt2WoBiFYl,2,2024-05-24_12h44.01.413,face trait task,2021.2.3,Win32,59.88023952,121486,,,,,,,
,,,,,,3.177778117,5.1612,space,0.6627,0,13,13,34,1,35,image/35.jpg,0,0,,R_37HoYLt2WoBiFYl,2,2024-05-24_12h44.01.413,face trait task,2021.2.3,Win32,59.88023952,121486,,,,,,,
,,,,,,4.688889058,4.8557,space,0.3191,0,14,14,2,1,3,image/3.jpg,0,0,,R_37HoYLt2WoBiFYl,2,2024-05-24_12h44.01.413,face trait task,2021.2.3,Win32,59.88023952,121486,,,,,,,
,,,,,,4.733333333,4.6533,space,0.3173,0,15,15,19,1,20,image/20.jpg,0,0,,R_37HoYLt2WoBiFYl,2,2024-05-24_12h44.01.413,face trait task,2021.2.3,Win32,59.88023952,121486,,,,,,,
,,,,,,4.96111145,3.6244,space,0.3421,0,16,16,33,1,34,image/34.jpg,0,0,,R_37HoYLt2WoBiFYl,2,2024-05-24_12h44.01.413,face trait task,2021.2.3,Win32,59.88023952,121486,,,,,,,
,,,,,,6.977778117,7.7623,space,2.0568,0,17,17,52,1,59,image/fill_img.png,1,7,Please move the slider all the way to the RIGHT to show that you are paying attention.,R_37HoYLt2WoBiFYl,2,2024-05-24_12h44.01.413,face trait task,2021.2.3,Win32,59.88023952,121486,,,,,,,
,,,,,,3.244444784,6.2616,space,0.2977,0,18,18,42,1,43,image/43.jpg,0,0,,R_37HoYLt2WoBiFYl,2,2024-05-24_12h44.01.413,face trait task,2021.2.3,Win32,59.88023952,121486,,,,,,,
,,,,,,6.983333333,4.4002,space,1.5407,0,19,19,51,1,60,image/fill_img.png,1,7,Please move the slider all the way to the RIGHT to show that you are paying attention.,R_37HoYLt2WoBiFYl,2,2024-05-24_12h44.01.413,face trait task,2021.2.3,Win32,59.88023952,121486,,,,,,,
,,,,,,4.722222392,6.0502,space,0.5728,0,20,20,43,1,44,image/44.jpg,0,0,,R_37HoYLt2WoBiFYl,2,2024-05-24_12h44.01.413,face trait task,2021.2.3,Win32,59.88023952,121486,,,,,,,
,,,,,,5.238889058,2.0382,space,1.828,0,21,21,7,1,8,image/8.jpg,0,0,,R_37HoYLt2WoBiFYl,2,2024-05-24_12h44.01.413,face trait task,2021.2.3,Win32,59.88023952,121486,,,,,,,
,,,,,,6.994444784,2.3191,space,0.757,0,22,22,50,1,60,image/fill_img.png,1,7,Please move the slider all the way to the RIGHT to show that you are paying attention.,R_37HoYLt2WoBiFYl,2,2024-05-24_12h44.01.413,face trait task,2021.2.3,Win32,59.88023952,121486,,,,,,,
,,,,,,3.844444784,3.9778,space,0.5188,0,23,23,32,1,33,image/33.jpg,0,0,,R_37HoYLt2WoBiFYl,2,2024-05-24_12h44.01.413,face trait task,2021.2.3,Win32,59.88023952,121486,,,,,,,
,,,,,,4.716666667,2.638,space,0.6095,0,24,24,9,1,10,image/10.jpg,0,0,,R_37HoYLt2WoBiFYl,2,2024-05-24_12h44.01.413,face trait task,2021.2.3,Win32,59.88023952,121486,,,,,,,
,,,,,,3.938889058,6.0271,space,1.6527,0,25,25,25,1,26,image/26.jpg,0,0,,R_37HoYLt2WoBiFYl,2,2024-05-24_12h44.01.413,face trait task,2021.2.3,Win32,59.88023952,121486,,,,,,,
,,,,,,4.583333333,3.2204,space,0.5456,0,26,26,14,1,15,image/15.jpg,0,0,,R_37HoYLt2WoBiFYl,2,2024-05-24_12h44.01.413,face trait task,2021.2.3,Win32,59.88023952,121486,,,,,,,
,,,,,,4.516666667,3.0805,space,0.3263,0,27,27,26,1,27,image/27.jpg,0,0,,R_37HoYLt2WoBiFYl,2,2024-05-24_12h44.01.413,face trait task,2021.2.3,Win32,59.88023952,121486,,,,,,,
,,,,,,4.122222392,6.5236,space,0.4261,0,28,28,15,1,16,image/16.jpg,0,0,,R_37HoYLt2WoBiFYl,2,2024-05-24_12h44.01.413,face trait task,2021.2.3,Win32,59.88023952,121486,,,,,,,
,,,,,,2.955555725,4.2498,space,0.4018,0,29,29,35,1,36,image/36.jpg,0,0,,R_37HoYLt2WoBiFYl,2,2024-05-24_12h44.01.413,face trait task,2021.2.3,Win32,59.88023952,121486,,,,,,,
,,,,,,3.85,3.827,space,0.3544,0,30,30,29,1,30,image/30.jpg,0,0,,R_37HoYLt2WoBiFYl,2,2024-05-24_12h44.01.413,face trait task,2021.2.3,Win32,59.88023952,121486,,,,,,,
,,,,,,3.988889058,4.8165,space,0.5201,0,31,31,30,1,31,image/31.jpg,0,0,,R_37HoYLt2WoBiFYl,2,2024-05-24_12h44.01.413,face trait task,2021.2.3,Win32,59.88023952,121486,,,,,,,
,,,,,,4.877778117,4.7292,space,0.7017,0,32,32,21,1,22,image/22.jpg,0,0,,R_37HoYLt2WoBiFYl,2,2024-05-24_12h44.01.413,face trait task,2021.2.3,Win32,59.88023952,121486,,,,,,,
,,,,,,3.827778117,2.7192,space,0.4042,0,33,33,37,1,38,image/38.jpg,0,0,,R_37HoYLt2WoBiFYl,2,2024-05-24_12h44.01.413,face trait task,2021.2.3,Win32,59.88023952,121486,,,,,,,
,,,,,,3.255555725,3.5108,space,0.5007,0,34,34,13,1,14,image/14.jpg,0,0,,R_37HoYLt2WoBiFYl,2,2024-05-24_12h44.01.413,face trait task,2021.2.3,Win32,59.88023952,121486,,,,,,,
,,,,,,3.96111145,4.975,space,0.3779,0,35,35,0,1,1,image/1.jpg,0,0,,R_37HoYLt2WoBiFYl,2,2024-05-24_12h44.01.413,face trait task,2021.2.3,Win32,59.88023952,121486,,,,,,,
,,,,,,5.388889058,2.9528,space,0.469,0,36,36,17,1,18,image/18.jpg,0,0,,R_37HoYLt2WoBiFYl,2,2024-05-24_12h44.01.413,face trait task,2021.2.3,Win32,59.88023952,121486,,,,,,,
,,,,,,4.516666667,3.9701,space,0.4843,0,37,37,44,1,45,image/45.jpg,0,0,,R_37HoYLt2WoBiFYl,2,2024-05-24_12h44.01.413,face trait task,2021.2.3,Win32,59.88023952,121486,,,,,,,
,,,,,,4.833333333,4.6513,space,1.8498,0,38,38,3,1,4,image/4.jpg,0,0,,R_37HoYLt2WoBiFYl,2,2024-05-24_12h44.01.413,face trait task,2021.2.3,Win32,59.88023952,121486,,,,,,,
,,,,,,2.855555725,2.9817,space,1.341,0,39,39,40,1,41,image/41.jpg,0,0,,R_37HoYLt2WoBiFYl,2,2024-05-24_12h44.01.413,face trait task,2021.2.3,Win32,59.88023952,121486,,,,,,,
,,,,,,4.966666667,4.7025,space,0.6674,0,40,40,11,1,12,image/12.jpg,0,0,,R_37HoYLt2WoBiFYl,2,2024-05-24_12h44.01.413,face trait task,2021.2.3,Win32,59.88023952,121486,,,,,,,
,,,,,,4.555555725,3.3504,space,0.6018,0,41,41,49,1,50,image/50.jpg,0,0,,R_37HoYLt2WoBiFYl,2,2024-05-24_12h44.01.413,face trait task,2021.2.3,Win32,59.88023952,121486,,,,,,,
,,,,,,3.883333333,3.4364,space,0.6929,0,42,42,22,1,23,image/23.jpg,0,0,,R_37HoYLt2WoBiFYl,2,2024-05-24_12h44.01.413,face trait task,2021.2.3,Win32,59.88023952,121486,,,,,,,
,,,,,,3.716666667,2.2902,space,0.4616,0,43,43,39,1,40,image/40.jpg,0,0,,R_37HoYLt2WoBiFYl,2,2024-05-24_12h44.01.413,face trait task,2021.2.3,Win32,59.88023952,121486,,,,,,,
,,,,,,3.327778117,5.5516,space,0.9676,0,44,44,48,1,49,image/49.jpg,0,0,,R_37HoYLt2WoBiFYl,2,2024-05-24_12h44.01.413,face trait task,2021.2.3,Win32,59.88023952,121486,,,,,,,
,,,,,,4.61111145,2.4872,space,0.3236,0,45,45,27,1,28,image/28.jpg,0,0,,R_37HoYLt2WoBiFYl,2,2024-05-24_12h44.01.413,face trait task,2021.2.3,Win32,59.88023952,121486,,,,,,,
,,,,,,3.416666667,3.7275,space,0.3439,0,46,46,28,1,29,image/29.jpg,0,0,,R_37HoYLt2WoBiFYl,2,2024-05-24_12h44.01.413,face trait task,2021.2.3,Win32,59.88023952,121486,,,,,,,
,,,,,,5.172222392,3.3831,space,0.5517,0,47,47,18,1,19,image/19.jpg,0,0,,R_37HoYLt2WoBiFYl,2,2024-05-24_12h44.01.413,face trait task,2021.2.3,Win32,59.88023952,121486,,,,,,,
,,,,,,4.255555725,4.0535,space,1.1925,0,48,48,4,1,5,image/5.jpg,0,0,,R_37HoYLt2WoBiFYl,2,2024-05-24_12h44.01.413,face trait task,2021.2.3,Win32,59.88023952,121486,,,,,,,
,,,,,,4.505555725,4.0543,space,0.8018,0,49,49,45,1,46,image/46.jpg,0,0,,R_37HoYLt2WoBiFYl,2,2024-05-24_12h44.01.413,face trait task,2021.2.3,Win32,59.88023952,121486,,,,,,,
,,,,,,5.01111145,5.5207,space,2.043,0,50,50,31,1,32,image/32.jpg,0,0,,R_37HoYLt2WoBiFYl,2,2024-05-24_12h44.01.413,face trait task,2021.2.3,Win32,59.88023952,121486,,,,,,,
,,,,,,4.694444784,2.3065,space,0.3417,0,51,51,1,1,2,image/2.jpg,0,0,,R_37HoYLt2WoBiFYl,2,2024-05-24_12h44.01.413,face trait task,2021.2.3,Win32,59.88023952,121486,,,,,,,
,,,,,,5.022222392,2.8559,space,0.65,0,52,52,6,1,7,image/7.jpg,0,0,,R_37HoYLt2WoBiFYl,2,2024-05-24_12h44.01.413,face trait task,2021.2.3,Win32,59.88023952,121486,,,,,,,
,,,,,,,,,,,,,,,,,,,,R_37HoYLt2WoBiFYl,2,2024-05-24_12h44.01.413,face trait task,2021.2.3,Win32,59.88023952,121486,0,0,0,1,1,1,competent.png
,,,,,critical,4.333333333,7.1068,space,1.3176,0,0,0,37,1,38,image/38.jpg,0,0,,R_37HoYLt2WoBiFYl,2,2024-05-24_12h44.01.413,face trait task,2021.2.3,Win32,59.88023952,121486,,,,,,,
,,,,,,2.322222392,2.0348,space,0.3299,0,1,1,48,1,49,image/49.jpg,0,0,,R_37HoYLt2WoBiFYl,2,2024-05-24_12h44.01.413,face trait task,2021.2.3,Win32,59.88023952,121486,,,,,,,
,,,,,,3.988889058,4.4702,space,1.6272,0,2,2,12,1,13,image/13.jpg,0,0,,R_37HoYLt2WoBiFYl,2,2024-05-24_12h44.01.413,face trait task,2021.2.3,Win32,59.88023952,121486,,,,,,,
,,,,,,6.96111145,3.1581,space,0.9902,0,3,3,50,1,60,image/fill_img.png,1,7,Please move the slider all the way to the RIGHT to show that you are paying attention.,R_37HoYLt2WoBiFYl,2,2024-05-24_12h44.01.413,face trait task,2021.2.3,Win32,59.88023952,121486,,,,,,,
,,,,,,4.366666667,4.0348,space,0.439,0,4,4,39,1,40,image/40.jpg,0,0,,R_37HoYLt2WoBiFYl,2,2024-05-24_12h44.01.413,face trait task,2021.2.3,Win32,59.88023952,121486,,,,,,,
,,,,,,4.683333333,2.0969,space,0.557,0,5,5,13,1,14,image/14.jpg,0,0,,R_37HoYLt2WoBiFYl,2,2024-05-24_12h44.01.413,face trait task,2021.2.3,Win32,59.88023952,121486,,,,,,,
,,,,,,5.45,2.2423,space,0.2696,0,6,6,15,1,16,image/16.jpg,0,0,,R_37HoYLt2WoBiFYl,2,2024-05-24_12h44.01.413,face trait task,2021.2.3,Win32,59.88023952,121486,,,,,,,
,,,,,,5.622222392,2.4744,space,0.3669,0,7,7,31,1,32,image/32.jpg,0,0,,R_37HoYLt2WoBiFYl,2,2024-05-24_12h44.01.413,face trait task,2021.2.3,Win32,59.88023952,121486,,,,,,,
,,,,,,4.75,2.4798,space,0.3944,0,8,8,43,1,44,image/44.jpg,0,0,,R_37HoYLt2WoBiFYl,2,2024-05-24_12h44.01.413,face trait task,2021.2.3,Win32,59.88023952,121486,,,,,,,
,,,,,,4.227778117,5.9729,space,2.0114,0,9,9,47,1,48,image/48.jpg,0,0,,R_37HoYLt2WoBiFYl,2,2024-05-24_12h44.01.413,face trait task,2021.2.3,Win32,59.88023952,121486,,,,,,,
,,,,,,4.227778117,2.23,space,0.2955,0,10,10,42,1,43,image/43.jpg,0,0,,R_37HoYLt2WoBiFYl,2,2024-05-24_12h44.01.413,face trait task,2021.2.3,Win32,59.88023952,121486,,,,,,,
,,,,,,3.027778117,4.3956,space,0.428,0,11,11,24,1,25,image/25.jpg,0,0,,R_37HoYLt2WoBiFYl,2,2024-05-24_12h44.01.413,face trait task,2021.2.3,Win32,59.88023952,121486,,,,,,,
,,,,,,6.205555725,2.0414,space,0.3587,0,12,12,3,1,4,image/4.jpg,0,0,,R_37HoYLt2WoBiFYl,2,2024-05-24_12h44.01.413,face trait task,2021.2.3,Win32,59.88023952,121486,,,,,,,
,,,,,,1.444444529,1.9048,space,0.3016,0,13,13,35,1,36,image/36.jpg,0,0,,R_37HoYLt2WoBiFYl,2,2024-05-24_12h44.01.413,face trait task,2021.2.3,Win32,59.88023952,121486,,,,,,,
,,,,,,3.65,5.0431,space,2.569,0,14,14,20,1,21,image/21.jpg,0,0,,R_37HoYLt2WoBiFYl,2,2024-05-24_12h44.01.413,face trait task,2021.2.3,Win32,59.88023952,121486,,,,,,,
,,,,,,3.1,2.0725,space,0.7043,0,15,15,36,1,37,image/37.jpg,0,0,,R_37HoYLt2WoBiFYl,2,2024-05-24_12h44.01.413,face trait task,2021.2.3,Win32,59.88023952,121486,,,,,,,
,,,,,,5.038889058,3.8754,space,0.4912,0,16,16,38,1,39,image/39.jpg,0,0,,R_37HoYLt2WoBiFYl,2,2024-05-24_12h44.01.413,face trait task,2021.2.3,Win32,59.88023952,121486,,,,,,,
,,,,,,2.533333333,3.3071,space,1.9694,0,17,17,40,1,41,image/41.jpg,0,0,,R_37HoYLt2WoBiFYl,2,2024-05-24_12h44.01.413,face trait task,2021.2.3,Win32,59.88023952,121486,,,,,,,
,,,,,,5.277778117,2.5029,space,0.3258,0,18,18,25,1,26,image/26.jpg,0,0,,R_37HoYLt2WoBiFYl,2,2024-05-24_12h44.01.413,face trait task,2021.2.3,Win32,59.88023952,121486,,,,,,,
,,,,,,5.2,4.0638,space,0.3606,0,19,19,5,1,6,image/6.jpg,0,0,,R_37HoYLt2WoBiFYl,2,2024-05-24_12h44.01.413,face trait task,2021.2.3,Win32,59.88023952,121486,,,,,,,
,,,,,,4.916666667,4.4913,space,0.3342,0,20,20,23,1,24,image/24.jpg,0,0,,R_37HoYLt2WoBiFYl,2,2024-05-24_12h44.01.413,face trait task,2021.2.3,Win32,59.88023952,121486,,,,,,,
,,,,,,2.883333333,4.5623,space,0.6789,0,21,21,46,1,47,image/47.jpg,0,0,,R_37HoYLt2WoBiFYl,2,2024-05-24_12h44.01.413,face trait task,2021.2.3,Win32,59.88023952,121486,,,,,,,
,,,,,,3.066666667,4.3261,space,0.4929,0,22,22,22,1,23,image/23.jpg,0,0,,R_37HoYLt2WoBiFYl,2,2024-05-24_12h44.01.413,face trait task,2021.2.3,Win32,59.88023952,121486,,,,,,,
,,,,,,4.5,2.4688,space,0.6873,0,23,23,17,1,18,image/18.jpg,0,0,,R_37HoYLt2WoBiFYl,2,2024-05-24_12h44.01.413,face trait task,2021.2.3,Win32,59.88023952,121486,,,,,,,
,,,,,,5.816666667,4.691,space,0.2682,0,24,24,27,1,28,image/28.jpg,0,0,,R_37HoYLt2WoBiFYl,2,2024-05-24_12h44.01.413,face trait task,2021.2.3,Win32,59.88023952,121486,,,,,,,
,,,,,,3.66111145,3.1108,space,0.3205,0,25,25,26,1,27,image/27.jpg,0,0,,R_37HoYLt2WoBiFYl,2,2024-05-24_12h44.01.413,face trait task,2021.2.3,Win32,59.88023952,121486,,,,,,,
,,,,,,3.71111145,4.8434,space,0.495,0,26,26,11,1,12,image/12.jpg,0,0,,R_37HoYLt2WoBiFYl,2,2024-05-24_12h44.01.413,face trait task,2021.2.3,Win32,59.88023952,121486,,,,,,,
,,,,,,4.944444784,4.9116,space,0.9721,0,27,27,44,1,45,image/45.jpg,0,0,,R_37HoYLt2WoBiFYl,2,2024-05-24_12h44.01.413,face trait task,2021.2.3,Win32,59.88023952,121486,,,,,,,
,,,,,,3.76111145,3.3688,space,0.268,0,28,28,28,1,29,image/29.jpg,0,0,,R_37HoYLt2WoBiFYl,2,2024-05-24_12h44.01.413,face trait task,2021.2.3,Win32,59.88023952,121486,,,,,,,
,,,,,,5.8,2.1015,space,0.611,0,29,29,8,1,9,image/9.jpg,0,0,,R_37HoYLt2WoBiFYl,2,2024-05-24_12h44.01.413,face trait task,2021.2.3,Win32,59.88023952,121486,,,,,,,
,,,,,,4.872222392,2.8576,space,0.3354,0,30,30,32,1,33,image/33.jpg,0,0,,R_37HoYLt2WoBiFYl,2,2024-05-24_12h44.01.413,face trait task,2021.2.3,Win32,59.88023952,121486,,,,,,,
,,,,,,5.01111145,3.7269,space,3.3001,0,31,31,6,1,7,image/7.jpg,0,0,,R_37HoYLt2WoBiFYl,2,2024-05-24_12h44.01.413,face trait task,2021.2.3,Win32,59.88023952,121486,,,,,,,
,,,,,,3.772222392,2.0281,space,0.5182,0,32,32,34,1,35,image/35.jpg,0,0,,R_37HoYLt2WoBiFYl,2,2024-05-24_12h44.01.413,face trait task,2021.2.3,Win32,59.88023952,121486,,,,,,,
,,,,,,4.783333333,2.0694,space,0.3177,0,33,33,14,1,15,image/15.jpg,0,0,,R_37HoYLt2WoBiFYl,2,2024-05-24_12h44.01.413,face trait task,2021.2.3,Win32,59.88023952,121486,,,,,,,
,,,,,,4.255555725,2.766,space,1.497,0,34,34,16,1,17,image/17.jpg,0,0,,R_37HoYLt2WoBiFYl,2,2024-05-24_12h44.01.413,face trait task,2021.2.3,Win32,59.88023952,121486,,,,,,,
,,,,,,2.894444529,4.2275,space,0.344,0,35,35,2,1,3,image/3.jpg,0,0,,R_37HoYLt2WoBiFYl,2,2024-05-24_12h44.01.413,face trait task,2021.2.3,Win32,59.88023952,121486,,,,,,,
,,,,,,6.06111145,3.0842,space,1.8834,0,36,36,45,1,46,image/46.jpg,0,0,,R_37HoYLt2WoBiFYl,2,2024-05-24_12h44.01.413,face trait task,2021.2.3,Win32,59.88023952,121486,,,,,,,
,,,,,,4.755555725,2.2036,space,0.2594,0,37,37,29,1,30,image/30.jpg,0,0,,R_37HoYLt2WoBiFYl,2,2024-05-24_12h44.01.413,face trait task,2021.2.3,Win32,59.88023952,121486,,,,,,,
,,,,,,4.05,3.7315,space,0.7806,0,38,38,33,1,34,image/34.jpg,0,0,,R_37HoYLt2WoBiFYl,2,2024-05-24_12h44.01.413,face trait task,2021.2.3,Win32,59.88023952,121486,,,,,,,
,,,,,,4.86111145,1.6517,space,0.3244,0,39,39,1,1,2,image/2.jpg,0,0,,R_37HoYLt2WoBiFYl,2,2024-05-24_12h44.01.413,face trait task,2021.2.3,Win32,59.88023952,121486,,,,,,,
,,,,,,5.1,3.7855,space,0.3173,0,40,40,41,1,42,image/42.jpg,0,0,,R_37HoYLt2WoBiFYl,2,2024-05-24_12h44.01.413,face trait task,2021.2.3,Win32,59.88023952,121486,,,,,,,
,,,,,,4.183333333,3.3735,space,0.4183,0,41,41,7,1,8,image/8.jpg,0,0,,R_37HoYLt2WoBiFYl,2,2024-05-24_12h44.01.413,face trait task,2021.2.3,Win32,59.88023952,121486,,,,,,,
,,,,,,6.96111145,2.3707,space,0.6796,0,42,42,52,1,59,image/fill_img.png,1,7,Please move the slider all the way to the RIGHT to show that you are paying attention.,R_37HoYLt2WoBiFYl,2,2024-05-24_12h44.01.413,face trait task,2021.2.3,Win32,59.88023952,121486,,,,,,,
,,,,,,4.433333333,5.0821,space,0.3595,0,43,43,4,1,5,image/5.jpg,0,0,,R_37HoYLt2WoBiFYl,2,2024-05-24_12h44.01.413,face trait task,2021.2.3,Win32,59.88023952,121486,,,,,,,
,,,,,,4.822222392,1.9347,space,0.6676,0,44,44,19,1,20,image/20.jpg,0,0,,R_37HoYLt2WoBiFYl,2,2024-05-24_12h44.01.413,face trait task,2021.2.3,Win32,59.88023952,121486,,,,,,,
,,,,,,1.872222392,4.9613,space,0.2264,0,45,45,49,1,50,image/50.jpg,0,0,,R_37HoYLt2WoBiFYl,2,2024-05-24_12h44.01.413,face trait task,2021.2.3,Win32,59.88023952,121486,,,,,,,
,,,,,,6.56111145,1.8776,space,0.3233,0,46,46,30,1,31,image/31.jpg,0,0,,R_37HoYLt2WoBiFYl,2,2024-05-24_12h44.01.413,face trait task,2021.2.3,Win32,59.88023952,121486,,,,,,,
,,,,,,5.166666667,1.8347,space,0.3222,0,47,47,18,1,19,image/19.jpg,0,0,,R_37HoYLt2WoBiFYl,2,2024-05-24_12h44.01.413,face trait task,2021.2.3,Win32,59.88023952,121486,,,,,,,
,,,,,,4.633333333,3.7482,space,0.3009,0,48,48,0,1,1,image/1.jpg,0,0,,R_37HoYLt2WoBiFYl,2,2024-05-24_12h44.01.413,face trait task,2021.2.3,Win32,59.88023952,121486,,,,,,,
,,,,,,4.988889058,4.1683,space,0.2414,0,49,49,9,1,10,image/10.jpg,0,0,,R_37HoYLt2WoBiFYl,2,2024-05-24_12h44.01.413,face trait task,2021.2.3,Win32,59.88023952,121486,,,,,,,
,,,,,,3.716666667,3.2094,space,0.3682,0,50,50,10,1,11,image/11.jpg,0,0,,R_37HoYLt2WoBiFYl,2,2024-05-24_12h44.01.413,face trait task,2021.2.3,Win32,59.88023952,121486,,,,,,,
,,,,,,5.683333333,5.8546,space,2.3693,0,51,51,21,1,22,image/22.jpg,0,0,,R_37HoYLt2WoBiFYl,2,2024-05-24_12h44.01.413,face trait task,2021.2.3,Win32,59.88023952,121486,,,,,,,
,,,,,,6.894444784,3.051,space,1.3177,0,52,52,51,1,60,image/fill_img.png,1,7,Please move the slider all the way to the RIGHT to show that you are paying attention.,R_37HoYLt2WoBiFYl,2,2024-05-24_12h44.01.413,face trait task,2021.2.3,Win32,59.88023952,121486,,,,,,,
,,,,,,,,,,,,,,,,,,,,R_37HoYLt2WoBiFYl,2,2024-05-24_12h44.01.413,face trait task,2021.2.3,Win32,59.88023952,121486,0,1,1,0,1,0,critical.png
,,,,,trustworthy,2.883333333,2.4478,space,0.3376,0,0,0,45,1,46,image/46.jpg,0,0,,R_37HoYLt2WoBiFYl,2,2024-05-24_12h44.01.413,face trait task,2021.2.3,Win32,59.88023952,121486,,,,,,,
,,,,,,3.144444784,2.6236,space,0.6785,0,1,1,24,1,25,image/25.jpg,0,0,,R_37HoYLt2WoBiFYl,2,2024-05-24_12h44.01.413,face trait task,2021.2.3,Win32,59.88023952,121486,,,,,,,
,,,,,,5.172222392,1.8959,space,0.4851,0,2,2,31,1,32,image/32.jpg,0,0,,R_37HoYLt2WoBiFYl,2,2024-05-24_12h44.01.413,face trait task,2021.2.3,Win32,59.88023952,121486,,,,,,,
,,,,,,5.338889058,1.4933,space,0.3329,0,3,3,18,1,19,image/19.jpg,0,0,,R_37HoYLt2WoBiFYl,2,2024-05-24_12h44.01.413,face trait task,2021.2.3,Win32,59.88023952,121486,,,,,,,
,,,,,,3.96111145,1.7415,space,0.3419,0,4,4,48,1,49,image/49.jpg,0,0,,R_37HoYLt2WoBiFYl,2,2024-05-24_12h44.01.413,face trait task,2021.2.3,Win32,59.88023952,121486,,,,,,,
,,,,,,3.744444784,2.0735,space,0.3369,0,5,5,9,1,10,image/10.jpg,0,0,,R_37HoYLt2WoBiFYl,2,2024-05-24_12h44.01.413,face trait task,2021.2.3,Win32,59.88023952,121486,,,,,,,
,,,,,,4.738889058,1.5184,space,0.3582,0,6,6,26,1,27,image/27.jpg,0,0,,R_37HoYLt2WoBiFYl,2,2024-05-24_12h44.01.413,face trait task,2021.2.3,Win32,59.88023952,121486,,,,,,,
,,,,,,4.788889058,1.7707,space,0.3021,0,7,7,4,1,5,image/5.jpg,0,0,,R_37HoYLt2WoBiFYl,2,2024-05-24_12h44.01.413,face trait task,2021.2.3,Win32,59.88023952,121486,,,,,,,
,,,,,,5.133333333,2.1755,space,0.2621,0,8,8,20,1,21,image/21.jpg,0,0,,R_37HoYLt2WoBiFYl,2,2024-05-24_12h44.01.413,face trait task,2021.2.3,Win32,59.88023952,121486,,,,,,,
,,,,,,4.905555725,2.9585,space,0.836,0,9,9,32,1,33,image/33.jpg,0,0,,R_37HoYLt2WoBiFYl,2,2024-05-24_12h44.01.413,face trait task,2021.2.3,Win32,59.88023952,121486,,,,,,,
,,,,,,2.977778117,2.4247,space,0.3293,0,10,10,22,1,23,image/23.jpg,0,0,,R_37HoYLt2WoBiFYl,2,2024-05-24_12h44.01.413,face trait task,2021.2.3,Win32,59.88023952,121486,,,,,,,
,,,,,,5.1,2.1716,space,0.3669,0,11,11,14,1,15,image/15.jpg,0,0,,R_37HoYLt2WoBiFYl,2,2024-05-24_12h44.01.413,face trait task,2021.2.3,Win32,59.88023952,121486,,,,,,,
,,,,,,3.722222392,3.0458,space,0.4117,0,12,12,23,1,24,image/24.jpg,0,0,,R_37HoYLt2WoBiFYl,2,2024-05-24_12h44.01.413,face trait task,2021.2.3,Win32,59.88023952,121486,,,,,,,
,,,,,,1.772222392,2.1719,space,0.2855,0,13,13,40,1,41,image/41.jpg,0,0,,R_37HoYLt2WoBiFYl,2,2024-05-24_12h44.01.413,face trait task,2021.2.3,Win32,59.88023952,121486,,,,,,,
,,,,,,1.594444529,1.7765,space,0.3548,0,14,14,46,1,47,image/47.jpg,0,0,,R_37HoYLt2WoBiFYl,2,2024-05-24_12h44.01.413,face trait task,2021.2.3,Win32,59.88023952,121486,,,,,,,
,,,,,,5.916666667,2.0566,space,0.3049,0,15,15,3,1,4,image/4.jpg,0,0,,R_37HoYLt2WoBiFYl,2,2024-05-24_12h44.01.413,face trait task,2021.2.3,Win32,59.88023952,121486,,,,,,,
,,,,,,4.188889058,2.7374,space,0.4579,0,16,16,28,1,29,image/29.jpg,0,0,,R_37HoYLt2WoBiFYl,2,2024-05-24_12h44.01.413,face trait task,2021.2.3,Win32,59.88023952,121486,,,,,,,
,,,,,,2.472222392,3.1723,space,0.1844,0,17,17,8,1,9,image/9.jpg,0,0,,R_37HoYLt2WoBiFYl,2,2024-05-24_12h44.01.413,face trait task,2021.2.3,Win32,59.88023952,121486,,,,,,,
,,,,,,5.894444784,6.0444,space,1.588,0,18,18,33,1,34,image/34.jpg,0,0,,R_37HoYLt2WoBiFYl,2,2024-05-24_12h44.01.413,face trait task,2021.2.3,Win32,59.88023952,121486,,,,,,,
,,,,,,3.522222392,5.3176,space,2.4958,0,19,19,11,1,12,image/12.jpg,0,0,,R_37HoYLt2WoBiFYl,2,2024-05-24_12h44.01.413,face trait task,2021.2.3,Win32,59.88023952,121486,,,,,,,
,,,,,,5.96111145,7.392,space,0.5515,0,20,20,21,1,22,image/22.jpg,0,0,,R_37HoYLt2WoBiFYl,2,2024-05-24_12h44.01.413,face trait task,2021.2.3,Win32,59.88023952,121486,,,,,,,
,,,,,,4.305555725,3.309,space,0.5511,0,21,21,16,1,17,image/17.jpg,0,0,,R_37HoYLt2WoBiFYl,2,2024-05-24_12h44.01.413,face trait task,2021.2.3,Win32,59.88023952,121486,,,,,,,
,,,,,,3.144444784,13.2779,space,0.8008,0,22,22,5,1,6,image/6.jpg,0,0,,R_37HoYLt2WoBiFYl,2,2024-05-24_12h44.01.413,face trait task,2021.2.3,Win32,59.88023952,121486,,,,,,,
,,,,,,4.683333333,3.6702,space,0.4763,0,23,23,19,1,20,image/20.jpg,0,0,,R_37HoYLt2WoBiFYl,2,2024-05-24_12h44.01.413,face trait task,2021.2.3,Win32,59.88023952,121486,,,,,,,
,,,,,,3.855555725,2.6574,space,0.3547,0,24,24,6,1,7,image/7.jpg,0,0,,R_37HoYLt2WoBiFYl,2,2024-05-24_12h44.01.413,face trait task,2021.2.3,Win32,59.88023952,121486,,,,,,,
,,,,,,2.96111145,3.2417,space,0.6175,0,25,25,47,1,48,image/48.jpg,0,0,,R_37HoYLt2WoBiFYl,2,2024-05-24_12h44.01.413,face trait task,2021.2.3,Win32,59.88023952,121486,,,,,,,
,,,,,,2.694444529,3.5013,space,0.4796,0,26,26,37,1,38,image/38.jpg,0,0,,R_37HoYLt2WoBiFYl,2,2024-05-24_12h44.01.413,face trait task,2021.2.3,Win32,59.88023952,121486,,,,,,,
,,,,,,2.105555725,1.8207,space,1.018,0,27,27,39,1,40,image/40.jpg,0,0,,R_37HoYLt2WoBiFYl,2,2024-05-24_12h44.01.413,face trait task,2021.2.3,Win32,59.88023952,121486,,,,,,,
,,,,,,5,2.9365,space,1.2191,0,28,28,30,1,31,image/31.jpg,0,0,,R_37HoYLt2WoBiFYl,2,2024-05-24_12h44.01.413,face trait task,2021.2.3,Win32,59.88023952,121486,,,,,,,
,,,,,,3.833333333,5.3779,space,2.5424,0,29,29,41,1,42,image/42.jpg,0,0,,R_37HoYLt2WoBiFYl,2,2024-05-24_12h44.01.413,face trait task,2021.2.3,Win32,59.88023952,121486,,,,,,,
,,,,,,4.338889058,4.6874,space,2.2543,0,30,30,25,1,26,image/26.jpg,0,0,,R_37HoYLt2WoBiFYl,2,2024-05-24_12h44.01.413,face trait task,2021.2.3,Win32,59.88023952,121486,,,,,,,
,,,,,,4.338889058,1.6696,space,0.4438,0,31,31,13,1,14,image/14.jpg,0,0,,R_37HoYLt2WoBiFYl,2,2024-05-24_12h44.01.413,face trait task,2021.2.3,Win32,59.88023952,121486,,,,,,,
,,,,,,3.766666667,4.1851,space,2.6706,0,32,32,34,1,35,image/35.jpg,0,0,,R_37HoYLt2WoBiFYl,2,2024-05-24_12h44.01.413,face trait task,2021.2.3,Win32,59.88023952,121486,,,,,,,
,,,,,,3.788889058,6.1074,space,4.0232,0,33,33,43,1,44,image/44.jpg,0,0,,R_37HoYLt2WoBiFYl,2,2024-05-24_12h44.01.413,face trait task,2021.2.3,Win32,59.88023952,121486,,,,,,,
,,,,,,2.694444529,7.2348,space,2.5019,0,34,34,38,1,39,image/39.jpg,0,0,,R_37HoYLt2WoBiFYl,2,2024-05-24_12h44.01.413,face trait task,2021.2.3,Win32,59.88023952,121486,,,,,,,
,,,,,,3.222222392,3.5567,space,1.5162,0,35,35,7,1,8,image/8.jpg,0,0,,R_37HoYLt2WoBiFYl,2,2024-05-24_12h44.01.413,face trait task,2021.2.3,Win32,59.88023952,121486,,,,,,,
,,,,,,4.922222392,3.6888,space,0.9635,0,36,36,36,1,37,image/37.jpg,0,0,,R_37HoYLt2WoBiFYl,2,2024-05-24_12h44.01.413,face trait task,2021.2.3,Win32,59.88023952,121486,,,,,,,
,,,,,,4.96111145,4.4605,space,0.5296,0,37,37,0,1,1,image/1.jpg,0,0,,R_37HoYLt2WoBiFYl,2,2024-05-24_12h44.01.413,face trait task,2021.2.3,Win32,59.88023952,121486,,,,,,,
,,,,,,5.883333333,2.0292,space,0.8347,0,38,38,17,1,18,image/18.jpg,0,0,,R_37HoYLt2WoBiFYl,2,2024-05-24_12h44.01.413,face trait task,2021.2.3,Win32,59.88023952,121486,,,,,,,
,,,,,,6.966666667,1.908,space,0.4031,0,39,39,50,1,60,image/fill_img.png,1,7,Please move the slider all the way to the RIGHT to show that you are paying attention.,R_37HoYLt2WoBiFYl,2,2024-05-24_12h44.01.413,face trait task,2021.2.3,Win32,59.88023952,121486,,,,,,,
,,,,,,3.85,4.9898,space,1.6519,0,40,40,44,1,45,image/45.jpg,0,0,,R_37HoYLt2WoBiFYl,2,2024-05-24_12h44.01.413,face trait task,2021.2.3,Win32,59.88023952,121486,,,,,,,
,,,,,,6.966666667,1.8722,space,0.4243,0,41,41,52,1,59,image/fill_img.png,1,7,Please move the slider all the way to the RIGHT to show that you are paying attention.,R_37HoYLt2WoBiFYl,2,2024-05-24_12h44.01.413,face trait task,2021.2.3,Win32,59.88023952,121486,,,,,,,
,,,,,,4.966666667,5.8504,space,1.0593,0,42,42,1,1,2,image/2.jpg,0,0,,R_37HoYLt2WoBiFYl,2,2024-05-24_12h44.01.413,face trait task,2021.2.3,Win32,59.88023952,121486,,,,,,,
,,,,,,4.222222392,4.8973,space,3.5334,0,43,43,15,1,16,image/16.jpg,0,0,,R_37HoYLt2WoBiFYl,2,2024-05-24_12h44.01.413,face trait task,2021.2.3,Win32,59.88023952,121486,,,,,,,
,,,,,,4.222222392,3.5691,space,0.4669,0,44,44,27,1,28,image/28.jpg,0,0,,R_37HoYLt2WoBiFYl,2,2024-05-24_12h44.01.413,face trait task,2021.2.3,Win32,59.88023952,121486,,,,,,,
,,,,,,4.86111145,8.7205,space,0.6295,0,45,45,35,1,36,image/36.jpg,0,0,,R_37HoYLt2WoBiFYl,2,2024-05-24_12h44.01.413,face trait task,2021.2.3,Win32,59.88023952,121486,,,,,,,
,,,,,,6.966666667,3.4637,space,0.4145,0,46,46,51,1,60,image/fill_img.png,1,7,Please move the slider all the way to the RIGHT to show that you are paying attention.,R_37HoYLt2WoBiFYl,2,2024-05-24_12h44.01.413,face trait task,2021.2.3,Win32,59.88023952,121486,,,,,,,
,,,,,,3.96111145,8.2171,space,0.4343,0,47,47,49,1,50,image/50.jpg,0,0,,R_37HoYLt2WoBiFYl,2,2024-05-24_12h44.01.413,face trait task,2021.2.3,Win32,59.88023952,121486,,,,,,,
,,,,,,3.75,4.2989,space,0.4407,0,48,48,10,1,11,image/11.jpg,0,0,,R_37HoYLt2WoBiFYl,2,2024-05-24_12h44.01.413,face trait task,2021.2.3,Win32,59.88023952,121486,,,,,,,
,,,,,,5.466666667,4.158,space,2.0758,0,49,49,2,1,3,image/3.jpg,0,0,,R_37HoYLt2WoBiFYl,2,2024-05-24_12h44.01.413,face trait task,2021.2.3,Win32,59.88023952,121486,,,,,,,
,,,,,,2.322222392,1.8851,space,0.5194,0,50,50,42,1,43,image/43.jpg,0,0,,R_37HoYLt2WoBiFYl,2,2024-05-24_12h44.01.413,face trait task,2021.2.3,Win32,59.88023952,121486,,,,,,,
,,,,,,5.06111145,3.6905,space,1.3511,0,51,51,12,1,13,image/13.jpg,0,0,,R_37HoYLt2WoBiFYl,2,2024-05-24_12h44.01.413,face trait task,2021.2.3,Win32,59.88023952,121486,,,,,,,
,,,,,,5.094444784,6.46,space,1.0692,0,52,52,29,1,30,image/30.jpg,0,0,,R_37HoYLt2WoBiFYl,2,2024-05-24_12h44.01.413,face trait task,2021.2.3,Win32,59.88023952,121486,,,,,,,
,,,,,,,,,,,,,,,,,,,,R_37HoYLt2WoBiFYl,2,2024-05-24_12h44.01.413,face trait task,2021.2.3,Win32,59.88023952,121486,0,2,2,2,1,2,trustworthy.png
,,,,,friendly,4.422222392,5.9092,space,0.9803,0,0,0,47,1,48,image/48.jpg,0,0,,R_37HoYLt2WoBiFYl,2,2024-05-24_12h44.01.413,face trait task,2021.2.3,Win32,59.88023952,121486,,,,,,,
,,,,,,3.994444784,2.2111,space,0.3356,0,1,1,3,1,4,image/4.jpg,0,0,,R_37HoYLt2WoBiFYl,2,2024-05-24_12h44.01.413,face trait task,2021.2.3,Win32,59.88023952,121486,,,,,,,
,,,,,,5.572222392,1.7096,space,0.3447,0,2,2,36,1,37,image/37.jpg,0,0,,R_37HoYLt2WoBiFYl,2,2024-05-24_12h44.01.413,face trait task,2021.2.3,Win32,59.88023952,121486,,,,,,,
,,,,,,4.66111145,3.3374,space,1.6854,0,3,3,40,1,41,image/41.jpg,0,0,,R_37HoYLt2WoBiFYl,2,2024-05-24_12h44.01.413,face trait task,2021.2.3,Win32,59.88023952,121486,,,,,,,
,,,,,,5.25,2.1432,space,0.7689,0,4,4,43,1,44,image/44.jpg,0,0,,R_37HoYLt2WoBiFYl,2,2024-05-24_12h44.01.413,face trait task,2021.2.3,Win32,59.88023952,121486,,,,,,,
,,,,,,4.277778117,1.9403,space,0.5837,0,5,5,8,1,9,image/9.jpg,0,0,,R_37HoYLt2WoBiFYl,2,2024-05-24_12h44.01.413,face trait task,2021.2.3,Win32,59.88023952,121486,,,,,,,
,,,,,,6.972222392,2.2236,space,0.6364,0,6,6,51,1,60,image/fill_img.png,1,7,Please move the slider all the way to the RIGHT to show that you are paying attention.,R_37HoYLt2WoBiFYl,2,2024-05-24_12h44.01.413,face trait task,2021.2.3,Win32,59.88023952,121486,,,,,,,
,,,,,,5.072222392,6.1535,space,4.8357,0,7,7,18,1,19,image/19.jpg,0,0,,R_37HoYLt2WoBiFYl,2,2024-05-24_12h44.01.413,face trait task,2021.2.3,Win32,59.88023952,121486,,,,,,,
,,,,,,6.983333333,1.4987,space,0.3999,0,8,8,50,1,60,image/fill_img.png,1,7,Please move the slider all the way to the RIGHT to show that you are paying attention.,R_37HoYLt2WoBiFYl,2,2024-05-24_12h44.01.413,face trait task,2021.2.3,Win32,59.88023952,121486,,,,,,,
,,,,,,2.827777863,2.0273,space,1.8667,0,9,9,13,1,14,image/14.jpg,0,0,,R_37HoYLt2WoBiFYl,2,2024-05-24_12h44.01.413,face trait task,2021.2.3,Win32,59.88023952,121486,,,,,,,
,,,,,,3.96111145,2.7565,space,0.3416,0,10,10,26,1,27,image/27.jpg,0,0,,R_37HoYLt2WoBiFYl,2,2024-05-24_12h44.01.413,face trait task,2021.2.3,Win32,59.88023952,121486,,,,,,,
,,,,,,2.972222392,2.0449,space,0.5508,0,11,11,30,1,31,image/31.jpg,0,0,,R_37HoYLt2WoBiFYl,2,2024-05-24_12h44.01.413,face trait task,2021.2.3,Win32,59.88023952,121486,,,,,,,
,,,,,,3.827778117,4.5849,space,0.3007,0,12,12,14,1,15,image/15.jpg,0,0,,R_37HoYLt2WoBiFYl,2,2024-05-24_12h44.01.413,face trait task,2021.2.3,Win32,59.88023952,121486,,,,,,,
,,,,,,5.105555725,3.6371,space,0.3681,0,13,13,10,1,11,image/11.jpg,0,0,,R_37HoYLt2WoBiFYl,2,2024-05-24_12h44.01.413,face trait task,2021.2.3,Win32,59.88023952,121486,,,,,,,
,,,,,,3.133333333,3.9212,space,0.4439,0,14,14,46,1,47,image/47.jpg,0,0,,R_37HoYLt2WoBiFYl,2,2024-05-24_12h44.01.413,face trait task,2021.2.3,Win32,59.88023952,121486,,,,,,,
,,,,,,5.055555725,2.1592,space,1.4443,0,15,15,11,1,12,image/12.jpg,0,0,,R_37HoYLt2WoBiFYl,2,2024-05-24_12h44.01.413,face trait task,2021.2.3,Win32,59.88023952,121486,,,,,,,
,,,,,,3,3.0684,space,1.3342,0,16,16,28,1,29,image/29.jpg,0,0,,R_37HoYLt2WoBiFYl,2,2024-05-24_12h44.01.413,face trait task,2021.2.3,Win32,59.88023952,121486,,,,,,,
,,,,,,3.944444784,2.1643,space,0.9058,0,17,17,12,1,13,image/13.jpg,0,0,,R_37HoYLt2WoBiFYl,2,2024-05-24_12h44.01.413,face trait task,2021.2.3,Win32,59.88023952,121486,,,,,,,
,,,,,,5.044444784,3.7495,space,0.5526,0,18,18,48,1,49,image/49.jpg,0,0,,R_37HoYLt2WoBiFYl,2,2024-05-24_12h44.01.413,face trait task,2021.2.3,Win32,59.88023952,121486,,,,,,,
,,,,,,5.777778117,4.6102,space,1.2693,0,19,19,1,1,2,image/2.jpg,0,0,,R_37HoYLt2WoBiFYl,2,2024-05-24_12h44.01.413,face trait task,2021.2.3,Win32,59.88023952,121486,,,,,,,
,,,,,,1.561111196,2.6435,space,0.3686,0,20,20,39,1,40,image/40.jpg,0,0,,R_37HoYLt2WoBiFYl,2,2024-05-24_12h44.01.413,face trait task,2021.2.3,Win32,59.88023952,121486,,,,,,,
,,,,,,5.71111145,5.9537,space,2.1695,0,21,21,20,1,21,image/21.jpg,0,0,,R_37HoYLt2WoBiFYl,2,2024-05-24_12h44.01.413,face trait task,2021.2.3,Win32,59.88023952,121486,,,,,,,
,,,,,,4.516666667,2.22,space,1.2091,0,22,22,22,1,23,image/23.jpg,0,0,,R_37HoYLt2WoBiFYl,2,2024-05-24_12h44.01.413,face trait task,2021.2.3,Win32,59.88023952,121486,,,,,,,
,,,,,,4.094444784,11.1278,space,0.2557,0,23,23,27,1,28,image/28.jpg,0,0,,R_37HoYLt2WoBiFYl,2,2024-05-24_12h44.01.413,face trait task,2021.2.3,Win32,59.88023952,121486,,,,,,,
,,,,,,4.977778117,6.0619,space,0.6636,0,24,24,49,1,50,image/50.jpg,0,0,,R_37HoYLt2WoBiFYl,2,2024-05-24_12h44.01.413,face trait task,2021.2.3,Win32,59.88023952,121486,,,,,,,
,,,,,,3.572222392,4.2182,space,0.212,0,25,25,29,1,30,image/30.jpg,0,0,,R_37HoYLt2WoBiFYl,2,2024-05-24_12h44.01.413,face trait task,2021.2.3,Win32,59.88023952,121486,,,,,,,
,,,,,,5.416666667,2.4914,space,0.6243,0,26,26,2,1,3,image/3.jpg,0,0,,R_37HoYLt2WoBiFYl,2,2024-05-24_12h44.01.413,face trait task,2021.2.3,Win32,59.88023952,121486,,,,,,,
,,,,,,4.988889058,2.4596,space,0.3113,0,27,27,32,1,33,image/33.jpg,0,0,,R_37HoYLt2WoBiFYl,2,2024-05-24_12h44.01.413,face trait task,2021.2.3,Win32,59.88023952,121486,,,,,,,
,,,,,,4.705555725,2.4931,space,0.9184,0,28,28,4,1,5,image/5.jpg,0,0,,R_37HoYLt2WoBiFYl,2,2024-05-24_12h44.01.413,face trait task,2021.2.3,Win32,59.88023952,121486,,,,,,,
,,,,,,6.95,2.9106,space,3.0252,0,29,29,52,1,59,image/fill_img.png,1,7,Please move the slider all the way to the RIGHT to show that you are paying attention.,R_37HoYLt2WoBiFYl,2,2024-05-24_12h44.01.413,face trait task,2021.2.3,Win32,59.88023952,121486,,,,,,,
,,,,,,5.005555725,3.218,space,0.4144,0,30,30,17,1,18,image/18.jpg,0,0,,R_37HoYLt2WoBiFYl,2,2024-05-24_12h44.01.413,face trait task,2021.2.3,Win32,59.88023952,121486,,,,,,,
,,,,,,4.116666667,5.5216,space,0.392,0,31,31,7,1,8,image/8.jpg,0,0,,R_37HoYLt2WoBiFYl,2,2024-05-24_12h44.01.413,face trait task,2021.2.3,Win32,59.88023952,121486,,,,,,,
,,,,,,3.066666667,3.0687,space,0.3247,0,32,32,19,1,20,image/20.jpg,0,0,,R_37HoYLt2WoBiFYl,2,2024-05-24_12h44.01.413,face trait task,2021.2.3,Win32,59.88023952,121486,,,,,,,
,,,,,,2.616666667,2.4057,space,0.4576,0,33,33,5,1,6,image/6.jpg,0,0,,R_37HoYLt2WoBiFYl,2,2024-05-24_12h44.01.413,face trait task,2021.2.3,Win32,59.88023952,121486,,,,,,,
,,,,,,5.016666667,9.3319,space,4.9853,0,34,34,33,1,34,image/34.jpg,0,0,,R_37HoYLt2WoBiFYl,2,2024-05-24_12h44.01.413,face trait task,2021.2.3,Win32,59.88023952,121486,,,,,,,
,,,,,,3.833333333,2.28,space,0.2259,0,35,35,31,1,32,image/32.jpg,0,0,,R_37HoYLt2WoBiFYl,2,2024-05-24_12h44.01.413,face trait task,2021.2.3,Win32,59.88023952,121486,,,,,,,
,,,,,,2.488889058,3.5138,space,0.4005,0,36,36,37,1,38,image/38.jpg,0,0,,R_37HoYLt2WoBiFYl,2,2024-05-24_12h44.01.413,face trait task,2021.2.3,Win32,59.88023952,121486,,,,,,,
,,,,,,3.75,4.0852,space,0.2547,0,37,37,21,1,22,image/22.jpg,0,0,,R_37HoYLt2WoBiFYl,2,2024-05-24_12h44.01.413,face trait task,2021.2.3,Win32,59.88023952,121486,,,,,,,
,,,,,,1.166666667,4.8986,space,0.243,0,38,38,42,1,43,image/43.jpg,0,0,,R_37HoYLt2WoBiFYl,2,2024-05-24_12h44.01.413,face trait task,2021.2.3,Win32,59.88023952,121486,,,,,,,
,,,,,,3.16111145,3.8356,space,1.7677,0,39,39,23,1,24,image/24.jpg,0,0,,R_37HoYLt2WoBiFYl,2,2024-05-24_12h44.01.413,face trait task,2021.2.3,Win32,59.88023952,121486,,,,,,,
,,,,,,2.766666667,3.3626,space,2.3856,0,40,40,15,1,16,image/16.jpg,0,0,,R_37HoYLt2WoBiFYl,2,2024-05-24_12h44.01.413,face trait task,2021.2.3,Win32,59.88023952,121486,,,,,,,
,,,,,,1.75,2.3185,space,0.3233,0,41,41,45,1,46,image/46.jpg,0,0,,R_37HoYLt2WoBiFYl,2,2024-05-24_12h44.01.413,face trait task,2021.2.3,Win32,59.88023952,121486,,,,,,,
,,,,,,3.838889058,3.0212,space,0.7471,0,42,42,9,1,10,image/10.jpg,0,0,,R_37HoYLt2WoBiFYl,2,2024-05-24_12h44.01.413,face trait task,2021.2.3,Win32,59.88023952,121486,,,,,,,
,,,,,,3.288889058,1.8198,space,0.3113,0,43,43,38,1,39,image/39.jpg,0,0,,R_37HoYLt2WoBiFYl,2,2024-05-24_12h44.01.413,face trait task,2021.2.3,Win32,59.88023952,121486,,,,,,,
,,,,,,4.488889058,1.887,space,0.224,0,44,44,41,1,42,image/42.jpg,0,0,,R_37HoYLt2WoBiFYl,2,2024-05-24_12h44.01.413,face trait task,2021.2.3,Win32,59.88023952,121486,,,,,,,
,,,,,,4.55,9.9109,space,0.2394,0,45,45,34,1,35,image/35.jpg,0,0,,R_37HoYLt2WoBiFYl,2,2024-05-24_12h44.01.413,face trait task,2021.2.3,Win32,59.88023952,121486,,,,,,,
,,,,,,3.327778117,2.1509,space,0.4082,0,46,46,16,1,17,image/17.jpg,0,0,,R_37HoYLt2WoBiFYl,2,2024-05-24_12h44.01.413,face trait task,2021.2.3,Win32,59.88023952,121486,,,,,,,
,,,,,,3.805555725,4.3489,space,0.5524,0,47,47,25,1,26,image/26.jpg,0,0,,R_37HoYLt2WoBiFYl,2,2024-05-24_12h44.01.413,face trait task,2021.2.3,Win32,59.88023952,121486,,,,,,,
,,,,,,5.15,3.3223,space,0.302,0,48,48,35,1,36,image/36.jpg,0,0,,R_37HoYLt2WoBiFYl,2,2024-05-24_12h44.01.413,face trait task,2021.2.3,Win32,59.88023952,121486,,,,,,,
,,,,,,4.505555725,5.728,space,0.4588,0,49,49,6,1,7,image/7.jpg,0,0,,R_37HoYLt2WoBiFYl,2,2024-05-24_12h44.01.413,face trait task,2021.2.3,Win32,59.88023952,121486,,,,,,,
,,,,,,4.555555725,4.9209,space,0.4842,0,50,50,44,1,45,image/45.jpg,0,0,,R_37HoYLt2WoBiFYl,2,2024-05-24_12h44.01.413,face trait task,2021.2.3,Win32,59.88023952,121486,,,,,,,
,,,,,,4.183333333,3.8258,space,0.2775,0,51,51,24,1,25,image/25.jpg,0,0,,R_37HoYLt2WoBiFYl,2,2024-05-24_12h44.01.413,face trait task,2021.2.3,Win32,59.88023952,121486,,,,,,,
,,,,,,3.205555725,4.2111,space,0.4845,0,52,52,0,1,1,image/1.jpg,0,0,,R_37HoYLt2WoBiFYl,2,2024-05-24_12h44.01.413,face trait task,2021.2.3,Win32,59.88023952,121486,,,,,,,
,,,,,,,,,,,,,,,,,,,,R_37HoYLt2WoBiFYl,2,2024-05-24_12h44.01.413,face trait task,2021.2.3,Win32,59.88023952,121486,0,3,3,3,1,3,friendly.png
