chooserow,ParID,pre_instru_resp_2.keys,pre_instru_resp_2.rt,pre_instru_resp_3.keys,pre_instru_resp_3.rt,pre_instru_resp_9.keys,pre_instru_resp_9.rt,pre_instru_resp_8.keys,pre_instru_resp_8.rt,pre_instru_resp_4.keys,pre_instru_resp_4.rt,pre_instru_resp_5.keys,pre_instru_resp_5.rt,pre_instru_resp_6.keys,pre_instru_resp_6.rt,key_resp_3.keys,key_resp_3.rt,key_resp_4.keys,key_resp_4.rt,key_resp_5.keys,key_resp_5.rt,key_resp_6.keys,key_resp_6.rt,key_resp_7.keys,key_resp_7.rt,trials_2.thisRepN,trials_2.thisTrialN,trials_2.thisN,trials_2.thisIndex,trials_2.ran,participant,session,date,expName,psychopyVersion,OS,frameRate,SONAid,pre_instru_resp.keys,pre_instru_resp.rt,clicked,judge_2.x,judge_2.y,judge_2.leftButton,judge_2.midButton,judge_2.rightButton,judge_2.clicked_name,trials.thisRepN,trials.thisTrialN,trials.thisN,trials.thisIndex,trials.ran,prac_answer,prac_dot_sti,dotlefttext,dotrighttext,prac_acc,judge.x,judge.y,judge.leftButton,judge.midButton,judge.rightButton,judge.clicked_name,clicked_guilt,slider_guilt.response,slider_guilt.rt,key_guilt.keys,share_slider.response,share_slider.rt,key_share.keys,slider_apology.response,slider_apology.rt,key_apology.keys,key_apology.rt,slider_hide.response,slider_hide.rt,slider_forgiveness.response,slider_forgiveness.rt,key_forgiveness.keys,slider_mad.response,slider_mad.rt,trialseq.thisRepN,trialseq.thisTrialN,trialseq.thisN,trialseq.thisIndex,trialseq.ran,type_trial,stipic,DV,picture,answer,number,key_forgiveness.rt,key_guilt.rt,key_share.rt,incompleteTrials,trials_redo.thisRepN,trials_redo.thisTrialN,trials_redo.thisN,trials_redo.thisIndex,trials_redo.ran
"[124,13,181,155,25,77,58,135,188,6,168,172,68,165,94,157,128,60,203,74,179,136,114,145,140,113,83,40,187,150,97,110,131,90,49,159,59,100,63,103,84,197]",R_3bNMAkMCLdBCePj,space,2.2562,space,3.8011,space,11.9565,space,2.0372,space,7.17,space,9.8288,space,5.7816,3,5.3066,3,7.3612,2,7.1288,2,2358.1418,3,10.3332,0,0,0,0,1,R_3bNMAkMCLdBCePj,1,2024-05-01_15h57.58.566,interaction task,2021.2.3,MacIntel,59.88023952,120240,,,,,,,,,,,,,,,,,,,,,,,,,,,,,,,,,,,,,,,,,,,,,,,,,,,,,,,,,,,,,,,
,,,,space,4.6996,space,18.1452,space,28.9658,space,42.7532,space,13.816,space,2.1979,3,2.3793,1,5.0126,3,4.3458,2,6.2768,2,5.0816,1,0,1,0,1,R_3bNMAkMCLdBCePj,1,2024-05-01_15h57.58.566,interaction task,2021.2.3,MacIntel,59.88023952,120240,,,,,,,,,,,,,,,,,,,,,,,,,,,,,,,,,,,,,,,,,,,,,,,,,,,,,,,,,,,,,,,
,,,,,,,,,,,,,,,,,,,,,,,,,,,,,,,R_3bNMAkMCLdBCePj,1,2024-05-01_15h57.58.566,interaction task,2021.2.3,MacIntel,59.88023952,120240,space,5.017,"[""RightButton_2""]",0.280187075,-0.331045362,1,0,0,RightButton_2,0,0,0,0,1,RightButton_2,9dot1.png,Greater,Smaller,,,,,,,,,,,,,,,,,,,,,,,,,,,,,,,,,,,,,,,,,,,,,
,,,,,,,,,,,,,,,,,,,,,,,,,,,,,,,R_3bNMAkMCLdBCePj,1,2024-05-01_15h57.58.566,interaction task,2021.2.3,MacIntel,59.88023952,120240,,,"[""RightButton_2""]",0.280187075,-0.331045362,1,0,0,RightButton_2,0,1,1,2,1,RightButton_2,9dot1.png,Greater,Smaller,,,,,,,,,,,,,,,,,,,,,,,,,,,,,,,,,,,,,,,,,,,,,
,,,,,,,,,,,,,,,,,,,,,,,,,,,,,,,R_3bNMAkMCLdBCePj,1,2024-05-01_15h57.58.566,interaction task,2021.2.3,MacIntel,59.88023952,120240,,,"[""RightButton_2""]",0.291124575,-0.334402711,1,0,0,RightButton_2,0,2,2,1,1,RightButton_2,9dot2.png,Greater,Smaller,,,,,,,,,,,,,,,,,,,,,,,,,,,,,,,,,,,,,,,,,,,,,
,,,,,,,,,,,,,,,,,,,,,,,,,,,,,,,R_3bNMAkMCLdBCePj,1,2024-05-01_15h57.58.566,interaction task,2021.2.3,MacIntel,59.88023952,120240,,,,,,,,,,,,,,,,,Greater,Smaller,0.6,0.283843537,-0.497655184,1,0,0,RightButton,"[""RightButton""]",,,,,,,9,10.2659,space,3.7068,0,17.2163,,,,,,0,0,0,0,1,2,only_sub_right.png,2,RandomDot20.png,No answer,20,,,,,,,,,
,,,,,,,,,,,,,,,,,,,,,,,,,,,,,,,R_3bNMAkMCLdBCePj,1,2024-05-01_15h57.58.566,interaction task,2021.2.3,MacIntel,59.88023952,120240,,,,,,,,,,,,,,,,,Greater,Smaller,,0.299346301,-0.491537347,1,0,0,RightButton,"[""RightButton""]",,,,,,,,,,,,,,,,,,0,1,1,1,1,0,both_right.png,1,RandomDot28.png,No answer,21,,,,,,,,,
,,,,,,,,,,,,,,,,,,,,,,,,,,,,,,,R_3bNMAkMCLdBCePj,1,2024-05-01_15h57.58.566,interaction task,2021.2.3,MacIntel,59.88023952,120240,,,,,,,,,,,,,,,,,Greater,Smaller,,0.299346301,-0.488691593,1,0,0,RightButton,"[""RightButton""]",,,,,,,,,,,,,45.53625112,20.9502,space,24.66533962,23.4002,0,2,2,2,1,3,only_sub_wrong.png,3,RandomDot3.png,No answer,19,3.5817,,,,,,,,
,,,,,,,,,,,,,,,,,,,,,,,,,,,,,,,R_3bNMAkMCLdBCePj,1,2024-05-01_15h57.58.566,interaction task,2021.2.3,MacIntel,59.88023952,120240,,,,,,,,,,,,,,,,,Smaller,Greater,,-0.268319515,-0.464710522,1,0,0,LeftButton,"[""LeftButton""]",70,5.2447,space,,,,,,,,,,,,,,,0,3,3,3,1,3,only_sub_wrong.png,0,RandomDot2.png,No answer,20,,1.4507,,,,,,,
,,,,,,,,,,,,,,,,,,,,,,,,,,,,,,,R_3bNMAkMCLdBCePj,1,2024-05-01_15h57.58.566,interaction task,2021.2.3,MacIntel,59.88023952,120240,,,,,,,,,,,,,,,,,Greater,Smaller,,-0.346859056,-0.479280355,1,0,0,LeftButton,"[""LeftButton""]",,,,,,,,,,,,,,,,,,0,4,4,4,1,0,both_right.png,2,RandomDot39.png,No answer,20,,,,,,,,,
,,,,,,,,,,,,,,,,,,,,,,,,,,,,,,,R_3bNMAkMCLdBCePj,1,2024-05-01_15h57.58.566,interaction task,2021.2.3,MacIntel,59.88023952,120240,,,,,,,,,,,,,,,,,Greater,Smaller,,0.235161565,-0.536792292,1,0,0,RightButton,"[""RightButton""]",,,,,,,10,6.372,space,2.417,11,9.6742,,,,,,0,5,5,5,1,1,both_wrong.png,2,RandomDot13.png,No answer,21,,,,,,,,,
,,,,,,,,,,,,,,,,,,,,,,,,,,,,,,,R_3bNMAkMCLdBCePj,1,2024-05-01_15h57.58.566,interaction task,2021.2.3,MacIntel,59.88023952,120240,,,,,,,,,,,,,,,,,Smaller,Greater,,-0.293340774,-0.509464529,1,0,0,LeftButton,"[""LeftButton""]",15,4.9074,space,,,,,,,,,,,,,,,0,6,6,6,1,1,both_wrong.png,0,RandomDot34.png,No answer,19,,2.1829,,,,,,,
,,,,,,,,,,,,,,,,,,,,,,,,,,,,,,,R_3bNMAkMCLdBCePj,1,2024-05-01_15h57.58.566,interaction task,2021.2.3,MacIntel,59.88023952,120240,,,,,,,,,,,,,,,,,Greater,Smaller,,0.295626063,-0.515145379,1,0,0,RightButton,"[""RightButton""]",,,,,,,,,,,,,10.0286453,14.2524,space,16.31439823,22.4563,0,7,7,7,1,2,only_sub_right.png,3,RandomDot26.png,No answer,20,4.0832,,,,,,,,
,,,,,,,,,,,,,,,,,,,,,,,,,,,,,,,R_3bNMAkMCLdBCePj,1,2024-05-01_15h57.58.566,interaction task,2021.2.3,MacIntel,59.88023952,120240,,,,,,,,,,,,,,,,,Smaller,Greater,,-0.3310321,-0.49872101,1,0,0,LeftButton,"[""LeftButton""]",,,,,,,,,,,,,35.0943534,5.4807,space,29.33523157,14.9981,0,8,8,8,1,3,only_sub_wrong.png,3,RandomDot22.png,No answer,21,1.0117,,,,,,,,
,,,,,,,,,,,,,,,,,,,,,,,,,,,,,,,R_3bNMAkMCLdBCePj,1,2024-05-01_15h57.58.566,interaction task,2021.2.3,MacIntel,59.88023952,120240,,,,,,,,,,,,,,,,,Smaller,Greater,,-0.315237032,-0.509240706,1,0,0,LeftButton,"[""LeftButton""]",,,,,,,,,,,,,,,,,,0,9,9,9,1,0,both_right.png,0,RandomDot22.png,No answer,19,,,,,,,,,
,,,,,,,,,,,,,,,,,,,,,,,,,,,,,,,R_3bNMAkMCLdBCePj,1,2024-05-01_15h57.58.566,interaction task,2021.2.3,MacIntel,59.88023952,120240,,,,,,,,,,,,,,,,,Greater,Smaller,,0.267203444,-0.511564205,1,0,0,RightButton,"[""RightButton""]",,,,,,,30,3.2699,space,0.5861,19,5.4042,,,,,,0,10,10,10,1,3,only_sub_wrong.png,2,RandomDot13.png,No answer,21,,,,,,,,,
,,,,,,,,,,,,,,,,,,,,,,,,,,,,,,,R_3bNMAkMCLdBCePj,1,2024-05-01_15h57.58.566,interaction task,2021.2.3,MacIntel,59.88023952,120240,,,,,,,,,,,,,,,,,Greater,Smaller,,0.323352466,-0.465584499,1,0,0,RightButton,"[""RightButton""]",,,,,,,50,2.9774,space,0.6362,40,6.9159,,,,,,0,11,11,11,1,3,only_sub_wrong.png,2,RandomDot38.png,No answer,21,,,,,,,,,
,,,,,,,,,,,,,,,,,,,,,,,,,,,,,,,R_3bNMAkMCLdBCePj,1,2024-05-01_15h57.58.566,interaction task,2021.2.3,MacIntel,59.88023952,120240,,,,,,,,,,,,,,,,,Smaller,Greater,,-0.231196854,-0.527274471,1,0,0,LeftButton,"[""LeftButton""]",,,,4.973639456,9.53,space,,,,,,,,,,,,0,12,12,12,1,1,both_wrong.png,1,RandomDot8.png,No answer,21,,,3.5206,,,,,,
,,,,,,,,,,,,,,,,,,,,,,,,,,,,,,,R_3bNMAkMCLdBCePj,1,2024-05-01_15h57.58.566,interaction task,2021.2.3,MacIntel,59.88023952,120240,,,,,,,,,,,,,,,,,Smaller,Greater,,-0.276812287,-0.524386085,1,0,0,LeftButton,"[""LeftButton""]",,,,4.989609906,4.6207,space,,,,,,,,,,,,0,13,13,13,1,3,only_sub_wrong.png,1,RandomDot6.png,No answer,21,,,1.2962,,,,,,
,,,,,,,,,,,,,,,,,,,,,,,,,,,,,,,R_3bNMAkMCLdBCePj,1,2024-05-01_15h57.58.566,interaction task,2021.2.3,MacIntel,59.88023952,120240,,,,,,,,,,,,,,,,,Smaller,Greater,,-0.269791667,-0.508356071,1,0,0,LeftButton,"[""LeftButton""]",,,,,,,,,,,,,9.76076668,3.2112,space,9.432226173,6.2023,0,14,14,14,1,1,both_wrong.png,3,RandomDot25.png,No answer,21,1.0502,,,,,,,,
,,,,,,,,,,,,,,,,,,,,,,,,,,,,,,,R_3bNMAkMCLdBCePj,1,2024-05-01_15h57.58.566,interaction task,2021.2.3,MacIntel,59.88023952,120240,,,,,,,,,,,,,,,,,Greater,Smaller,,-0.217522321,-0.497218196,1,0,0,LeftButton,"[""LeftButton""]",,,,5,9.2333,space,,,,,,,,,,,,0,15,15,15,1,3,only_sub_wrong.png,1,RandomDot8.png,No answer,21,,,2.7899,,,,,,
,,,,,,,,,,,,,,,,,,,,,,,,,,,,,,,R_3bNMAkMCLdBCePj,1,2024-05-01_15h57.58.566,interaction task,2021.2.3,MacIntel,59.88023952,120240,,,,,,,,,,,,,,,,,Smaller,Greater,,-0.24303784,-0.491548005,1,0,0,LeftButton,"[""LeftButton""]",,,,,,,0,4.2345,space,1.1205,20,7.1225,,,,,,0,16,16,16,1,2,only_sub_right.png,2,RandomDot22.png,No answer,20,,,,,,,,,
,,,,,,,,,,,,,,,,,,,,,,,,,,,,,,,R_3bNMAkMCLdBCePj,1,2024-05-01_15h57.58.566,interaction task,2021.2.3,MacIntel,59.88023952,120240,,,,,,,,,,,,,,,,,Greater,Smaller,,-0.276248937,-0.538380372,1,0,0,LeftButton,"[""LeftButton""]",,,,2.501514668,3.9854,space,,,,,,,,,,,,0,17,17,17,1,1,both_wrong.png,1,RandomDot13.png,No answer,19,,,1.1171,,,,,,
,,,,,,,,,,,,,,,,,,,,,,,,,,,,,,,R_3bNMAkMCLdBCePj,1,2024-05-01_15h57.58.566,interaction task,2021.2.3,MacIntel,59.88023952,120240,,,,,,,,,,,,,,,,,Smaller,Greater,,-0.278231293,-0.491782486,1,0,0,LeftButton,"[""LeftButton""]",,,,,,,,,,,,,,,,,,0,18,18,18,1,5,both_right.png,10,RandomDot42.png,LeftButton,21,,,,,,,,,
,,,,,,,,,,,,,,,,,,,,,,,,,,,,,,,R_3bNMAkMCLdBCePj,1,2024-05-01_15h57.58.566,interaction task,2021.2.3,MacIntel,59.88023952,120240,,,,,,,,,,,,,,,,,Greater,Smaller,,0.300414541,-0.508707793,1,0,0,RightButton,"[""RightButton""]",,,,,,,5,3.5407,space,0.92,5,5.8496,,,,,,0,19,19,19,1,1,both_wrong.png,2,RandomDot16.png,No answer,20,,,,,,,,,
,,,,,,,,,,,,,,,,,,,,,,,,,,,,,,,R_3bNMAkMCLdBCePj,1,2024-05-01_15h57.58.566,interaction task,2021.2.3,MacIntel,59.88023952,120240,,,,,,,,,,,,,,,,,Smaller,Greater,,-0.274415391,-0.477106071,1,0,0,LeftButton,"[""LeftButton""]",,,,,,,80,4.2443,space,1.0165,50,6.9344,,,,,,0,20,20,20,1,3,only_sub_wrong.png,2,RandomDot15.png,No answer,20,,,,,,,,,
,,,,,,,,,,,,,,,,,,,,,,,,,,,,,,,R_3bNMAkMCLdBCePj,1,2024-05-01_15h57.58.566,interaction task,2021.2.3,MacIntel,59.88023952,120240,,,,,,,,,,,,,,,,,Greater,Smaller,,-0.225015944,-0.540714529,1,0,0,LeftButton,"[""LeftButton""]",,,,,,,,,,,,,20.33311431,2.774,space,10.37758538,5.2672,0,21,21,21,1,2,only_sub_right.png,3,RandomDot10.png,No answer,19,0.934,,,,,,,,
,,,,,,,,,,,,,,,,,,,,,,,,,,,,,,,R_3bNMAkMCLdBCePj,1,2024-05-01_15h57.58.566,interaction task,2021.2.3,MacIntel,59.88023952,120240,,,,,,,,,,,,,,,,,Smaller,Greater,,0.347363946,-0.53241175,1,0,0,RightButton,"[""RightButton""]",,,,1.001434949,2.4466,space,,,,,,,,,,,,0,22,22,22,1,2,only_sub_right.png,1,RandomDot15.png,No answer,19,,,1.1022,,,,,,
,,,,,,,,,,,,,,,,,,,,,,,,,,,,,,,R_3bNMAkMCLdBCePj,1,2024-05-01_15h57.58.566,interaction task,2021.2.3,MacIntel,59.88023952,120240,,,,,,,,,,,,,,,,,Greater,Smaller,,-0.248272747,-0.492219475,0,0,0,,[],,,,,,,,,,,,,,,,,,0,23,23,23,1,3,only_sub_wrong.png,0,RandomDot15.png,No answer,20,,,,145,,,,,
,,,,,,,,,,,,,,,,,,,,,,,,,,,,,,,R_3bNMAkMCLdBCePj,1,2024-05-01_15h57.58.566,interaction task,2021.2.3,MacIntel,59.88023952,120240,,,,,,,,,,,,,,,,,Smaller,Greater,,0.272076956,-0.482062159,1,0,0,RightButton,"[""RightButton""]",,,,,,,,,,,,,15.55692984,6.3942,space,6.001876761,11.1122,0,24,24,24,1,2,only_sub_right.png,3,RandomDot8.png,No answer,19,1.0835,,,,,,,,
,,,,,,,,,,,,,,,,,,,,,,,,,,,,,,,R_3bNMAkMCLdBCePj,1,2024-05-01_15h57.58.566,interaction task,2021.2.3,MacIntel,59.88023952,120240,,,,,,,,,,,,,,,,,Greater,Smaller,,0.247385204,-0.47472928,1,0,0,RightButton,"[""RightButton""]",,,,0.983152636,5.4628,space,,,,,,,,,,,,0,25,25,25,1,2,only_sub_right.png,1,RandomDot3.png,No answer,20,,,1.0339,,,,,,
,,,,,,,,,,,,,,,,,,,,,,,,,,,,,,,R_3bNMAkMCLdBCePj,1,2024-05-01_15h57.58.566,interaction task,2021.2.3,MacIntel,59.88023952,120240,,,,,,,,,,,,,,,,,Smaller,Greater,,-0.289976616,-0.510551671,1,0,0,LeftButton,"[""LeftButton""]",,,,,,,5,4.0806,space,0.6892,9,9.3977,,,,,,0,26,26,26,1,1,both_wrong.png,2,RandomDot8.png,No answer,20,,,,,,,,,
,,,,,,,,,,,,,,,,,,,,,,,,,,,,,,,R_3bNMAkMCLdBCePj,1,2024-05-01_15h57.58.566,interaction task,2021.2.3,MacIntel,59.88023952,120240,,,,,,,,,,,,,,,,,Greater,Smaller,,-0.401445578,-0.31231881,0,0,0,,[],,,,,,,,,,,,,,,,,,0,27,27,27,1,0,both_right.png,3,RandomDot36.png,No answer,20,,,,40,,,,,
,,,,,,,,,,,,,,,,,,,,,,,,,,,,,,,R_3bNMAkMCLdBCePj,1,2024-05-01_15h57.58.566,interaction task,2021.2.3,MacIntel,59.88023952,120240,,,,,,,,,,,,,,,,,Smaller,Greater,,0.328528912,-0.468941849,1,0,0,RightButton,"[""RightButton""]",,,,,,,,,,,,,59.98720195,2.3018,space,90.20004466,7.1174,0,28,28,28,1,3,only_sub_wrong.png,3,RandomDot18.png,No answer,21,0.8516,,,,,,,,
,,,,,,,,,,,,,,,,,,,,,,,,,,,,,,,R_3bNMAkMCLdBCePj,1,2024-05-01_15h57.58.566,interaction task,2021.2.3,MacIntel,59.88023952,120240,,,,,,,,,,,,,,,,,Smaller,Greater,,-0.262058886,-0.510423772,1,0,0,LeftButton,"[""LeftButton""]",90,2.259,space,,,,,,,,,,,,,,,0,29,29,29,1,3,only_sub_wrong.png,0,RandomDot16.png,No answer,21,,1.098,,,,,,,
,,,,,,,,,,,,,,,,,,,,,,,,,,,,,,,R_3bNMAkMCLdBCePj,1,2024-05-01_15h57.58.566,interaction task,2021.2.3,MacIntel,59.88023952,120240,,,,,,,,,,,,,,,,,Greater,Smaller,,0.338159014,-0.508654502,1,0,0,RightButton,"[""RightButton""]",30,3.3484,space,,,,,,,,,,,,,,,0,30,30,30,1,2,only_sub_right.png,0,RandomDot8.png,No answer,20,,0.97,,,,,,,
,,,,,,,,,,,,,,,,,,,,,,,,,,,,,,,R_3bNMAkMCLdBCePj,1,2024-05-01_15h57.58.566,interaction task,2021.2.3,MacIntel,59.88023952,120240,,,,,,,,,,,,,,,,,Greater,Smaller,,0.308041029,-0.468387619,1,0,0,RightButton,"[""RightButton""]",,,,1.012887968,6.1282,space,,,,,,,,,,,,0,31,31,31,1,2,only_sub_right.png,1,RandomDot6.png,No answer,21,,,0.806,,,,,,
,,,,,,,,,,,,,,,,,,,,,,,,,,,,,,,R_3bNMAkMCLdBCePj,1,2024-05-01_15h57.58.566,interaction task,2021.2.3,MacIntel,59.88023952,120240,,,,,,,,,,,,,,,,,Smaller,Greater,,0.284428146,-0.512107776,1,0,0,RightButton,"[""RightButton""]",,,,,,,11,6.3391,space,0.6346,10,8.1621,,,,,,0,32,32,32,1,2,only_sub_right.png,2,RandomDot5.png,No answer,21,,,,,,,,,
,,,,,,,,,,,,,,,,,,,,,,,,,,,,,,,R_3bNMAkMCLdBCePj,1,2024-05-01_15h57.58.566,interaction task,2021.2.3,MacIntel,59.88023952,120240,,,,,,,,,,,,,,,,,Smaller,Greater,,0.25788159,-0.466319918,1,0,0,RightButton,"[""RightButton""]",,,,,,,,,,,,,29.97781815,3.8832,space,29.98694427,6.1647,0,33,33,33,1,1,both_wrong.png,3,RandomDot29.png,No answer,19,0.4811,,,,,,,,
,,,,,,,,,,,,,,,,,,,,,,,,,,,,,,,R_3bNMAkMCLdBCePj,1,2024-05-01_15h57.58.566,interaction task,2021.2.3,MacIntel,59.88023952,120240,,,,,,,,,,,,,,,,,Greater,Smaller,,-0.331834609,-0.525835607,1,0,0,LeftButton,"[""LeftButton""]",60,3.3814,space,,,,,,,,,,,,,,,0,34,34,34,1,1,both_wrong.png,0,RandomDot16.png,No answer,19,,0.9201,,,,,,,
,,,,,,,,,,,,,,,,,,,,,,,,,,,,,,,R_3bNMAkMCLdBCePj,1,2024-05-01_15h57.58.566,interaction task,2021.2.3,MacIntel,59.88023952,120240,,,,,,,,,,,,,,,,,Greater,Smaller,,-0.325175383,-0.519856327,1,0,0,LeftButton,"[""LeftButton""]",,,,5,5.4162,space,,,,,,,,,,,,0,35,35,35,1,3,only_sub_wrong.png,1,RandomDot11.png,No answer,20,,,4.0674,,,,,,
,,,,,,,,,,,,,,,,,,,,,,,,,,,,,,,R_3bNMAkMCLdBCePj,1,2024-05-01_15h57.58.566,interaction task,2021.2.3,MacIntel,59.88023952,120240,,,,,,,,,,,,,,,,,Smaller,Greater,,0.29118835,-0.472629604,1,0,0,RightButton,"[""RightButton""]",35,11.6455,space,,,,,,,,,,,,,,,0,36,36,36,1,1,both_wrong.png,0,RandomDot14.png,No answer,21,,1.0678,,,,,,,
,,,,,,,,,,,,,,,,,,,,,,,,,,,,,,,R_3bNMAkMCLdBCePj,1,2024-05-01_15h57.58.566,interaction task,2021.2.3,MacIntel,59.88023952,120240,,,,,,,,,,,,,,,,,Greater,Smaller,,0.359635417,-0.478001364,1,0,0,RightButton,"[""RightButton""]",30,7.1346,space,,,,,,,,,,,,,,,0,37,37,37,1,2,only_sub_right.png,0,RandomDot33.png,No answer,21,,2.8675,,,,,,,
,,,,,,,,,,,,,,,,,,,,,,,,,,,,,,,R_3bNMAkMCLdBCePj,1,2024-05-01_15h57.58.566,interaction task,2021.2.3,MacIntel,59.88023952,120240,,,,,,,,,,,,,,,,,Greater,Smaller,,-0.266459396,-0.487572476,1,0,0,LeftButton,"[""LeftButton""]",,,,1.514216624,6.8999,space,,,,,,,,,,,,0,38,38,38,1,1,both_wrong.png,1,RandomDot27.png,No answer,19,,,0.9298,,,,,,
,,,,,,,,,,,,,,,,,,,,,,,,,,,,,,,R_3bNMAkMCLdBCePj,1,2024-05-01_15h57.58.566,interaction task,2021.2.3,MacIntel,59.88023952,120240,,,,,,,,,,,,,,,,,Smaller,Greater,,-0.231350978,-0.515475784,1,0,0,LeftButton,"[""LeftButton""]",20,2.4249,space,,,,,,,,,,,,,,,0,39,39,39,1,2,only_sub_right.png,0,RandomDot21.png,No answer,21,,1.9386,,,,,,,
,,,,,,,,,,,,,,,,,,,,,,,,,,,,,,,R_3bNMAkMCLdBCePj,1,2024-05-01_15h57.58.566,interaction task,2021.2.3,MacIntel,59.88023952,120240,,,,,,,,,,,,,,,,,Greater,Smaller,,-0.32848108,-0.530450631,1,0,0,LeftButton,"[""LeftButton""]",,,,,,,,,,,,,30.44217687,4.6992,space,36.13419484,8.8803,0,40,40,40,1,1,both_wrong.png,3,RandomDot6.png,No answer,20,1.4229,,,,,,,,
,,,,,,,,,,,,,,,,,,,,,,,,,,,,,,,R_3bNMAkMCLdBCePj,1,2024-05-01_15h57.58.566,interaction task,2021.2.3,MacIntel,59.88023952,120240,,,,,,,,,,,,,,,,,Smaller,Greater,,-0.321295706,-0.493541098,1,0,0,LeftButton,"[""LeftButton""]",,,,,,,,,,,,,,,,,,0,41,41,41,1,4,both_right.png,10,RandomDot41.png,RightButton,5,,,,,,,,,
,,,,,,,,,,,,,,,,,,,,,,,,,,,,,,,R_3bNMAkMCLdBCePj,1,2024-05-01_15h57.58.566,interaction task,2021.2.3,MacIntel,59.88023952,120240,,,,,,,,,,,,,,,,,Greater,Smaller,,0.260932185,-0.459999574,1,0,0,RightButton,"[""RightButton""]",35,10.8151,space,,,,,,,,,,,,,,,,,,,,3,only_sub_wrong.png,0,RandomDot15.png,No answer,20,,0.8395,,,0,0,0,0,1
,,,,,,,,,,,,,,,,,,,,,,,,,,,,,,,R_3bNMAkMCLdBCePj,1,2024-05-01_15h57.58.566,interaction task,2021.2.3,MacIntel,59.88023952,120240,,,,,,,,,,,,,,,,,Greater,Smaller,,0.240136054,-0.487018247,0,0,0,,[],,,,,,,,,,,,,,,,,,,,,,,0,both_right.png,3,RandomDot36.png,No answer,20,,,,197,0,1,1,1,1
