chooserow,ParID,pre_instru_resp_2.keys,pre_instru_resp_2.rt,pre_instru_resp_3.keys,pre_instru_resp_3.rt,pre_instru_resp_9.keys,pre_instru_resp_9.rt,pre_instru_resp_8.keys,pre_instru_resp_8.rt,pre_instru_resp_4.keys,pre_instru_resp_4.rt,pre_instru_resp_5.keys,pre_instru_resp_5.rt,pre_instru_resp_6.keys,pre_instru_resp_6.rt,key_resp_3.keys,key_resp_3.rt,key_resp_4.keys,key_resp_4.rt,key_resp_5.keys,key_resp_5.rt,key_resp_6.keys,key_resp_6.rt,key_resp_7.keys,key_resp_7.rt,trials_2.thisRepN,trials_2.thisTrialN,trials_2.thisN,trials_2.thisIndex,trials_2.ran,participant,session,date,expName,psychopyVersion,OS,frameRate,SONAid,pre_instru_resp.keys,pre_instru_resp.rt,clicked,judge_2.x,judge_2.y,judge_2.leftButton,judge_2.midButton,judge_2.rightButton,judge_2.clicked_name,trials.thisRepN,trials.thisTrialN,trials.thisN,trials.thisIndex,trials.ran,prac_answer,prac_dot_sti,dotlefttext,dotrighttext,prac_acc,judge.x,judge.y,judge.leftButton,judge.midButton,judge.rightButton,judge.clicked_name,clicked_guilt,slider_guilt.response,slider_guilt.rt,key_guilt.keys,share_slider.response,share_slider.rt,key_share.keys,slider_apology.response,slider_apology.rt,key_apology.keys,slider_hide.response,slider_hide.rt,slider_forgiveness.response,slider_forgiveness.rt,key_forgiveness.keys,slider_mad.response,slider_mad.rt,trialseq.thisRepN,trialseq.thisTrialN,trialseq.thisN,trialseq.thisIndex,trialseq.ran,type_trial,stipic,DV,picture,answer,number,key_apology.rt,key_forgiveness.rt,incompleteTrials,key_share.rt,key_guilt.rt,trials_redo.thisRepN,trials_redo.thisTrialN,trials_redo.thisN,trials_redo.thisIndex,trials_redo.ran
"[196,6,174,94,202,172,77,158,165,186,120,104,86,185,166,170,109,56,103,87,32,184,62,125,118,154,150,74,42,143,79,12,99,152,66,116,132,55,67,128,133,58]",R_3DwBYBdZzedqc9v,space,2.797,space,3.906,space,28.05,space,41.947,space,38.63,space,11.709,space,13.462,3,87.702,3,16.343,2,19.404,2,8.541,1,9.086,0,0,0,0,1,R_3DwBYBdZzedqc9v,1,2024-05-24_12h36.42.981,interaction task,2021.2.3,MacIntel,55.55555556,120535,,,,,,,,,,,,,,,,,,,,,,,,,,,,,,,,,,,,,,,,,,,,,,,,,,,,,,,,,,,,,,,
,,,,space,3.231,space,10.793,space,10.644,space,202.857,space,18.464,space,42.782,3,1.324,1,6.147,3,9.396,2,7.78,3,20.646,1,0,1,0,1,R_3DwBYBdZzedqc9v,1,2024-05-24_12h36.42.981,interaction task,2021.2.3,MacIntel,55.55555556,120535,,,,,,,,,,,,,,,,,,,,,,,,,,,,,,,,,,,,,,,,,,,,,,,,,,,,,,,,,,,,,,,
,,,,space,0.864,space,0.388,space,0.19,space,0.164,space,0.514,space,0.305,3,1.603,1,2.462,3,6.139,2,4.881,2,6.747,2,0,2,0,1,R_3DwBYBdZzedqc9v,1,2024-05-24_12h36.42.981,interaction task,2021.2.3,MacIntel,55.55555556,120535,,,,,,,,,,,,,,,,,,,,,,,,,,,,,,,,,,,,,,,,,,,,,,,,,,,,,,,,,,,,,,,
,,,,,,,,,,,,,,,,,,,,,,,,,,,,,,,R_3DwBYBdZzedqc9v,1,2024-05-24_12h36.42.981,interaction task,2021.2.3,MacIntel,55.55555556,120535,space,2.017,"[""RightButton_2""]",0.251830161,-0.345692475,1,0,0,RightButton_2,0,0,0,2,1,RightButton_2,9dot1.png,Greater,Smaller,,,,,,,,,,,,,,,,,,,,,,,,,,,,,,,,,,,,,,,,,,,,,
,,,,,,,,,,,,,,,,,,,,,,,,,,,,,,,R_3DwBYBdZzedqc9v,1,2024-05-24_12h36.42.981,interaction task,2021.2.3,MacIntel,55.55555556,120535,,,"[""LeftButton_2""]",-0.320644217,-0.282442748,1,0,0,LeftButton_2,0,1,1,1,1,LeftButton_2,11dot1.png,Greater,Smaller,,,,,,,,,,,,,,,,,,,,,,,,,,,,,,,,,,,,,,,,,,,,,
,,,,,,,,,,,,,,,,,,,,,,,,,,,,,,,R_3DwBYBdZzedqc9v,1,2024-05-24_12h36.42.981,interaction task,2021.2.3,MacIntel,55.55555556,120535,,,"[""RightButton_2""]",0.303074671,-0.310796074,1,0,0,RightButton_2,0,2,2,0,1,RightButton_2,11dot2.png,Smaller,Greater,,,,,,,,,,,,,,,,,,,,,,,,,,,,,,,,,,,,,,,,,,,,,
,,,,,,,,,,,,,,,,,,,,,,,,,,,,,,,R_3DwBYBdZzedqc9v,1,2024-05-24_12h36.42.981,interaction task,2021.2.3,MacIntel,55.55555556,120535,,,,,,,,,,,,,,,,,Smaller,Greater,0.6,0.243045388,-0.528898582,1,0,0,RightButton,"[""RightButton""]",,,,,,,,,,,,,,,,,0,0,0,0,1,4,both_right.png,10,RandomDot41.png,RightButton,5,,,,,,,,,,
,,,,,,,,,,,,,,,,,,,,,,,,,,,,,,,R_3DwBYBdZzedqc9v,1,2024-05-24_12h36.42.981,interaction task,2021.2.3,MacIntel,55.55555556,120535,,,,,,,,,,,,,,,,,Smaller,Greater,,-0.32942899,-0.480916031,1,0,0,LeftButton,"[""LeftButton""]",,,,,,,,,,,,,,,,,0,1,1,1,1,0,both_right.png,0,RandomDot22.png,No answer,19,,,,,,,,,,
,,,,,,,,,,,,,,,,,,,,,,,,,,,,,,,R_3DwBYBdZzedqc9v,1,2024-05-24_12h36.42.981,interaction task,2021.2.3,MacIntel,55.55555556,120535,,,,,,,,,,,,,,,,,Smaller,Greater,,-0.238653001,-0.533260632,1,0,0,LeftButton,"[""LeftButton""]",,,,,,,0,6.123,space,0,10.725,,,,,,0,2,2,2,1,3,only_sub_wrong.png,2,RandomDot15.png,No answer,21,2.027,,,,,,,,,
,,,,,,,,,,,,,,,,,,,,,,,,,,,,,,,R_3DwBYBdZzedqc9v,1,2024-05-24_12h36.42.981,interaction task,2021.2.3,MacIntel,55.55555556,120535,,,,,,,,,,,,,,,,,Smaller,Greater,,0.257686676,-0.531079607,1,0,0,RightButton,"[""RightButton""]",,,,,,,,,,,,0.012570803,2.825,space,0,5.861,0,3,3,3,1,1,both_wrong.png,3,RandomDot25.png,No answer,21,,2.677,,,,,,,,
,,,,,,,,,,,,,,,,,,,,,,,,,,,,,,,R_3DwBYBdZzedqc9v,1,2024-05-24_12h36.42.981,interaction task,2021.2.3,MacIntel,55.55555556,120535,,,,,,,,,,,,,,,,,Smaller,Greater,,-0.234260615,-0.504907306,1,0,0,LeftButton,"[""LeftButton""]",,,,,,,,,,,,,,,,,0,4,4,4,1,5,both_right.png,10,RandomDot42.png,LeftButton,21,,,,,,,,,,
,,,,,,,,,,,,,,,,,,,,,,,,,,,,,,,R_3DwBYBdZzedqc9v,1,2024-05-24_12h36.42.981,interaction task,2021.2.3,MacIntel,55.55555556,120535,,,,,,,,,,,,,,,,,Greater,Smaller,,0.32942899,-0.496183206,0,0,0,,[],,,,,,,,,,,,,,,,,0,5,5,5,1,3,only_sub_wrong.png,2,RandomDot38.png,No answer,21,,,172,,,,,,,
,,,,,,,,,,,,,,,,,,,,,,,,,,,,,,,R_3DwBYBdZzedqc9v,1,2024-05-24_12h36.42.981,interaction task,2021.2.3,MacIntel,55.55555556,120535,,,,,,,,,,,,,,,,,Greater,Smaller,,0.275256223,-0.465648855,1,0,0,RightButton,"[""RightButton""]",,,,,,,0,1.706,space,0,3.316,,,,,,0,6,6,6,1,1,both_wrong.png,2,RandomDot13.png,No answer,21,1.01,,,,,,,,,
,,,,,,,,,,,,,,,,,,,,,,,,,,,,,,,R_3DwBYBdZzedqc9v,1,2024-05-24_12h36.42.981,interaction task,2021.2.3,MacIntel,55.55555556,120535,,,,,,,,,,,,,,,,,Greater,Smaller,,0.266471449,-0.513631407,1,0,0,RightButton,"[""RightButton""]",,,,3.049048316,11.966,space,,,,,,,,,,,0,7,7,7,1,3,only_sub_wrong.png,1,RandomDot1.png,No answer,19,,,,1.568,,,,,,
,,,,,,,,,,,,,,,,,,,,,,,,,,,,,,,R_3DwBYBdZzedqc9v,1,2024-05-24_12h36.42.981,interaction task,2021.2.3,MacIntel,55.55555556,120535,,,,,,,,,,,,,,,,,Smaller,Greater,,0.32942899,-0.520174482,1,0,0,RightButton,"[""RightButton""]",,,,2.097364568,3.034,space,,,,,,,,,,,0,8,8,8,1,3,only_sub_wrong.png,1,RandomDot6.png,No answer,21,,,,1.461,,,,,,
,,,,,,,,,,,,,,,,,,,,,,,,,,,,,,,R_3DwBYBdZzedqc9v,1,2024-05-24_12h36.42.981,interaction task,2021.2.3,MacIntel,55.55555556,120535,,,,,,,,,,,,,,,,,Smaller,Greater,,-0.213762811,-0.533260632,1,0,0,LeftButton,"[""LeftButton""]",,,,,,,,,,,,0.012570803,2.629,space,0,5.655,0,9,9,9,1,3,only_sub_wrong.png,3,RandomDot9.png,No answer,19,,2.585,,,,,,,,
,,,,,,,,,,,,,,,,,,,,,,,,,,,,,,,R_3DwBYBdZzedqc9v,1,2024-05-24_12h36.42.981,interaction task,2021.2.3,MacIntel,55.55555556,120535,,,,,,,,,,,,,,,,,Greater,Smaller,,0.29136164,-0.535441658,1,0,0,RightButton,"[""RightButton""]",,,,,,,0,3.817,space,0,5.177,,,,,,0,10,10,10,1,2,only_sub_right.png,2,RandomDot21.png,No answer,21,0.878,,,,,,,,,
,,,,,,,,,,,,,,,,,,,,,,,,,,,,,,,R_3DwBYBdZzedqc9v,1,2024-05-24_12h36.42.981,interaction task,2021.2.3,MacIntel,55.55555556,120535,,,,,,,,,,,,,,,,,Smaller,Greater,,0.301610542,-0.502726281,1,0,0,RightButton,"[""RightButton""]",0,3.603,space,,,,,,,,,,,,,,0,11,11,11,1,2,only_sub_right.png,0,RandomDot29.png,No answer,20,,,,,0.959,,,,,
,,,,,,,,,,,,,,,,,,,,,,,,,,,,,,,R_3DwBYBdZzedqc9v,1,2024-05-24_12h36.42.981,interaction task,2021.2.3,MacIntel,55.55555556,120535,,,,,,,,,,,,,,,,,Greater,Smaller,,0.29136164,-0.507088332,1,0,0,RightButton,"[""RightButton""]",,,,,,,,,,,,0,2.079,space,0,3.388,0,12,12,12,1,1,both_wrong.png,3,RandomDot13.png,No answer,21,,0.734,,,,,,,,
,,,,,,,,,,,,,,,,,,,,,,,,,,,,,,,R_3DwBYBdZzedqc9v,1,2024-05-24_12h36.42.981,interaction task,2021.2.3,MacIntel,55.55555556,120535,,,,,,,,,,,,,,,,,Greater,Smaller,,-0.254758419,-0.494002181,1,0,0,LeftButton,"[""LeftButton""]",,,,,,,,,,,,0,3.597,space,0,5.232,0,13,13,13,1,3,only_sub_wrong.png,3,RandomDot34.png,No answer,20,,1.311,,,,,,,,
,,,,,,,,,,,,,,,,,,,,,,,,,,,,,,,R_3DwBYBdZzedqc9v,1,2024-05-24_12h36.42.981,interaction task,2021.2.3,MacIntel,55.55555556,120535,,,,,,,,,,,,,,,,,Smaller,Greater,,0.300146413,-0.522355507,1,0,0,RightButton,"[""RightButton""]",,,,2.975841874,1.8,space,,,,,,,,,,,0,14,14,14,1,3,only_sub_wrong.png,1,RandomDot15.png,No answer,20,,,,0.653,,,,,,
,,,,,,,,,,,,,,,,,,,,,,,,,,,,,,,R_3DwBYBdZzedqc9v,1,2024-05-24_12h36.42.981,interaction task,2021.2.3,MacIntel,55.55555556,120535,,,,,,,,,,,,,,,,,Greater,Smaller,,0.306002928,-0.491821156,1,0,0,RightButton,"[""RightButton""]",,,,,,,0,3.942,space,0,6.186,,,,,,0,15,15,15,1,3,only_sub_wrong.png,2,RandomDot39.png,No answer,20,0.968,,,,,,,,,
,,,,,,,,,,,,,,,,,,,,,,,,,,,,,,,R_3DwBYBdZzedqc9v,1,2024-05-24_12h36.42.981,interaction task,2021.2.3,MacIntel,55.55555556,120535,,,,,,,,,,,,,,,,,Greater,Smaller,,-0.263543192,-0.504907306,1,0,0,LeftButton,"[""LeftButton""]",,,,2.038799414,4.995,space,,,,,,,,,,,0,16,16,16,1,2,only_sub_right.png,1,RandomDot3.png,No answer,19,,,,0.691,,,,,,
,,,,,,,,,,,,,,,,,,,,,,,,,,,,,,,R_3DwBYBdZzedqc9v,1,2024-05-24_12h36.42.981,interaction task,2021.2.3,MacIntel,55.55555556,120535,,,,,,,,,,,,,,,,,Smaller,Greater,,0.241581259,-0.507088332,1,0,0,RightButton,"[""RightButton""]",0,4.439,space,,,,,,,,,,,,,,0,17,17,17,1,1,both_wrong.png,0,RandomDot39.png,No answer,21,,,,,2.119,,,,,
,,,,,,,,,,,,,,,,,,,,,,,,,,,,,,,R_3DwBYBdZzedqc9v,1,2024-05-24_12h36.42.981,interaction task,2021.2.3,MacIntel,55.55555556,120535,,,,,,,,,,,,,,,,,Smaller,Greater,,0.320644217,-0.487459106,1,0,0,RightButton,"[""RightButton""]",0,2.028,space,,,,,,,,,,,,,,0,18,18,18,1,2,only_sub_right.png,0,RandomDot21.png,No answer,21,,,,,0.844,,,,,
,,,,,,,,,,,,,,,,,,,,,,,,,,,,,,,R_3DwBYBdZzedqc9v,1,2024-05-24_12h36.42.981,interaction task,2021.2.3,MacIntel,55.55555556,120535,,,,,,,,,,,,,,,,,Greater,Smaller,,0.298682284,-0.47655398,1,0,0,RightButton,"[""RightButton""]",,,,,,,,,,,,0.012570803,2.137,space,0,5.59,0,19,19,19,1,1,both_wrong.png,3,RandomDot17.png,No answer,21,,2.368,,,,,,,,
,,,,,,,,,,,,,,,,,,,,,,,,,,,,,,,R_3DwBYBdZzedqc9v,1,2024-05-24_12h36.42.981,interaction task,2021.2.3,MacIntel,55.55555556,120535,,,,,,,,,,,,,,,,,Smaller,Greater,,-0.300146413,-0.533260632,1,0,0,LeftButton,"[""LeftButton""]",,,,,,,,,,,,,,,,,0,20,20,20,1,0,both_right.png,2,RandomDot29.png,No answer,20,,,,,,,,,,
,,,,,,,,,,,,,,,,,,,,,,,,,,,,,,,R_3DwBYBdZzedqc9v,1,2024-05-24_12h36.42.981,interaction task,2021.2.3,MacIntel,55.55555556,120535,,,,,,,,,,,,,,,,,Greater,Smaller,,0.269399707,-0.515812432,1,0,0,RightButton,"[""RightButton""]",,,,,,,,,,,,0,2.33,space,0,4.919,0,21,21,21,1,3,only_sub_wrong.png,3,RandomDot20.png,No answer,20,,1.603,,,,,,,,
,,,,,,,,,,,,,,,,,,,,,,,,,,,,,,,R_3DwBYBdZzedqc9v,1,2024-05-24_12h36.42.981,interaction task,2021.2.3,MacIntel,55.55555556,120535,,,,,,,,,,,,,,,,,Greater,Smaller,,0.310395315,-0.535441658,1,0,0,RightButton,"[""RightButton""]",,,,1.972913616,1.841,space,,,,,,,,,,,0,22,22,22,1,1,both_wrong.png,1,RandomDot28.png,No answer,21,,,,0.302,,,,,,
,,,,,,,,,,,,,,,,,,,,,,,,,,,,,,,R_3DwBYBdZzedqc9v,1,2024-05-24_12h36.42.981,interaction task,2021.2.3,MacIntel,55.55555556,120535,,,,,,,,,,,,,,,,,Greater,Smaller,,-0.257686676,-0.480916031,1,0,0,LeftButton,"[""LeftButton""]",,,,,,,0,2.191,space,0,4.044,,,,,,0,23,23,23,1,2,only_sub_right.png,2,RandomDot36.png,No answer,21,0.606,,,,,,,,,
,,,,,,,,,,,,,,,,,,,,,,,,,,,,,,,R_3DwBYBdZzedqc9v,1,2024-05-24_12h36.42.981,interaction task,2021.2.3,MacIntel,55.55555556,120535,,,,,,,,,,,,,,,,,Smaller,Greater,,0.281112738,-0.526717557,1,0,0,RightButton,"[""RightButton""]",,,,2.002196193,1.808,space,,,,,,,,,,,0,24,24,24,1,2,only_sub_right.png,1,RandomDot34.png,No answer,19,,,,0.602,,,,,,
,,,,,,,,,,,,,,,,,,,,,,,,,,,,,,,R_3DwBYBdZzedqc9v,1,2024-05-24_12h36.42.981,interaction task,2021.2.3,MacIntel,55.55555556,120535,,,,,,,,,,,,,,,,,Smaller,Greater,,-0.308931186,-0.513631407,1,0,0,LeftButton,"[""LeftButton""]",0,2.887,space,,,,,,,,,,,,,,0,25,25,25,1,3,only_sub_wrong.png,0,RandomDot25.png,No answer,21,,,,,0.679,,,,,
,,,,,,,,,,,,,,,,,,,,,,,,,,,,,,,R_3DwBYBdZzedqc9v,1,2024-05-24_12h36.42.981,interaction task,2021.2.3,MacIntel,55.55555556,120535,,,,,,,,,,,,,,,,,Smaller,Greater,,0.237188873,-0.507088332,1,0,0,RightButton,"[""RightButton""]",0,3.462,space,,,,,,,,,,,,,,0,26,26,26,1,3,only_sub_wrong.png,0,RandomDot16.png,No answer,21,,,,,1.762,,,,,
,,,,,,,,,,,,,,,,,,,,,,,,,,,,,,,R_3DwBYBdZzedqc9v,1,2024-05-24_12h36.42.981,interaction task,2021.2.3,MacIntel,55.55555556,120535,,,,,,,,,,,,,,,,,Greater,Smaller,,0.336749634,-0.487459106,1,0,0,RightButton,"[""RightButton""]",,,,,,,0,3.355,space,0,6.274,,,,,,0,27,27,27,1,1,both_wrong.png,2,RandomDot16.png,No answer,20,1.654,,,,,,,,,
,,,,,,,,,,,,,,,,,,,,,,,,,,,,,,,R_3DwBYBdZzedqc9v,1,2024-05-24_12h36.42.981,interaction task,2021.2.3,MacIntel,55.55555556,120535,,,,,,,,,,,,,,,,,Smaller,Greater,,0.089311859,-0.544165758,0,0,0,,[],,,,,,,,,,,,,,,,,0,28,28,28,1,0,both_right.png,3,RandomDot11.png,No answer,20,,,42,,,,,,,
,,,,,,,,,,,,,,,,,,,,,,,,,,,,,,,R_3DwBYBdZzedqc9v,1,2024-05-24_12h36.42.981,interaction task,2021.2.3,MacIntel,55.55555556,120535,,,,,,,,,,,,,,,,,Smaller,Greater,,-0.276720351,-0.526717557,1,0,0,LeftButton,"[""LeftButton""]",,,,,,,,,,,,0,3.598,space,0,8.285,0,29,29,29,1,2,only_sub_right.png,3,RandomDot31.png,No answer,19,,1.385,,,,,,,,
,,,,,,,,,,,,,,,,,,,,,,,,,,,,,,,R_3DwBYBdZzedqc9v,1,2024-05-24_12h36.42.981,interaction task,2021.2.3,MacIntel,55.55555556,120535,,,,,,,,,,,,,,,,,Smaller,Greater,,-0.289897511,-0.537622683,1,0,0,LeftButton,"[""LeftButton""]",,,,,,,0,2.333,space,0,4.001,,,,,,0,30,30,30,1,1,both_wrong.png,2,RandomDot24.png,No answer,21,69.141,,,,,,,,,
,,,,,,,,,,,,,,,,,,,,,,,,,,,,,,,R_3DwBYBdZzedqc9v,1,2024-05-24_12h36.42.981,interaction task,2021.2.3,MacIntel,55.55555556,120535,,,,,,,,,,,,,,,,,Greater,Smaller,,-0.238653001,-0.528898582,1,0,0,LeftButton,"[""LeftButton""]",,,,,,,,,,,,,,,,,0,31,31,31,1,0,both_right.png,1,RandomDot30.png,No answer,20,,,,,,,,,,
,,,,,,,,,,,,,,,,,,,,,,,,,,,,,,,R_3DwBYBdZzedqc9v,1,2024-05-24_12h36.42.981,interaction task,2021.2.3,MacIntel,55.55555556,120535,,,,,,,,,,,,,,,,,Greater,Smaller,,-0.260614934,-0.537622683,1,0,0,LeftButton,"[""LeftButton""]",0,1.908,space,,,,,,,,,,,,,,0,32,32,32,1,2,only_sub_right.png,0,RandomDot21.png,No answer,19,,,,,29.725,,,,,
,,,,,,,,,,,,,,,,,,,,,,,,,,,,,,,R_3DwBYBdZzedqc9v,1,2024-05-24_12h36.42.981,interaction task,2021.2.3,MacIntel,55.55555556,120535,,,,,,,,,,,,,,,,,Smaller,Greater,,-0.297218155,-0.511450382,1,0,0,LeftButton,"[""LeftButton""]",0,1.721,space,,,,,,,,,,,,,,0,33,33,33,1,3,only_sub_wrong.png,0,RandomDot9.png,No answer,19,,,,,0.704,,,,,
,,,,,,,,,,,,,,,,,,,,,,,,,,,,,,,R_3DwBYBdZzedqc9v,1,2024-05-24_12h36.42.981,interaction task,2021.2.3,MacIntel,55.55555556,120535,,,,,,,,,,,,,,,,,Smaller,Greater,,0.336749634,-0.515812432,1,0,0,RightButton,"[""RightButton""]",,,,1.965592972,1.675,space,,,,,,,,,,,0,34,34,34,1,1,both_wrong.png,1,RandomDot10.png,No answer,19,,,,1.544,,,,,,
,,,,,,,,,,,,,,,,,,,,,,,,,,,,,,,R_3DwBYBdZzedqc9v,1,2024-05-24_12h36.42.981,interaction task,2021.2.3,MacIntel,55.55555556,120535,,,,,,,,,,,,,,,,,Smaller,Greater,,0.32942899,-0.541984733,1,0,0,RightButton,"[""RightButton""]",,,,1.987554905,3.208,space,,,,,,,,,,,0,35,35,35,1,2,only_sub_right.png,1,RandomDot25.png,No answer,19,,,,1.602,,,,,,
,,,,,,,,,,,,,,,,,,,,,,,,,,,,,,,R_3DwBYBdZzedqc9v,1,2024-05-24_12h36.42.981,interaction task,2021.2.3,MacIntel,55.55555556,120535,,,,,,,,,,,,,,,,,Greater,Smaller,,0.301610542,-0.483097056,1,0,0,RightButton,"[""RightButton""]",,,,,,,,,,,,0,5.101,space,0.012570803,7.398,0,36,36,36,1,2,only_sub_right.png,3,RandomDot20.png,No answer,21,,1.641,,,,,,,,
,,,,,,,,,,,,,,,,,,,,,,,,,,,,,,,R_3DwBYBdZzedqc9v,1,2024-05-24_12h36.42.981,interaction task,2021.2.3,MacIntel,55.55555556,120535,,,,,,,,,,,,,,,,,Smaller,Greater,,-0.275256223,-0.535441658,1,0,0,LeftButton,"[""LeftButton""]",0,7.914,space,,,,,,,,,,,,,,0,37,37,37,1,1,both_wrong.png,0,RandomDot28.png,No answer,19,,,,,6.571,,,,,
,,,,,,,,,,,,,,,,,,,,,,,,,,,,,,,R_3DwBYBdZzedqc9v,1,2024-05-24_12h36.42.981,interaction task,2021.2.3,MacIntel,55.55555556,120535,,,,,,,,,,,,,,,,,Smaller,Greater,,0.366032211,-0.539803708,1,0,0,RightButton,"[""RightButton""]",,,,2.009516837,1.992,space,,,,,,,,,,,0,38,38,38,1,1,both_wrong.png,1,RandomDot17.png,No answer,20,,,,0.334,,,,,,
,,,,,,,,,,,,,,,,,,,,,,,,,,,,,,,R_3DwBYBdZzedqc9v,1,2024-05-24_12h36.42.981,interaction task,2021.2.3,MacIntel,55.55555556,120535,,,,,,,,,,,,,,,,,Smaller,Greater,,0.241581259,-0.528898582,1,0,0,RightButton,"[""RightButton""]",,,,,,,0,4.118,space,0,6.019,,,,,,0,39,39,39,1,2,only_sub_right.png,2,RandomDot22.png,No answer,20,0.912,,,,,,,,,
,,,,,,,,,,,,,,,,,,,,,,,,,,,,,,,R_3DwBYBdZzedqc9v,1,2024-05-24_12h36.42.981,interaction task,2021.2.3,MacIntel,55.55555556,120535,,,,,,,,,,,,,,,,,Greater,Smaller,,-0.319180088,-0.478735005,1,0,0,LeftButton,"[""LeftButton""]",,,,,,,,,,,,0,1.614,space,0,4.14,0,40,40,40,1,2,only_sub_right.png,3,RandomDot36.png,No answer,20,,1.385,,,,,,,,
,,,,,,,,,,,,,,,,,,,,,,,,,,,,,,,R_3DwBYBdZzedqc9v,1,2024-05-24_12h36.42.981,interaction task,2021.2.3,MacIntel,55.55555556,120535,,,,,,,,,,,,,,,,,Smaller,Greater,,0.25329429,-0.491821156,1,0,0,RightButton,"[""RightButton""]",0,1.72,space,,,,,,,,,,,,,,0,41,41,41,1,1,both_wrong.png,0,RandomDot34.png,No answer,19,,,,,0.593,,,,,
,,,,,,,,,,,,,,,,,,,,,,,,,,,,,,,R_3DwBYBdZzedqc9v,1,2024-05-24_12h36.42.981,interaction task,2021.2.3,MacIntel,55.55555556,120535,,,,,,,,,,,,,,,,,Greater,Smaller,,0.276720351,-0.528898582,1,0,0,RightButton,"[""RightButton""]",,,,,,,0,2.004,space,0,3.49,,,,,,,,,,,3,only_sub_wrong.png,2,RandomDot38.png,No answer,21,0.745,,,,,0,0,0,0,1
,,,,,,,,,,,,,,,,,,,,,,,,,,,,,,,R_3DwBYBdZzedqc9v,1,2024-05-24_12h36.42.981,interaction task,2021.2.3,MacIntel,55.55555556,120535,,,,,,,,,,,,,,,,,Smaller,Greater,,-0.24011713,-0.522355507,1,0,0,LeftButton,"[""LeftButton""]",,,,,,,,,,,,,,,,,,,,,,0,both_right.png,3,RandomDot11.png,No answer,20,,,,,,0,1,1,1,1
