choose_trial,key_resp.keys,key_resp.rt,key_resp_4.keys,key_resp_4.rt,session_trait,slider_face_judge.response,slider_face_judge.rt,key_resp_3.keys,key_resp_3.rt,face_loop.thisRepN,face_loop.thisTrialN,face_loop.thisN,face_loop.thisIndex,face_loop.ran,face_serial,image_name,isCheck,answer,check_question,participant,session,date,expName,psychopyVersion,OS,frameRate,SONAid,session.thisRepN,session.thisTrialN,session.thisN,session.thisIndex,session.ran,session_serial,slider_judge_img
"[0,1,2,3,4,5,6,7,8,9,10,11,12,13,14,15,16,17,18,19,20,21,22,23,24,25,26,27,28,29,30,31,32,33,34,35,36,37,38,39,40,41,42,43,44,45,46,47,48,49,57,57,51]",space,0.9667,space,0.3472,competent,4.975234375,6.0446,space,0.6166,0,0,0,12,1,13,image/13.jpg,0,0,,R_3ekubxwa9Ik5zUP,2,2024-05-17_00h24.58.130,face trait task,2021.2.3,MacIntel,60.60606061,120739,,,,,,,
,,,,,,2.999557292,1.7643,space,0.6004,0,1,1,49,1,50,image/50.jpg,0,0,,R_3ekubxwa9Ik5zUP,2,2024-05-17_00h24.58.130,face trait task,2021.2.3,MacIntel,60.60606061,120739,,,,,,,
,,,,,,3.006822917,3.5483,space,12.2178,0,2,2,40,1,41,image/41.jpg,0,0,,R_3ekubxwa9Ik5zUP,2,2024-05-17_00h24.58.130,face trait task,2021.2.3,MacIntel,60.60606061,120739,,,,,,,
,,,,,,4.996197917,8.6456,space,2.7886,0,3,3,1,1,2,image/2.jpg,0,0,,R_3ekubxwa9Ik5zUP,2,2024-05-17_00h24.58.130,face trait task,2021.2.3,MacIntel,60.60606061,120739,,,,,,,
,,,,,,4.533958333,8.4777,space,5.7691,0,4,4,10,1,11,image/11.jpg,0,0,,R_3ekubxwa9Ik5zUP,2,2024-05-17_00h24.58.130,face trait task,2021.2.3,MacIntel,60.60606061,120739,,,,,,,
,,,,,,6.987708333,4.0804,space,2.3336,0,5,5,3,1,4,image/4.jpg,0,0,,R_3ekubxwa9Ik5zUP,2,2024-05-17_00h24.58.130,face trait task,2021.2.3,MacIntel,60.60606061,120739,,,,,,,
,,,,,,5.011692708,3.7714,space,1.0836,0,6,6,45,1,46,image/46.jpg,0,0,,R_3ekubxwa9Ik5zUP,2,2024-05-17_00h24.58.130,face trait task,2021.2.3,MacIntel,60.60606061,120739,,,,,,,
,,,,,,4.498828125,5.8056,space,0.3441,0,7,7,21,1,22,image/22.jpg,0,0,,R_3ekubxwa9Ik5zUP,2,2024-05-17_00h24.58.130,face trait task,2021.2.3,MacIntel,60.60606061,120739,,,,,,,
,,,,,,5.009375,2.2652,space,1.569,0,8,8,19,1,20,image/20.jpg,0,0,,R_3ekubxwa9Ik5zUP,2,2024-05-17_00h24.58.130,face trait task,2021.2.3,MacIntel,60.60606061,120739,,,,,,,
,,,,,,2.98609375,4.3938,space,2.1804,0,9,9,38,1,39,image/39.jpg,0,0,,R_3ekubxwa9Ik5zUP,2,2024-05-17_00h24.58.130,face trait task,2021.2.3,MacIntel,60.60606061,120739,,,,,,,
,,,,,,3.98875,2.2062,space,0.601,0,10,10,46,1,47,image/47.jpg,0,0,,R_3ekubxwa9Ik5zUP,2,2024-05-17_00h24.58.130,face trait task,2021.2.3,MacIntel,60.60606061,120739,,,,,,,
,,,,,,5.011328125,4.5158,space,3.188,0,11,11,11,1,12,image/12.jpg,0,0,,R_3ekubxwa9Ik5zUP,2,2024-05-17_00h24.58.130,face trait task,2021.2.3,MacIntel,60.60606061,120739,,,,,,,
,,,,,,3.014609375,3.6289,space,1.1092,0,12,12,18,1,19,image/19.jpg,0,0,,R_3ekubxwa9Ik5zUP,2,2024-05-17_00h24.58.130,face trait task,2021.2.3,MacIntel,60.60606061,120739,,,,,,,
,,,,,,3.984921875,7.1548,space,0.2999,0,13,13,14,1,15,image/15.jpg,0,0,,R_3ekubxwa9Ik5zUP,2,2024-05-17_00h24.58.130,face trait task,2021.2.3,MacIntel,60.60606061,120739,,,,,,,
,,,,,,2.5628125,7.9015,space,5.0849,0,14,14,5,1,6,image/6.jpg,0,0,,R_3ekubxwa9Ik5zUP,2,2024-05-17_00h24.58.130,face trait task,2021.2.3,MacIntel,60.60606061,120739,,,,,,,
,,,,,,2.991431452,15.8889,space,11.7455,0,15,15,47,1,48,image/48.jpg,0,0,,R_3ekubxwa9Ik5zUP,2,2024-05-17_00h24.58.130,face trait task,2021.2.3,MacIntel,60.60606061,120739,,,,,,,
,,,,,,1.999736529,4.014,space,1.0788,0,16,16,0,1,1,image/1.jpg,0,0,,R_3ekubxwa9Ik5zUP,2,2024-05-17_00h24.58.130,face trait task,2021.2.3,MacIntel,60.60606061,120739,,,,,,,
,,,,,,1.999736529,1.3513,space,0.2851,0,17,17,32,1,33,image/33.jpg,0,0,,R_3ekubxwa9Ik5zUP,2,2024-05-17_00h24.58.130,face trait task,2021.2.3,MacIntel,60.60606061,120739,,,,,,,
,,,,,,6.99835044,3.3893,space,0.4095,0,18,18,51,1,58,image/fill_img.png,1,7,Please move the slider all the way to the RIGHT to show that you are paying attention.,R_3ekubxwa9Ik5zUP,2,2024-05-17_00h24.58.130,face trait task,2021.2.3,MacIntel,60.60606061,120739,,,,,,,
,,,,,,5.040528776,1.8932,space,0.431,0,19,19,17,1,18,image/18.jpg,0,0,,R_3ekubxwa9Ik5zUP,2,2024-05-17_00h24.58.130,face trait task,2021.2.3,MacIntel,60.60606061,120739,,,,,,,
,,,,,,3.000882056,1.7905,space,0.1706,0,20,20,8,1,9,image/9.jpg,0,0,,R_3ekubxwa9Ik5zUP,2,2024-05-17_00h24.58.130,face trait task,2021.2.3,MacIntel,60.60606061,120739,,,,,,,
,,,,,,4.991729289,3.1569,space,0.7841,0,21,21,27,1,28,image/28.jpg,0,0,,R_3ekubxwa9Ik5zUP,2,2024-05-17_00h24.58.130,face trait task,2021.2.3,MacIntel,60.60606061,120739,,,,,,,
,,,,,,4.525866019,4.4978,space,0.6507,0,22,22,9,1,10,image/10.jpg,0,0,,R_3ekubxwa9Ik5zUP,2,2024-05-17_00h24.58.130,face trait task,2021.2.3,MacIntel,60.60606061,120739,,,,,,,
,,,,,,3.012807001,2.2977,space,0.5008,0,23,23,34,1,35,image/35.jpg,0,0,,R_3ekubxwa9Ik5zUP,2,2024-05-17_00h24.58.130,face trait task,2021.2.3,MacIntel,60.60606061,120739,,,,,,,
,,,,,,4.527240652,6.4574,space,0.2924,0,24,24,31,1,32,image/32.jpg,0,0,,R_3ekubxwa9Ik5zUP,2,2024-05-17_00h24.58.130,face trait task,2021.2.3,MacIntel,60.60606061,120739,,,,,,,
,,,,,,1.0193136,3.8562,space,0.4105,0,25,25,52,1,52,image/fill_img.png,1,1,Please move the slider all the way to the LEFT to show that you are paying attention.,R_3ekubxwa9Ik5zUP,2,2024-05-17_00h24.58.130,face trait task,2021.2.3,MacIntel,60.60606061,120739,,,,,,,
,,,,,,3.019783266,2.0825,space,0.8035,0,26,26,6,1,7,image/7.jpg,0,0,,R_3ekubxwa9Ik5zUP,2,2024-05-17_00h24.58.130,face trait task,2021.2.3,MacIntel,60.60606061,120739,,,,,,,
,,,,,,4.470915048,6.4356,space,1.7335,0,27,27,36,1,37,image/37.jpg,0,0,,R_3ekubxwa9Ik5zUP,2,2024-05-17_00h24.58.130,face trait task,2021.2.3,MacIntel,60.60606061,120739,,,,,,,
,,,,,,6.930546646,5.898,space,0.735,0,28,28,20,1,21,image/21.jpg,0,0,,R_3ekubxwa9Ik5zUP,2,2024-05-17_00h24.58.130,face trait task,2021.2.3,MacIntel,60.60606061,120739,,,,,,,
,,,,,,2.966035099,4.7563,space,1.4988,0,29,29,22,1,23,image/23.jpg,0,0,,R_3ekubxwa9Ik5zUP,2,2024-05-17_00h24.58.130,face trait task,2021.2.3,MacIntel,60.60606061,120739,,,,,,,
,,,,,,2.431440158,4.3304,space,2.7535,0,30,30,30,1,31,image/31.jpg,0,0,,R_3ekubxwa9Ik5zUP,2,2024-05-17_00h24.58.130,face trait task,2021.2.3,MacIntel,60.60606061,120739,,,,,,,
,,,,,,2.989197672,2.8953,space,0.8802,0,31,31,42,1,43,image/43.jpg,0,0,,R_3ekubxwa9Ik5zUP,2,2024-05-17_00h24.58.130,face trait task,2021.2.3,MacIntel,60.60606061,120739,,,,,,,
,,,,,,5.005956745,2.3239,space,0.9002,0,32,32,48,1,49,image/49.jpg,0,0,,R_3ekubxwa9Ik5zUP,2,2024-05-17_00h24.58.130,face trait task,2021.2.3,MacIntel,60.60606061,120739,,,,,,,
,,,,,,5.421302236,5.4217,space,4.0104,0,33,33,44,1,45,image/45.jpg,0,0,,R_3ekubxwa9Ik5zUP,2,2024-05-17_00h24.58.130,face trait task,2021.2.3,MacIntel,60.60606061,120739,,,,,,,
,,,,,,6.99670088,2.1163,space,0.3344,0,34,34,50,1,58,image/fill_img.png,1,7,Please move the slider all the way to the RIGHT to show that you are paying attention.,R_3ekubxwa9Ik5zUP,2,2024-05-17_00h24.58.130,face trait task,2021.2.3,MacIntel,60.60606061,120739,,,,,,,
,,,,,,6.400213068,6.5981,space,3.7611,0,35,35,35,1,36,image/36.jpg,0,0,,R_3ekubxwa9Ik5zUP,2,2024-05-17_00h24.58.130,face trait task,2021.2.3,MacIntel,60.60606061,120739,,,,,,,
,,,,,,5.995039864,1.9351,space,2.3626,0,36,36,41,1,42,image/42.jpg,0,0,,R_3ekubxwa9Ik5zUP,2,2024-05-17_00h24.58.130,face trait task,2021.2.3,MacIntel,60.60606061,120739,,,,,,,
,,,,,,6.485371609,4.9189,space,2.85,0,37,37,23,1,24,image/24.jpg,0,0,,R_3ekubxwa9Ik5zUP,2,2024-05-17_00h24.58.130,face trait task,2021.2.3,MacIntel,60.60606061,120739,,,,,,,
,,,,,,5.977822581,3.7311,space,3.4671,0,38,38,13,1,14,image/14.jpg,0,0,,R_3ekubxwa9Ik5zUP,2,2024-05-17_00h24.58.130,face trait task,2021.2.3,MacIntel,60.60606061,120739,,,,,,,
,,,,,,4.017560942,8.6518,space,0.3502,0,39,39,43,1,44,image/44.jpg,0,0,,R_3ekubxwa9Ik5zUP,2,2024-05-17_00h24.58.130,face trait task,2021.2.3,MacIntel,60.60606061,120739,,,,,,,
,,,,,,4.021684842,1.6177,space,0.3012,0,40,40,29,1,30,image/30.jpg,0,0,,R_3ekubxwa9Ik5zUP,2,2024-05-17_00h24.58.130,face trait task,2021.2.3,MacIntel,60.60606061,120739,,,,,,,
,,,,,,3.006449322,3.2903,space,0.2881,0,41,41,4,1,5,image/5.jpg,0,0,,R_3ekubxwa9Ik5zUP,2,2024-05-17_00h24.58.130,face trait task,2021.2.3,MacIntel,60.60606061,120739,,,,,,,
,,,,,,3.006449322,2.0799,space,0.8059,0,42,42,37,1,38,image/38.jpg,0,0,,R_3ekubxwa9Ik5zUP,2,2024-05-17_00h24.58.130,face trait task,2021.2.3,MacIntel,60.60606061,120739,,,,,,,
,,,,,,3.004421738,1.8406,space,0.3832,0,43,43,25,1,26,image/26.jpg,0,0,,R_3ekubxwa9Ik5zUP,2,2024-05-17_00h24.58.130,face trait task,2021.2.3,MacIntel,60.60606061,120739,,,,,,,
,,,,,,2.992840451,4.8082,space,0.3562,0,44,44,26,1,27,image/27.jpg,0,0,,R_3ekubxwa9Ik5zUP,2,2024-05-17_00h24.58.130,face trait task,2021.2.3,MacIntel,60.60606061,120739,,,,,,,
,,,,,,2.573371059,8.1004,space,6.3499,0,45,45,16,1,17,image/17.jpg,0,0,,R_3ekubxwa9Ik5zUP,2,2024-05-17_00h24.58.130,face trait task,2021.2.3,MacIntel,60.60606061,120739,,,,,,,
,,,,,,4.99691853,6.1975,space,5.9842,0,46,46,15,1,16,image/16.jpg,0,0,,R_3ekubxwa9Ik5zUP,2,2024-05-17_00h24.58.130,face trait task,2021.2.3,MacIntel,60.60606061,120739,,,,,,,
,,,,,,4.013952529,3.4551,space,0.3572,0,47,47,28,1,29,image/29.jpg,0,0,,R_3ekubxwa9Ik5zUP,2,2024-05-17_00h24.58.130,face trait task,2021.2.3,MacIntel,60.60606061,120739,,,,,,,
,,,,,,5.997445473,11.3588,space,8.423,0,48,48,24,1,25,image/25.jpg,0,0,,R_3ekubxwa9Ik5zUP,2,2024-05-17_00h24.58.130,face trait task,2021.2.3,MacIntel,60.60606061,120739,,,,,,,
,,,,,,2.974179802,7.4964,space,4.3465,0,49,49,39,1,40,image/40.jpg,0,0,,R_3ekubxwa9Ik5zUP,2,2024-05-17_00h24.58.130,face trait task,2021.2.3,MacIntel,60.60606061,120739,,,,,,,
,,,,,,5.01293301,11.2292,space,5.0396,0,50,50,33,1,34,image/34.jpg,0,0,,R_3ekubxwa9Ik5zUP,2,2024-05-17_00h24.58.130,face trait task,2021.2.3,MacIntel,60.60606061,120739,,,,,,,
,,,,,,2.044721408,11.7044,space,10.2476,0,51,51,7,1,8,image/8.jpg,0,0,,R_3ekubxwa9Ik5zUP,2,2024-05-17_00h24.58.130,face trait task,2021.2.3,MacIntel,60.60606061,120739,,,,,,,
,,,,,,1.987158633,3.3975,space,0.9695,0,52,52,2,1,3,image/3.jpg,0,0,,R_3ekubxwa9Ik5zUP,2,2024-05-17_00h24.58.130,face trait task,2021.2.3,MacIntel,60.60606061,120739,,,,,,,
,,,,,,,,,,,,,,,,,,,,R_3ekubxwa9Ik5zUP,2,2024-05-17_00h24.58.130,face trait task,2021.2.3,MacIntel,60.60606061,120739,0,0,0,1,1,1,competent.png
,,,,,trustworthy,2.450487447,11.2102,space,3.8403,0,0,0,41,1,42,image/42.jpg,0,0,,R_3ekubxwa9Ik5zUP,2,2024-05-17_00h24.58.130,face trait task,2021.2.3,MacIntel,60.60606061,120739,,,,,,,
,,,,,,2.450487447,2.6733,space,0.5671,0,1,1,26,1,27,image/27.jpg,0,0,,R_3ekubxwa9Ik5zUP,2,2024-05-17_00h24.58.130,face trait task,2021.2.3,MacIntel,60.60606061,120739,,,,,,,
,,,,,,2.472856571,5.6443,space,0.3837,0,2,2,18,1,19,image/19.jpg,0,0,,R_3ekubxwa9Ik5zUP,2,2024-05-17_00h24.58.130,face trait task,2021.2.3,MacIntel,60.60606061,120739,,,,,,,
,,,,,,1.542901976,4.4236,space,2.3671,0,3,3,29,1,30,image/30.jpg,0,0,,R_3ekubxwa9Ik5zUP,2,2024-05-17_00h24.58.130,face trait task,2021.2.3,MacIntel,60.60606061,120739,,,,,,,
,,,,,,3.002170139,4.5951,space,0.9747,0,4,4,12,1,13,image/13.jpg,0,0,,R_3ekubxwa9Ik5zUP,2,2024-05-17_00h24.58.130,face trait task,2021.2.3,MacIntel,60.60606061,120739,,,,,,,
,,,,,,4.970753205,13.7625,space,9.3683,0,5,5,5,1,6,image/6.jpg,0,0,,R_3ekubxwa9Ik5zUP,2,2024-05-17_00h24.58.130,face trait task,2021.2.3,MacIntel,60.60606061,120739,,,,,,,
,,,,,,1.475861378,7.3983,space,5.7545,0,6,6,40,1,41,image/41.jpg,0,0,,R_3ekubxwa9Ik5zUP,2,2024-05-17_00h24.58.130,face trait task,2021.2.3,MacIntel,60.60606061,120739,,,,,,,
,,,,,,6.981503739,3.7193,space,0.4437,0,7,7,51,1,58,image/fill_img.png,1,7,Please move the slider all the way to the RIGHT to show that you are paying attention.,R_3ekubxwa9Ik5zUP,2,2024-05-17_00h24.58.130,face trait task,2021.2.3,MacIntel,60.60606061,120739,,,,,,,
,,,,,,5.018696581,5.7314,space,0.4841,0,8,8,24,1,25,image/25.jpg,0,0,,R_3ekubxwa9Ik5zUP,2,2024-05-17_00h24.58.130,face trait task,2021.2.3,MacIntel,60.60606061,120739,,,,,,,
,,,,,,2.993923611,2.9463,space,0.402,0,9,9,32,1,33,image/33.jpg,0,0,,R_3ekubxwa9Ik5zUP,2,2024-05-17_00h24.58.130,face trait task,2021.2.3,MacIntel,60.60606061,120739,,,,,,,
,,,,,,4.994224092,3.0342,space,0.9002,0,10,10,19,1,20,image/20.jpg,0,0,,R_3ekubxwa9Ik5zUP,2,2024-05-17_00h24.58.130,face trait task,2021.2.3,MacIntel,60.60606061,120739,,,,,,,
,,,,,,5.983540331,5.503,space,1.2162,0,11,11,3,1,4,image/4.jpg,0,0,,R_3ekubxwa9Ik5zUP,2,2024-05-17_00h24.58.130,face trait task,2021.2.3,MacIntel,60.60606061,120739,,,,,,,
,,,,,,4.98056891,3.9677,space,0.7509,0,12,12,7,1,8,image/8.jpg,0,0,,R_3ekubxwa9Ik5zUP,2,2024-05-17_00h24.58.130,face trait task,2021.2.3,MacIntel,60.60606061,120739,,,,,,,
,,,,,,5.021200588,3.615,space,0.4113,0,13,13,31,1,32,image/32.jpg,0,0,,R_3ekubxwa9Ik5zUP,2,2024-05-17_00h24.58.130,face trait task,2021.2.3,MacIntel,60.60606061,120739,,,,,,,
,,,,,,4.372930021,4.0869,space,0.3788,0,14,14,43,1,44,image/44.jpg,0,0,,R_3ekubxwa9Ik5zUP,2,2024-05-17_00h24.58.130,face trait task,2021.2.3,MacIntel,60.60606061,120739,,,,,,,
,,,,,,7,4.1316,space,0.8509,0,15,15,50,1,58,image/fill_img.png,1,7,Please move the slider all the way to the RIGHT to show that you are paying attention.,R_3ekubxwa9Ik5zUP,2,2024-05-17_00h24.58.130,face trait task,2021.2.3,MacIntel,60.60606061,120739,,,,,,,
,,,,,,2.503071581,8.339,space,4.0074,0,16,16,39,1,40,image/40.jpg,0,0,,R_3ekubxwa9Ik5zUP,2,2024-05-17_00h24.58.130,face trait task,2021.2.3,MacIntel,60.60606061,120739,,,,,,,
,,,,,,1.012520032,2.7033,space,0.8543,0,17,17,34,1,35,image/35.jpg,0,0,,R_3ekubxwa9Ik5zUP,2,2024-05-17_00h24.58.130,face trait task,2021.2.3,MacIntel,60.60606061,120739,,,,,,,
,,,,,,4.506710737,5.1701,space,3.6562,0,18,18,4,1,5,image/5.jpg,0,0,,R_3ekubxwa9Ik5zUP,2,2024-05-17_00h24.58.130,face trait task,2021.2.3,MacIntel,60.60606061,120739,,,,,,,
,,,,,,4.147168803,9.723,space,6.53,0,19,19,22,1,23,image/23.jpg,0,0,,R_3ekubxwa9Ik5zUP,2,2024-05-17_00h24.58.130,face trait task,2021.2.3,MacIntel,60.60606061,120739,,,,,,,
,,,,,,1,5.4275,space,1.415,0,20,20,52,1,52,image/fill_img.png,1,1,Please move the slider all the way to the LEFT to show that you are paying attention.,R_3ekubxwa9Ik5zUP,2,2024-05-17_00h24.58.130,face trait task,2021.2.3,MacIntel,60.60606061,120739,,,,,,,
,,,,,,1.012419872,3.5465,space,0.683,0,21,21,45,1,46,image/46.jpg,0,0,,R_3ekubxwa9Ik5zUP,2,2024-05-17_00h24.58.130,face trait task,2021.2.3,MacIntel,60.60606061,120739,,,,,,,
,,,,,,1.475794605,5.3478,space,4.2871,0,22,22,48,1,49,image/49.jpg,0,0,,R_3ekubxwa9Ik5zUP,2,2024-05-17_00h24.58.130,face trait task,2021.2.3,MacIntel,60.60606061,120739,,,,,,,
,,,,,,4.969050481,20.9813,space,17.6804,0,23,23,11,1,12,image/12.jpg,0,0,,R_3ekubxwa9Ik5zUP,2,2024-05-17_00h24.58.130,face trait task,2021.2.3,MacIntel,60.60606061,120739,,,,,,,
,,,,,,1.993823451,2.0965,space,2.1017,0,24,24,36,1,37,image/37.jpg,0,0,,R_3ekubxwa9Ik5zUP,2,2024-05-17_00h24.58.130,face trait task,2021.2.3,MacIntel,60.60606061,120739,,,,,,,
,,,,,,4.012419872,2.1761,space,2.1342,0,25,25,44,1,45,image/45.jpg,0,0,,R_3ekubxwa9Ik5zUP,2,2024-05-17_00h24.58.130,face trait task,2021.2.3,MacIntel,60.60606061,120739,,,,,,,
,,,,,,5.007311699,2.2067,space,0.2466,0,26,26,17,1,18,image/18.jpg,0,0,,R_3ekubxwa9Ik5zUP,2,2024-05-17_00h24.58.130,face trait task,2021.2.3,MacIntel,60.60606061,120739,,,,,,,
,,,,,,3.021701389,7.721,space,6.1489,0,27,27,25,1,26,image/26.jpg,0,0,,R_3ekubxwa9Ik5zUP,2,2024-05-17_00h24.58.130,face trait task,2021.2.3,MacIntel,60.60606061,120739,,,,,,,
,,,,,,1.74095219,4.3711,space,0.8501,0,28,28,8,1,9,image/9.jpg,0,0,,R_3ekubxwa9Ik5zUP,2,2024-05-17_00h24.58.130,face trait task,2021.2.3,MacIntel,60.60606061,120739,,,,,,,
,,,,,,2.985409989,7.4244,space,9.6646,0,29,29,21,1,22,image/22.jpg,0,0,,R_3ekubxwa9Ik5zUP,2,2024-05-17_00h24.58.130,face trait task,2021.2.3,MacIntel,60.60606061,120739,,,,,,,
,,,,,,2.506777511,6.9871,space,3.7705,0,30,30,27,1,28,image/28.jpg,0,0,,R_3ekubxwa9Ik5zUP,2,2024-05-17_00h24.58.130,face trait task,2021.2.3,MacIntel,60.60606061,120739,,,,,,,
,,,,,,4.006844284,10.0902,space,7.6123,0,31,31,49,1,50,image/50.jpg,0,0,,R_3ekubxwa9Ik5zUP,2,2024-05-17_00h24.58.130,face trait task,2021.2.3,MacIntel,60.60606061,120739,,,,,,,
,,,,,,2.998130342,2.9965,space,0.8677,0,32,32,16,1,17,image/17.jpg,0,0,,R_3ekubxwa9Ik5zUP,2,2024-05-17_00h24.58.130,face trait task,2021.2.3,MacIntel,60.60606061,120739,,,,,,,
,,,,,,2.998130342,1.6635,space,0.5848,0,33,33,13,1,14,image/14.jpg,0,0,,R_3ekubxwa9Ik5zUP,2,2024-05-17_00h24.58.130,face trait task,2021.2.3,MacIntel,60.60606061,120739,,,,,,,
,,,,,,4.573050214,3.5994,space,1.9501,0,34,34,14,1,15,image/15.jpg,0,0,,R_3ekubxwa9Ik5zUP,2,2024-05-17_00h24.58.130,face trait task,2021.2.3,MacIntel,60.60606061,120739,,,,,,,
,,,,,,3.011251335,3.0053,space,5.8995,0,35,35,33,1,34,image/34.jpg,0,0,,R_3ekubxwa9Ik5zUP,2,2024-05-17_00h24.58.130,face trait task,2021.2.3,MacIntel,60.60606061,120739,,,,,,,
,,,,,,5.547175481,2.5896,space,2.8299,0,36,36,35,1,36,image/36.jpg,0,0,,R_3ekubxwa9Ik5zUP,2,2024-05-17_00h24.58.130,face trait task,2021.2.3,MacIntel,60.60606061,120739,,,,,,,
,,,,,,3.53372062,4.7917,space,5.4908,0,37,37,28,1,29,image/29.jpg,0,0,,R_3ekubxwa9Ik5zUP,2,2024-05-17_00h24.58.130,face trait task,2021.2.3,MacIntel,60.60606061,120739,,,,,,,
,,,,,,3.963641827,6.3617,space,1.3397,0,38,38,6,1,7,image/7.jpg,0,0,,R_3ekubxwa9Ik5zUP,2,2024-05-17_00h24.58.130,face trait task,2021.2.3,MacIntel,60.60606061,120739,,,,,,,
,,,,,,1.528812767,6.734,space,1.6114,0,39,39,38,1,39,image/39.jpg,0,0,,R_3ekubxwa9Ik5zUP,2,2024-05-17_00h24.58.130,face trait task,2021.2.3,MacIntel,60.60606061,120739,,,,,,,
,,,,,,1.479200053,1.6007,space,0.5368,0,40,40,47,1,48,image/48.jpg,0,0,,R_3ekubxwa9Ik5zUP,2,2024-05-17_00h24.58.130,face trait task,2021.2.3,MacIntel,60.60606061,120739,,,,,,,
,,,,,,5.003872863,1.9468,space,0.4799,0,41,41,23,1,24,image/24.jpg,0,0,,R_3ekubxwa9Ik5zUP,2,2024-05-17_00h24.58.130,face trait task,2021.2.3,MacIntel,60.60606061,120739,,,,,,,
,,,,,,3.011485043,3.5955,space,10.3459,0,42,42,46,1,47,image/47.jpg,0,0,,R_3ekubxwa9Ik5zUP,2,2024-05-17_00h24.58.130,face trait task,2021.2.3,MacIntel,60.60606061,120739,,,,,,,
,,,,,,4.597422543,4.9286,space,1.9837,0,43,43,1,1,2,image/2.jpg,0,0,,R_3ekubxwa9Ik5zUP,2,2024-05-17_00h24.58.130,face trait task,2021.2.3,MacIntel,60.60606061,120739,,,,,,,
,,,,,,4.021901709,3.3063,space,1.1841,0,44,44,15,1,16,image/16.jpg,0,0,,R_3ekubxwa9Ik5zUP,2,2024-05-17_00h24.58.130,face trait task,2021.2.3,MacIntel,60.60606061,120739,,,,,,,
,,,,,,4.474893162,2.9214,space,0.2976,0,45,45,2,1,3,image/3.jpg,0,0,,R_3ekubxwa9Ik5zUP,2,2024-05-17_00h24.58.130,face trait task,2021.2.3,MacIntel,60.60606061,120739,,,,,,,
,,,,,,1.596020299,5.07,space,3.0173,0,46,46,37,1,38,image/38.jpg,0,0,,R_3ekubxwa9Ik5zUP,2,2024-05-17_00h24.58.130,face trait task,2021.2.3,MacIntel,60.60606061,120739,,,,,,,
,,,,,,2.512453259,3.8733,space,0.9633,0,47,47,30,1,31,image/31.jpg,0,0,,R_3ekubxwa9Ik5zUP,2,2024-05-17_00h24.58.130,face trait task,2021.2.3,MacIntel,60.60606061,120739,,,,,,,
,,,,,,2.42321047,2.9737,space,0.5478,0,48,48,0,1,1,image/1.jpg,0,0,,R_3ekubxwa9Ik5zUP,2,2024-05-17_00h24.58.130,face trait task,2021.2.3,MacIntel,60.60606061,120739,,,,,,,
,,,,,,4.027210203,5.9132,space,2.7073,0,49,49,10,1,11,image/11.jpg,0,0,,R_3ekubxwa9Ik5zUP,2,2024-05-17_00h24.58.130,face trait task,2021.2.3,MacIntel,60.60606061,120739,,,,,,,
,,,,,,5.009748932,2.1979,space,1.4331,0,50,50,20,1,21,image/21.jpg,0,0,,R_3ekubxwa9Ik5zUP,2,2024-05-17_00h24.58.130,face trait task,2021.2.3,MacIntel,60.60606061,120739,,,,,,,
,,,,,,4.037793803,5.9053,space,2.6297,0,51,51,9,1,10,image/10.jpg,0,0,,R_3ekubxwa9Ik5zUP,2,2024-05-17_00h24.58.130,face trait task,2021.2.3,MacIntel,60.60606061,120739,,,,,,,
,,,,,,1.013888889,3.279,space,0.798,0,52,52,42,1,43,image/43.jpg,0,0,,R_3ekubxwa9Ik5zUP,2,2024-05-17_00h24.58.130,face trait task,2021.2.3,MacIntel,60.60606061,120739,,,,,,,
,,,,,,,,,,,,,,,,,,,,R_3ekubxwa9Ik5zUP,2,2024-05-17_00h24.58.130,face trait task,2021.2.3,MacIntel,60.60606061,120739,0,1,1,2,1,2,trustworthy.png
,,,,,friendly,5.007879274,3.8533,space,9.1709,0,0,0,7,1,8,image/8.jpg,0,0,,R_3ekubxwa9Ik5zUP,2,2024-05-17_00h24.58.130,face trait task,2021.2.3,MacIntel,60.60606061,120739,,,,,,,
,,,,,,4.470052083,9.4551,space,2.5565,0,1,1,33,1,34,image/34.jpg,0,0,,R_3ekubxwa9Ik5zUP,2,2024-05-17_00h24.58.130,face trait task,2021.2.3,MacIntel,60.60606061,120739,,,,,,,
,,,,,,2.983072917,5.321,space,3.9127,0,2,2,36,1,37,image/37.jpg,0,0,,R_3ekubxwa9Ik5zUP,2,2024-05-17_00h24.58.130,face trait task,2021.2.3,MacIntel,60.60606061,120739,,,,,,,
,,,,,,2.983072917,1.5045,space,1.0049,0,3,3,16,1,17,image/17.jpg,0,0,,R_3ekubxwa9Ik5zUP,2,2024-05-17_00h24.58.130,face trait task,2021.2.3,MacIntel,60.60606061,120739,,,,,,,
,,,,,,1.994290865,3.7634,space,1.384,0,4,4,34,1,35,image/35.jpg,0,0,,R_3ekubxwa9Ik5zUP,2,2024-05-17_00h24.58.130,face trait task,2021.2.3,MacIntel,60.60606061,120739,,,,,,,
,,,,,,4.995225694,2.0739,space,0.584,0,5,5,2,1,3,image/3.jpg,0,0,,R_3ekubxwa9Ik5zUP,2,2024-05-17_00h24.58.130,face trait task,2021.2.3,MacIntel,60.60606061,120739,,,,,,,
,,,,,,5.986044338,3.2013,space,1.9502,0,6,6,17,1,18,image/18.jpg,0,0,,R_3ekubxwa9Ik5zUP,2,2024-05-17_00h24.58.130,face trait task,2021.2.3,MacIntel,60.60606061,120739,,,,,,,
,,,,,,6.985576923,3.2535,space,0.6627,0,7,7,51,1,58,image/fill_img.png,1,7,Please move the slider all the way to the RIGHT to show that you are paying attention.,R_3ekubxwa9Ik5zUP,2,2024-05-17_00h24.58.130,face trait task,2021.2.3,MacIntel,60.60606061,120739,,,,,,,
,,,,,,3.988748665,3.7329,space,0.4469,0,8,8,48,1,49,image/49.jpg,0,0,,R_3ekubxwa9Ik5zUP,2,2024-05-17_00h24.58.130,face trait task,2021.2.3,MacIntel,60.60606061,120739,,,,,,,
,,,,,,4.431256677,5.0974,space,0.4179,0,9,9,1,1,2,image/2.jpg,0,0,,R_3ekubxwa9Ik5zUP,2,2024-05-17_00h24.58.130,face trait task,2021.2.3,MacIntel,60.60606061,120739,,,,,,,
,,,,,,1.487680288,6.5121,space,3.8605,0,10,10,42,1,43,image/43.jpg,0,0,,R_3ekubxwa9Ik5zUP,2,2024-05-17_00h24.58.130,face trait task,2021.2.3,MacIntel,60.60606061,120739,,,,,,,
,,,,,,1.485944177,2.2511,space,0.3169,0,11,11,37,1,38,image/38.jpg,0,0,,R_3ekubxwa9Ik5zUP,2,2024-05-17_00h24.58.130,face trait task,2021.2.3,MacIntel,60.60606061,120739,,,,,,,
,,,,,,4.463441506,5.1017,space,2.6974,0,12,12,32,1,33,image/33.jpg,0,0,,R_3ekubxwa9Ik5zUP,2,2024-05-17_00h24.58.130,face trait task,2021.2.3,MacIntel,60.60606061,120739,,,,,,,
,,,,,,4.524539263,4.2627,space,1.814,0,13,13,46,1,47,image/47.jpg,0,0,,R_3ekubxwa9Ik5zUP,2,2024-05-17_00h24.58.130,face trait task,2021.2.3,MacIntel,60.60606061,120739,,,,,,,
,,,,,,1,2.7149,space,0.9861,0,14,14,52,1,52,image/fill_img.png,1,1,Please move the slider all the way to the LEFT to show that you are paying attention.,R_3ekubxwa9Ik5zUP,2,2024-05-17_00h24.58.130,face trait task,2021.2.3,MacIntel,60.60606061,120739,,,,,,,
,,,,,,4.467681624,5.7496,space,1.7341,0,15,15,22,1,23,image/23.jpg,0,0,,R_3ekubxwa9Ik5zUP,2,2024-05-17_00h24.58.130,face trait task,2021.2.3,MacIntel,60.60606061,120739,,,,,,,
,,,,,,2.994057158,4.6728,space,1.7049,0,16,16,9,1,10,image/10.jpg,0,0,,R_3ekubxwa9Ik5zUP,2,2024-05-17_00h24.58.130,face trait task,2021.2.3,MacIntel,60.60606061,120739,,,,,,,
,,,,,,1.445178953,5.5054,space,3.4996,0,17,17,5,1,6,image/6.jpg,0,0,,R_3ekubxwa9Ik5zUP,2,2024-05-17_00h24.58.130,face trait task,2021.2.3,MacIntel,60.60606061,120739,,,,,,,
,,,,,,3.000968216,3.9576,space,2.0351,0,18,18,6,1,7,image/7.jpg,0,0,,R_3ekubxwa9Ik5zUP,2,2024-05-17_00h24.58.130,face trait task,2021.2.3,MacIntel,60.60606061,120739,,,,,,,
,,,,,,3.00771234,1.5904,space,0.3187,0,19,19,28,1,29,image/29.jpg,0,0,,R_3ekubxwa9Ik5zUP,2,2024-05-17_00h24.58.130,face trait task,2021.2.3,MacIntel,60.60606061,120739,,,,,,,
,,,,,,5.019898504,1.8643,space,2.7505,0,20,20,3,1,4,image/4.jpg,0,0,,R_3ekubxwa9Ik5zUP,2,2024-05-17_00h24.58.130,face trait task,2021.2.3,MacIntel,60.60606061,120739,,,,,,,
,,,,,,5.006443643,1.8432,space,0.3138,0,21,21,4,1,5,image/5.jpg,0,0,,R_3ekubxwa9Ik5zUP,2,2024-05-17_00h24.58.130,face trait task,2021.2.3,MacIntel,60.60606061,120739,,,,,,,
,,,,,,5.006443643,1.322,space,2.8126,0,22,22,14,1,15,image/15.jpg,0,0,,R_3ekubxwa9Ik5zUP,2,2024-05-17_00h24.58.130,face trait task,2021.2.3,MacIntel,60.60606061,120739,,,,,,,
,,,,,,2.983306624,2.2573,space,0.8667,0,23,23,10,1,11,image/11.jpg,0,0,,R_3ekubxwa9Ik5zUP,2,2024-05-17_00h24.58.130,face trait task,2021.2.3,MacIntel,60.60606061,120739,,,,,,,
,,,,,,4.980869391,1.9558,space,0.3468,0,24,24,35,1,36,image/36.jpg,0,0,,R_3ekubxwa9Ik5zUP,2,2024-05-17_00h24.58.130,face trait task,2021.2.3,MacIntel,60.60606061,120739,,,,,,,
,,,,,,1.981103098,2.0789,space,0.9883,0,25,25,29,1,30,image/30.jpg,0,0,,R_3ekubxwa9Ik5zUP,2,2024-05-17_00h24.58.130,face trait task,2021.2.3,MacIntel,60.60606061,120739,,,,,,,
,,,,,,1.998798077,4.0053,space,1.3541,0,26,26,39,1,40,image/40.jpg,0,0,,R_3ekubxwa9Ik5zUP,2,2024-05-17_00h24.58.130,face trait task,2021.2.3,MacIntel,60.60606061,120739,,,,,,,
,,,,,,6.010016026,2.0968,space,0.5502,0,27,27,20,1,21,image/21.jpg,0,0,,R_3ekubxwa9Ik5zUP,2,2024-05-17_00h24.58.130,face trait task,2021.2.3,MacIntel,60.60606061,120739,,,,,,,
,,,,,,2.002403846,5.7241,space,1.1347,0,28,28,27,1,28,image/28.jpg,0,0,,R_3ekubxwa9Ik5zUP,2,2024-05-17_00h24.58.130,face trait task,2021.2.3,MacIntel,60.60606061,120739,,,,,,,
,,,,,,1.98427484,1.3234,space,0.3991,0,29,29,38,1,39,image/39.jpg,0,0,,R_3ekubxwa9Ik5zUP,2,2024-05-17_00h24.58.130,face trait task,2021.2.3,MacIntel,60.60606061,120739,,,,,,,
,,,,,,1.452423878,3.6973,space,2.7189,0,30,30,30,1,31,image/31.jpg,0,0,,R_3ekubxwa9Ik5zUP,2,2024-05-17_00h24.58.130,face trait task,2021.2.3,MacIntel,60.60606061,120739,,,,,,,
,,,,,,2.001969818,2.3641,space,1.6509,0,31,31,0,1,1,image/1.jpg,0,0,,R_3ekubxwa9Ik5zUP,2,2024-05-17_00h24.58.130,face trait task,2021.2.3,MacIntel,60.60606061,120739,,,,,,,
,,,,,,3.045105502,5.2639,space,0.5303,0,32,32,19,1,20,image/20.jpg,0,0,,R_3ekubxwa9Ik5zUP,2,2024-05-17_00h24.58.130,face trait task,2021.2.3,MacIntel,60.60606061,120739,,,,,,,
,,,,,,3.001736111,2.1545,space,0.7835,0,33,33,13,1,14,image/14.jpg,0,0,,R_3ekubxwa9Ik5zUP,2,2024-05-17_00h24.58.130,face trait task,2021.2.3,MacIntel,60.60606061,120739,,,,,,,
,,,,,,4.997763088,2.4799,space,0.3811,0,34,34,23,1,24,image/24.jpg,0,0,,R_3ekubxwa9Ik5zUP,2,2024-05-17_00h24.58.130,face trait task,2021.2.3,MacIntel,60.60606061,120739,,,,,,,
,,,,,,4.013388088,3.0208,space,0.2305,0,35,35,12,1,13,image/13.jpg,0,0,,R_3ekubxwa9Ik5zUP,2,2024-05-17_00h24.58.130,face trait task,2021.2.3,MacIntel,60.60606061,120739,,,,,,,
,,,,,,2.474726229,4.3061,space,0.3416,0,36,36,25,1,26,image/26.jpg,0,0,,R_3ekubxwa9Ik5zUP,2,2024-05-17_00h24.58.130,face trait task,2021.2.3,MacIntel,60.60606061,120739,,,,,,,
,,,,,,3.986278045,5.4642,space,3.8983,0,37,37,40,1,41,image/41.jpg,0,0,,R_3ekubxwa9Ik5zUP,2,2024-05-17_00h24.58.130,face trait task,2021.2.3,MacIntel,60.60606061,120739,,,,,,,
,,,,,,1.024272169,2.3135,space,0.5167,0,38,38,8,1,9,image/9.jpg,0,0,,R_3ekubxwa9Ik5zUP,2,2024-05-17_00h24.58.130,face trait task,2021.2.3,MacIntel,60.60606061,120739,,,,,,,
,,,,,,5.031049679,2.0965,space,0.2882,0,39,39,11,1,12,image/12.jpg,0,0,,R_3ekubxwa9Ik5zUP,2,2024-05-17_00h24.58.130,face trait task,2021.2.3,MacIntel,60.60606061,120739,,,,,,,
,,,,,,4.595219017,4.0156,space,1.8999,0,40,40,41,1,42,image/42.jpg,0,0,,R_3ekubxwa9Ik5zUP,2,2024-05-17_00h24.58.130,face trait task,2021.2.3,MacIntel,60.60606061,120739,,,,,,,
,,,,,,1.013788729,2.7842,space,0.4226,0,41,41,45,1,46,image/46.jpg,0,0,,R_3ekubxwa9Ik5zUP,2,2024-05-17_00h24.58.130,face trait task,2021.2.3,MacIntel,60.60606061,120739,,,,,,,
,,,,,,7,3.3552,space,0.8174,0,42,42,50,1,58,image/fill_img.png,1,7,Please move the slider all the way to the RIGHT to show that you are paying attention.,R_3ekubxwa9Ik5zUP,2,2024-05-17_00h24.58.130,face trait task,2021.2.3,MacIntel,60.60606061,120739,,,,,,,
,,,,,,2.985376603,2.7635,space,2.7672,0,43,43,21,1,22,image/22.jpg,0,0,,R_3ekubxwa9Ik5zUP,2,2024-05-17_00h24.58.130,face trait task,2021.2.3,MacIntel,60.60606061,120739,,,,,,,
,,,,,,4.995726496,2.5443,space,0.2786,0,44,44,31,1,32,image/32.jpg,0,0,,R_3ekubxwa9Ik5zUP,2,2024-05-17_00h24.58.130,face trait task,2021.2.3,MacIntel,60.60606061,120739,,,,,,,
,,,,,,2.973924947,1.7155,space,0.2036,0,45,45,15,1,16,image/16.jpg,0,0,,R_3ekubxwa9Ik5zUP,2,2024-05-17_00h24.58.130,face trait task,2021.2.3,MacIntel,60.60606061,120739,,,,,,,
,,,,,,4.405782585,3.9136,space,0.4639,0,46,46,43,1,44,image/44.jpg,0,0,,R_3ekubxwa9Ik5zUP,2,2024-05-17_00h24.58.130,face trait task,2021.2.3,MacIntel,60.60606061,120739,,,,,,,
,,,,,,4.585236378,2.2164,space,0.2781,0,47,47,44,1,45,image/45.jpg,0,0,,R_3ekubxwa9Ik5zUP,2,2024-05-17_00h24.58.130,face trait task,2021.2.3,MacIntel,60.60606061,120739,,,,,,,
,,,,,,1.495192308,3.5487,space,1.9805,0,48,48,47,1,48,image/48.jpg,0,0,,R_3ekubxwa9Ik5zUP,2,2024-05-17_00h24.58.130,face trait task,2021.2.3,MacIntel,60.60606061,120739,,,,,,,
,,,,,,4.005542201,8.6057,space,6.8195,0,49,49,18,1,19,image/19.jpg,0,0,,R_3ekubxwa9Ik5zUP,2,2024-05-17_00h24.58.130,face trait task,2021.2.3,MacIntel,60.60606061,120739,,,,,,,
,,,,,,4.5496461,2.9353,space,0.4373,0,50,50,24,1,25,image/25.jpg,0,0,,R_3ekubxwa9Ik5zUP,2,2024-05-17_00h24.58.130,face trait task,2021.2.3,MacIntel,60.60606061,120739,,,,,,,
,,,,,,3.997195513,2.9975,space,0.2497,0,51,51,49,1,50,image/50.jpg,0,0,,R_3ekubxwa9Ik5zUP,2,2024-05-17_00h24.58.130,face trait task,2021.2.3,MacIntel,60.60606061,120739,,,,,,,
,,,,,,2.996494391,2.1497,space,1.9875,0,52,52,26,1,27,image/27.jpg,0,0,,R_3ekubxwa9Ik5zUP,2,2024-05-17_00h24.58.130,face trait task,2021.2.3,MacIntel,60.60606061,120739,,,,,,,
,,,,,,,,,,,,,,,,,,,,R_3ekubxwa9Ik5zUP,2,2024-05-17_00h24.58.130,face trait task,2021.2.3,MacIntel,60.60606061,120739,0,2,2,3,1,3,friendly.png
,,,,,critical,2.007779113,3.6925,space,1.4846,0,0,0,0,1,1,image/1.jpg,0,0,,R_3ekubxwa9Ik5zUP,2,2024-05-17_00h24.58.130,face trait task,2021.2.3,MacIntel,60.60606061,120739,,,,,,,
,,,,,,3.0284789,6.3151,space,3.5967,0,1,1,22,1,23,image/23.jpg,0,0,,R_3ekubxwa9Ik5zUP,2,2024-05-17_00h24.58.130,face trait task,2021.2.3,MacIntel,60.60606061,120739,,,,,,,
,,,,,,1.970853365,2.7633,space,1.2206,0,2,2,24,1,25,image/25.jpg,0,0,,R_3ekubxwa9Ik5zUP,2,2024-05-17_00h24.58.130,face trait task,2021.2.3,MacIntel,60.60606061,120739,,,,,,,
,,,,,,6.004273504,5.6534,space,2.6188,0,3,3,47,1,48,image/48.jpg,0,0,,R_3ekubxwa9Ik5zUP,2,2024-05-17_00h24.58.130,face trait task,2021.2.3,MacIntel,60.60606061,120739,,,,,,,
,,,,,,5.985009348,1.496,space,0.7228,0,4,4,33,1,34,image/34.jpg,0,0,,R_3ekubxwa9Ik5zUP,2,2024-05-17_00h24.58.130,face trait task,2021.2.3,MacIntel,60.60606061,120739,,,,,,,
,,,,,,2.999432425,4.49,space,0.2932,0,5,5,41,1,42,image/42.jpg,0,0,,R_3ekubxwa9Ik5zUP,2,2024-05-17_00h24.58.130,face trait task,2021.2.3,MacIntel,60.60606061,120739,,,,,,,
,,,,,,5.013421474,2.8571,space,0.2343,0,6,6,13,1,14,image/14.jpg,0,0,,R_3ekubxwa9Ik5zUP,2,2024-05-17_00h24.58.130,face trait task,2021.2.3,MacIntel,60.60606061,120739,,,,,,,
,,,,,,5.977731036,1.6468,space,0.3557,0,7,7,36,1,37,image/37.jpg,0,0,,R_3ekubxwa9Ik5zUP,2,2024-05-17_00h24.58.130,face trait task,2021.2.3,MacIntel,60.60606061,120739,,,,,,,
,,,,,,6.517962073,2.6321,space,0.9672,0,8,8,30,1,31,image/31.jpg,0,0,,R_3ekubxwa9Ik5zUP,2,2024-05-17_00h24.58.130,face trait task,2021.2.3,MacIntel,60.60606061,120739,,,,,,,
,,,,,,1.017561432,6.3282,space,3.946,0,9,9,7,1,8,image/8.jpg,0,0,,R_3ekubxwa9Ik5zUP,2,2024-05-17_00h24.58.130,face trait task,2021.2.3,MacIntel,60.60606061,120739,,,,,,,
,,,,,,1.506310096,3.984,space,2.1473,0,10,10,11,1,12,image/12.jpg,0,0,,R_3ekubxwa9Ik5zUP,2,2024-05-17_00h24.58.130,face trait task,2021.2.3,MacIntel,60.60606061,120739,,,,,,,
,,,,,,5.01572516,3.6539,space,0.1638,0,11,11,1,1,2,image/2.jpg,0,0,,R_3ekubxwa9Ik5zUP,2,2024-05-17_00h24.58.130,face trait task,2021.2.3,MacIntel,60.60606061,120739,,,,,,,
,,,,,,2.977196848,5.1603,space,0.4015,0,12,12,34,1,35,image/35.jpg,0,0,,R_3ekubxwa9Ik5zUP,2,2024-05-17_00h24.58.130,face trait task,2021.2.3,MacIntel,60.60606061,120739,,,,,,,
,,,,,,6.993756677,2.1346,space,0.449,0,13,13,25,1,26,image/26.jpg,0,0,,R_3ekubxwa9Ik5zUP,2,2024-05-17_00h24.58.130,face trait task,2021.2.3,MacIntel,60.60606061,120739,,,,,,,
,,,,,,2.983506944,7.76,space,6.1964,0,14,14,40,1,41,image/41.jpg,0,0,,R_3ekubxwa9Ik5zUP,2,2024-05-17_00h24.58.130,face trait task,2021.2.3,MacIntel,60.60606061,120739,,,,,,,
,,,,,,1,2.711,space,0.8357,0,15,15,52,1,52,image/fill_img.png,1,1,Please move the slider all the way to the LEFT to show that you are paying attention.,R_3ekubxwa9Ik5zUP,2,2024-05-17_00h24.58.130,face trait task,2021.2.3,MacIntel,60.60606061,120739,,,,,,,
,,,,,,3.993689904,4.6988,space,0.3129,0,16,16,32,1,33,image/33.jpg,0,0,,R_3ekubxwa9Ik5zUP,2,2024-05-17_00h24.58.130,face trait task,2021.2.3,MacIntel,60.60606061,120739,,,,,,,
,,,,,,2.001969818,6.1079,space,3.1006,0,17,17,17,1,18,image/18.jpg,0,0,,R_3ekubxwa9Ik5zUP,2,2024-05-17_00h24.58.130,face trait task,2021.2.3,MacIntel,60.60606061,120739,,,,,,,
,,,,,,2.99485844,2.2353,space,0.88,0,18,18,43,1,44,image/44.jpg,0,0,,R_3ekubxwa9Ik5zUP,2,2024-05-17_00h24.58.130,face trait task,2021.2.3,MacIntel,60.60606061,120739,,,,,,,
,,,,,,2.994825053,1.5389,space,1.3029,0,19,19,23,1,24,image/24.jpg,0,0,,R_3ekubxwa9Ik5zUP,2,2024-05-17_00h24.58.130,face trait task,2021.2.3,MacIntel,60.60606061,120739,,,,,,,
,,,,,,2.982405182,2.4624,space,1.1213,0,20,20,5,1,6,image/6.jpg,0,0,,R_3ekubxwa9Ik5zUP,2,2024-05-17_00h24.58.130,face trait task,2021.2.3,MacIntel,60.60606061,120739,,,,,,,
,,,,,,2.982405182,1.779,space,0.9702,0,21,21,15,1,16,image/16.jpg,0,0,,R_3ekubxwa9Ik5zUP,2,2024-05-17_00h24.58.130,face trait task,2021.2.3,MacIntel,60.60606061,120739,,,,,,,
,,,,,,2.009281517,2.5336,space,1.7673,0,22,22,4,1,5,image/5.jpg,0,0,,R_3ekubxwa9Ik5zUP,2,2024-05-17_00h24.58.130,face trait task,2021.2.3,MacIntel,60.60606061,120739,,,,,,,
,,,,,,4.994791667,1.9585,space,1.05,0,23,23,26,1,27,image/27.jpg,0,0,,R_3ekubxwa9Ik5zUP,2,2024-05-17_00h24.58.130,face trait task,2021.2.3,MacIntel,60.60606061,120739,,,,,,,
,,,,,,4.531817575,3.8857,space,0.3616,0,24,24,18,1,19,image/19.jpg,0,0,,R_3ekubxwa9Ik5zUP,2,2024-05-17_00h24.58.130,face trait task,2021.2.3,MacIntel,60.60606061,120739,,,,,,,
,,,,,,1.999332265,4.7982,space,2.5342,0,25,25,31,1,32,image/32.jpg,0,0,,R_3ekubxwa9Ik5zUP,2,2024-05-17_00h24.58.130,face trait task,2021.2.3,MacIntel,60.60606061,120739,,,,,,,
,,,,,,5.988715278,3.9186,space,1.4501,0,26,26,37,1,38,image/38.jpg,0,0,,R_3ekubxwa9Ik5zUP,2,2024-05-17_00h24.58.130,face trait task,2021.2.3,MacIntel,60.60606061,120739,,,,,,,
,,,,,,5.994123932,1.9903,space,0.9533,0,27,27,39,1,40,image/40.jpg,0,0,,R_3ekubxwa9Ik5zUP,2,2024-05-17_00h24.58.130,face trait task,2021.2.3,MacIntel,60.60606061,120739,,,,,,,
,,,,,,5.018028846,2.3039,space,0.4338,0,28,28,49,1,50,image/50.jpg,0,0,,R_3ekubxwa9Ik5zUP,2,2024-05-17_00h24.58.130,face trait task,2021.2.3,MacIntel,60.60606061,120739,,,,,,,
,,,,,,1.994791667,2.1296,space,0.8843,0,29,29,20,1,21,image/21.jpg,0,0,,R_3ekubxwa9Ik5zUP,2,2024-05-17_00h24.58.130,face trait task,2021.2.3,MacIntel,60.60606061,120739,,,,,,,
,,,,,,6.008380075,2.5016,space,1.198,0,30,30,8,1,9,image/9.jpg,0,0,,R_3ekubxwa9Ik5zUP,2,2024-05-17_00h24.58.130,face trait task,2021.2.3,MacIntel,60.60606061,120739,,,,,,,
,,,,,,5.00894765,6.9181,space,2.9676,0,31,31,38,1,39,image/39.jpg,0,0,,R_3ekubxwa9Ik5zUP,2,2024-05-17_00h24.58.130,face trait task,2021.2.3,MacIntel,60.60606061,120739,,,,,,,
,,,,,,1.010316506,3.3346,space,1.5173,0,32,32,6,1,7,image/7.jpg,0,0,,R_3ekubxwa9Ik5zUP,2,2024-05-17_00h24.58.130,face trait task,2021.2.3,MacIntel,60.60606061,120739,,,,,,,
,,,,,,1.538227831,4.7008,space,3.233,0,33,33,35,1,36,image/36.jpg,0,0,,R_3ekubxwa9Ik5zUP,2,2024-05-17_00h24.58.130,face trait task,2021.2.3,MacIntel,60.60606061,120739,,,,,,,
,,,,,,6.98551015,3.4046,space,0.4875,0,34,34,51,1,58,image/fill_img.png,1,7,Please move the slider all the way to the RIGHT to show that you are paying attention.,R_3ekubxwa9Ik5zUP,2,2024-05-17_00h24.58.130,face trait task,2021.2.3,MacIntel,60.60606061,120739,,,,,,,
,,,,,,2.018729968,2.0308,space,0.4813,0,35,35,9,1,10,image/10.jpg,0,0,,R_3ekubxwa9Ik5zUP,2,2024-05-17_00h24.58.130,face trait task,2021.2.3,MacIntel,60.60606061,120739,,,,,,,
,,,,,,2.966346154,4.0062,space,2.6675,0,36,36,16,1,17,image/17.jpg,0,0,,R_3ekubxwa9Ik5zUP,2,2024-05-17_00h24.58.130,face trait task,2021.2.3,MacIntel,60.60606061,120739,,,,,,,
,,,,,,3.961605235,4.236,space,1.0522,0,37,37,46,1,47,image/47.jpg,0,0,,R_3ekubxwa9Ik5zUP,2,2024-05-17_00h24.58.130,face trait task,2021.2.3,MacIntel,60.60606061,120739,,,,,,,
,,,,,,5.486444979,2.9382,space,0.2433,0,38,38,28,1,29,image/29.jpg,0,0,,R_3ekubxwa9Ik5zUP,2,2024-05-17_00h24.58.130,face trait task,2021.2.3,MacIntel,60.60606061,120739,,,,,,,
,,,,,,6.999232105,1.7036,space,0.8009,0,39,39,29,1,30,image/30.jpg,0,0,,R_3ekubxwa9Ik5zUP,2,2024-05-17_00h24.58.130,face trait task,2021.2.3,MacIntel,60.60606061,120739,,,,,,,
,,,,,,1.986812233,4.1346,space,2.1122,0,40,40,2,1,3,image/3.jpg,0,0,,R_3ekubxwa9Ik5zUP,2,2024-05-17_00h24.58.130,face trait task,2021.2.3,MacIntel,60.60606061,120739,,,,,,,
,,,,,,3.99856437,5.7949,space,3.0173,0,41,41,3,1,4,image/4.jpg,0,0,,R_3ekubxwa9Ik5zUP,2,2024-05-17_00h24.58.130,face trait task,2021.2.3,MacIntel,60.60606061,120739,,,,,,,
,,,,,,4.982004541,1.7558,space,0.7837,0,42,42,48,1,49,image/49.jpg,0,0,,R_3ekubxwa9Ik5zUP,2,2024-05-17_00h24.58.130,face trait task,2021.2.3,MacIntel,60.60606061,120739,,,,,,,
,,,,,,2.972088675,5.0816,space,4.7006,0,43,43,14,1,15,image/15.jpg,0,0,,R_3ekubxwa9Ik5zUP,2,2024-05-17_00h24.58.130,face trait task,2021.2.3,MacIntel,60.60606061,120739,,,,,,,
,,,,,,5.976796207,2.2533,space,1.0706,0,44,44,21,1,22,image/22.jpg,0,0,,R_3ekubxwa9Ik5zUP,2,2024-05-17_00h24.58.130,face trait task,2021.2.3,MacIntel,60.60606061,120739,,,,,,,
,,,,,,3.009782318,1.8398,space,5.0965,0,45,45,10,1,11,image/11.jpg,0,0,,R_3ekubxwa9Ik5zUP,2,2024-05-17_00h24.58.130,face trait task,2021.2.3,MacIntel,60.60606061,120739,,,,,,,
,,,,,,6.984141293,2.2077,space,0.3527,0,46,46,45,1,46,image/46.jpg,0,0,,R_3ekubxwa9Ik5zUP,2,2024-05-17_00h24.58.130,face trait task,2021.2.3,MacIntel,60.60606061,120739,,,,,,,
,,,,,,3.000868056,2.4609,space,4.5803,0,47,47,44,1,45,image/45.jpg,0,0,,R_3ekubxwa9Ik5zUP,2,2024-05-17_00h24.58.130,face trait task,2021.2.3,MacIntel,60.60606061,120739,,,,,,,
,,,,,,5.978432158,1.8061,space,0.3367,0,48,48,27,1,28,image/28.jpg,0,0,,R_3ekubxwa9Ik5zUP,2,2024-05-17_00h24.58.130,face trait task,2021.2.3,MacIntel,60.60606061,120739,,,,,,,
,,,,,,4.007745726,2.2952,space,1.534,0,49,49,12,1,13,image/13.jpg,0,0,,R_3ekubxwa9Ik5zUP,2,2024-05-17_00h24.58.130,face trait task,2021.2.3,MacIntel,60.60606061,120739,,,,,,,
,,,,,,5.001302083,1.4719,space,0.2351,0,50,50,19,1,20,image/20.jpg,0,0,,R_3ekubxwa9Ik5zUP,2,2024-05-17_00h24.58.130,face trait task,2021.2.3,MacIntel,60.60606061,120739,,,,,,,
,,,,,,7,2.4347,space,0.8677,0,51,51,50,1,58,image/fill_img.png,1,7,Please move the slider all the way to the RIGHT to show that you are paying attention.,R_3ekubxwa9Ik5zUP,2,2024-05-17_00h24.58.130,face trait task,2021.2.3,MacIntel,60.60606061,120739,,,,,,,
,,,,,,5.99095219,2.2461,space,4.7676,0,52,52,42,1,43,image/43.jpg,0,0,,R_3ekubxwa9Ik5zUP,2,2024-05-17_00h24.58.130,face trait task,2021.2.3,MacIntel,60.60606061,120739,,,,,,,
,,,,,,,,,,,,,,,,,,,,R_3ekubxwa9Ik5zUP,2,2024-05-17_00h24.58.130,face trait task,2021.2.3,MacIntel,60.60606061,120739,0,3,3,0,1,0,critical.png
