key_resp.keys,key_resp.rt,key_resp_4.keys,key_resp_4.rt,slider_face_judge.response,slider_face_judge.rt,key_resp_3.keys,key_resp_3.rt,face_loop.thisRepN,face_loop.thisTrialN,face_loop.thisN,face_loop.thisIndex,face_loop.ran,face_serial,image_name,isCheck,participant,session,date,expName,psychopyVersion,OS,frameRate,SONAid,session.thisRepN,session.thisTrialN,session.thisN,session.thisIndex,session.ran,session_serial,slider_judge_img
space,14.7954,space,16.0685,4.007473958,3.4596,space,0.81,0,0,0,47,1,48,image/48.jpg,0,R_3FJcVxSy2lNvUyM,2,2024-04-10_14h05.23.485,face trait task,2021.2.3,MacIntel,59.88023952,SONAid,,,,,,,
,,,,2.979557292,2.2645,space,0.5506,0,1,1,48,1,49,image/49.jpg,0,R_3FJcVxSy2lNvUyM,2,2024-04-10_14h05.23.485,face trait task,2021.2.3,MacIntel,59.88023952,SONAid,,,,,,,
,,,,4.055677083,1.8128,space,0.5689,0,2,2,4,1,5,image/5.jpg,0,R_3FJcVxSy2lNvUyM,2,2024-04-10_14h05.23.485,face trait task,2021.2.3,MacIntel,59.88023952,SONAid,,,,,,,
,,,,5.988984375,1.851,space,0.5683,0,3,3,32,1,33,image/33.jpg,0,R_3FJcVxSy2lNvUyM,2,2024-04-10_14h05.23.485,face trait task,2021.2.3,MacIntel,59.88023952,SONAid,,,,,,,
,,,,3.991614583,1.747,space,0.4488,0,4,4,9,1,10,image/10.jpg,0,R_3FJcVxSy2lNvUyM,2,2024-04-10_14h05.23.485,face trait task,2021.2.3,MacIntel,59.88023952,SONAid,,,,,,,
,,,,4.94109375,1.6168,space,0.5331,0,5,5,8,1,9,image/9.jpg,0,R_3FJcVxSy2lNvUyM,2,2024-04-10_14h05.23.485,face trait task,2021.2.3,MacIntel,59.88023952,SONAid,,,,,,,
,,,,5.981302083,1.3502,space,0.3687,0,6,6,30,1,31,image/31.jpg,0,R_3FJcVxSy2lNvUyM,2,2024-04-10_14h05.23.485,face trait task,2021.2.3,MacIntel,59.88023952,SONAid,,,,,,,
,,,,3.986067708,1.4839,space,0.5288,0,7,7,51,1,58,image/58.jpg,1,R_3FJcVxSy2lNvUyM,2,2024-04-10_14h05.23.485,face trait task,2021.2.3,MacIntel,59.88023952,SONAid,,,,,,,
,,,,3.0403125,1.2967,space,0.4401,0,8,8,45,1,46,image/46.jpg,0,R_3FJcVxSy2lNvUyM,2,2024-04-10_14h05.23.485,face trait task,2021.2.3,MacIntel,59.88023952,SONAid,,,,,,,
,,,,3.999791667,1.3792,space,0.763,0,9,9,6,1,7,image/7.jpg,0,R_3FJcVxSy2lNvUyM,2,2024-04-10_14h05.23.485,face trait task,2021.2.3,MacIntel,59.88023952,SONAid,,,,,,,
,,,,4.023984375,1.3459,space,0.4149,0,10,10,23,1,24,image/24.jpg,0,R_3FJcVxSy2lNvUyM,2,2024-04-10_14h05.23.485,face trait task,2021.2.3,MacIntel,59.88023952,SONAid,,,,,,,
,,,,4.997473958,3.5917,space,3.17,0,11,11,52,1,53,image/53.jpg,1,R_3FJcVxSy2lNvUyM,2,2024-04-10_14h05.23.485,face trait task,2021.2.3,MacIntel,59.88023952,SONAid,,,,,,,
,,,,2.0725,1.5934,space,0.4957,0,12,12,34,1,35,image/35.jpg,0,R_3FJcVxSy2lNvUyM,2,2024-04-10_14h05.23.485,face trait task,2021.2.3,MacIntel,59.88023952,SONAid,,,,,,,
,,,,3.96359375,1.7808,space,0.3371,0,13,13,49,1,50,image/50.jpg,0,R_3FJcVxSy2lNvUyM,2,2024-04-10_14h05.23.485,face trait task,2021.2.3,MacIntel,59.88023952,SONAid,,,,,,,
,,,,5.011901042,1.9475,space,0.2983,0,14,14,21,1,22,image/22.jpg,0,R_3FJcVxSy2lNvUyM,2,2024-04-10_14h05.23.485,face trait task,2021.2.3,MacIntel,59.88023952,SONAid,,,,,,,
,,,,6.008828125,1.3649,space,0.4185,0,15,15,40,1,41,image/41.jpg,0,R_3FJcVxSy2lNvUyM,2,2024-04-10_14h05.23.485,face trait task,2021.2.3,MacIntel,59.88023952,SONAid,,,,,,,
,,,,3.952265625,1.3665,space,0.4693,0,16,16,20,1,21,image/21.jpg,0,R_3FJcVxSy2lNvUyM,2,2024-04-10_14h05.23.485,face trait task,2021.2.3,MacIntel,59.88023952,SONAid,,,,,,,
,,,,2.998515625,1.9689,space,0.4192,0,17,17,2,1,3,image/3.jpg,0,R_3FJcVxSy2lNvUyM,2,2024-04-10_14h05.23.485,face trait task,2021.2.3,MacIntel,59.88023952,SONAid,,,,,,,
,,,,3.010338542,1.8474,space,0.3811,0,18,18,43,1,44,image/44.jpg,0,R_3FJcVxSy2lNvUyM,2,2024-04-10_14h05.23.485,face trait task,2021.2.3,MacIntel,59.88023952,SONAid,,,,,,,
,,,,4.037265625,1.3811,space,0.3513,0,19,19,22,1,23,image/23.jpg,0,R_3FJcVxSy2lNvUyM,2,2024-04-10_14h05.23.485,face trait task,2021.2.3,MacIntel,59.88023952,SONAid,,,,,,,
,,,,4.010234375,1.913,space,0.3811,0,20,20,24,1,25,image/25.jpg,0,R_3FJcVxSy2lNvUyM,2,2024-04-10_14h05.23.485,face trait task,2021.2.3,MacIntel,59.88023952,SONAid,,,,,,,
,,,,5.096484375,1.2143,space,0.5024,0,21,21,42,1,43,image/43.jpg,0,R_3FJcVxSy2lNvUyM,2,2024-04-10_14h05.23.485,face trait task,2021.2.3,MacIntel,59.88023952,SONAid,,,,,,,
,,,,3.931197917,1.2633,space,0.4085,0,22,22,25,1,26,image/26.jpg,0,R_3FJcVxSy2lNvUyM,2,2024-04-10_14h05.23.485,face trait task,2021.2.3,MacIntel,59.88023952,SONAid,,,,,,,
,,,,4.444322917,1.9795,space,0.3416,0,23,23,44,1,45,image/45.jpg,0,R_3FJcVxSy2lNvUyM,2,2024-04-10_14h05.23.485,face trait task,2021.2.3,MacIntel,59.88023952,SONAid,,,,,,,
,,,,5.114947917,1.3142,space,0.331,0,24,24,28,1,29,image/29.jpg,0,R_3FJcVxSy2lNvUyM,2,2024-04-10_14h05.23.485,face trait task,2021.2.3,MacIntel,59.88023952,SONAid,,,,,,,
,,,,4.734583333,1.2969,space,0.4529,0,25,25,18,1,19,image/19.jpg,0,R_3FJcVxSy2lNvUyM,2,2024-04-10_14h05.23.485,face trait task,2021.2.3,MacIntel,59.88023952,SONAid,,,,,,,
,,,,2.995494792,1.2132,space,0.2901,0,26,26,7,1,8,image/8.jpg,0,R_3FJcVxSy2lNvUyM,2,2024-04-10_14h05.23.485,face trait task,2021.2.3,MacIntel,59.88023952,SONAid,,,,,,,
,,,,3.053515625,1.1958,space,0.3192,0,27,27,10,1,11,image/11.jpg,0,R_3FJcVxSy2lNvUyM,2,2024-04-10_14h05.23.485,face trait task,2021.2.3,MacIntel,59.88023952,SONAid,,,,,,,
,,,,4.956953125,1.2482,space,0.3023,0,28,28,41,1,42,image/42.jpg,0,R_3FJcVxSy2lNvUyM,2,2024-04-10_14h05.23.485,face trait task,2021.2.3,MacIntel,59.88023952,SONAid,,,,,,,
,,,,5.224192708,0.9177,space,0.3029,0,29,29,5,1,6,image/6.jpg,0,R_3FJcVxSy2lNvUyM,2,2024-04-10_14h05.23.485,face trait task,2021.2.3,MacIntel,59.88023952,SONAid,,,,,,,
,,,,5.696067708,1.9313,space,0.2012,0,30,30,39,1,40,image/40.jpg,0,R_3FJcVxSy2lNvUyM,2,2024-04-10_14h05.23.485,face trait task,2021.2.3,MacIntel,59.88023952,SONAid,,,,,,,
,,,,4.331015625,1.2632,space,0.2813,0,31,31,37,1,38,image/38.jpg,0,R_3FJcVxSy2lNvUyM,2,2024-04-10_14h05.23.485,face trait task,2021.2.3,MacIntel,59.88023952,SONAid,,,,,,,
,,,,5.087578125,1.2306,space,0.3331,0,32,32,13,1,14,image/14.jpg,0,R_3FJcVxSy2lNvUyM,2,2024-04-10_14h05.23.485,face trait task,2021.2.3,MacIntel,59.88023952,SONAid,,,,,,,
,,,,3.012578125,2.2782,space,0.2136,0,33,33,33,1,34,image/34.jpg,0,R_3FJcVxSy2lNvUyM,2,2024-04-10_14h05.23.485,face trait task,2021.2.3,MacIntel,59.88023952,SONAid,,,,,,,
,,,,2.169140625,1.9336,space,0.23,0,34,34,36,1,37,image/37.jpg,0,R_3FJcVxSy2lNvUyM,2,2024-04-10_14h05.23.485,face trait task,2021.2.3,MacIntel,59.88023952,SONAid,,,,,,,
,,,,3.692864583,1.2455,space,0.299,0,35,35,17,1,18,image/18.jpg,0,R_3FJcVxSy2lNvUyM,2,2024-04-10_14h05.23.485,face trait task,2021.2.3,MacIntel,59.88023952,SONAid,,,,,,,
,,,,4.538307292,1.0324,space,0.2779,0,36,36,14,1,15,image/15.jpg,0,R_3FJcVxSy2lNvUyM,2,2024-04-10_14h05.23.485,face trait task,2021.2.3,MacIntel,59.88023952,SONAid,,,,,,,
,,,,5.1271875,1.4998,space,0.2872,0,37,37,46,1,47,image/47.jpg,0,R_3FJcVxSy2lNvUyM,2,2024-04-10_14h05.23.485,face trait task,2021.2.3,MacIntel,59.88023952,SONAid,,,,,,,
,,,,3.699765625,1.2813,space,0.2693,0,38,38,3,1,4,image/4.jpg,0,R_3FJcVxSy2lNvUyM,2,2024-04-10_14h05.23.485,face trait task,2021.2.3,MacIntel,59.88023952,SONAid,,,,,,,
,,,,2.911875,1.2958,space,0.3293,0,39,39,35,1,36,image/36.jpg,0,R_3FJcVxSy2lNvUyM,2,2024-04-10_14h05.23.485,face trait task,2021.2.3,MacIntel,59.88023952,SONAid,,,,,,,
,,,,4.425729167,1.548,space,0.252,0,40,40,0,1,1,image/1.jpg,0,R_3FJcVxSy2lNvUyM,2,2024-04-10_14h05.23.485,face trait task,2021.2.3,MacIntel,59.88023952,SONAid,,,,,,,
,,,,2.643932292,1.3305,space,0.3722,0,41,41,11,1,12,image/12.jpg,0,R_3FJcVxSy2lNvUyM,2,2024-04-10_14h05.23.485,face trait task,2021.2.3,MacIntel,59.88023952,SONAid,,,,,,,
,,,,4.077447917,1.1806,space,0.3188,0,42,42,1,1,2,image/2.jpg,0,R_3FJcVxSy2lNvUyM,2,2024-04-10_14h05.23.485,face trait task,2021.2.3,MacIntel,59.88023952,SONAid,,,,,,,
,,,,4.795859375,1.0186,space,0.305,0,43,43,27,1,28,image/28.jpg,0,R_3FJcVxSy2lNvUyM,2,2024-04-10_14h05.23.485,face trait task,2021.2.3,MacIntel,59.88023952,SONAid,,,,,,,
,,,,5.023385417,3.381,space,2.582,0,44,44,50,1,51,image/51.jpg,1,R_3FJcVxSy2lNvUyM,2,2024-04-10_14h05.23.485,face trait task,2021.2.3,MacIntel,59.88023952,SONAid,,,,,,,
,,,,4.041614583,1.8313,space,0.3178,0,45,45,26,1,27,image/27.jpg,0,R_3FJcVxSy2lNvUyM,2,2024-04-10_14h05.23.485,face trait task,2021.2.3,MacIntel,59.88023952,SONAid,,,,,,,
,,,,4.820625,1.1123,space,0.3349,0,46,46,15,1,16,image/16.jpg,0,R_3FJcVxSy2lNvUyM,2,2024-04-10_14h05.23.485,face trait task,2021.2.3,MacIntel,59.88023952,SONAid,,,,,,,
,,,,5.244036458,0.9816,space,0.3377,0,47,47,16,1,17,image/17.jpg,0,R_3FJcVxSy2lNvUyM,2,2024-04-10_14h05.23.485,face trait task,2021.2.3,MacIntel,59.88023952,SONAid,,,,,,,
,,,,3.978072917,1.2293,space,0.2334,0,48,48,31,1,32,image/32.jpg,0,R_3FJcVxSy2lNvUyM,2,2024-04-10_14h05.23.485,face trait task,2021.2.3,MacIntel,59.88023952,SONAid,,,,,,,
,,,,5.027890625,1.9215,space,0.2972,0,49,49,38,1,39,image/39.jpg,0,R_3FJcVxSy2lNvUyM,2,2024-04-10_14h05.23.485,face trait task,2021.2.3,MacIntel,59.88023952,SONAid,,,,,,,
,,,,3.901692708,2.1518,space,0.484,0,50,50,19,1,20,image/20.jpg,0,R_3FJcVxSy2lNvUyM,2,2024-04-10_14h05.23.485,face trait task,2021.2.3,MacIntel,59.88023952,SONAid,,,,,,,
,,,,5.172630208,1.4459,space,0.3005,0,51,51,29,1,30,image/30.jpg,0,R_3FJcVxSy2lNvUyM,2,2024-04-10_14h05.23.485,face trait task,2021.2.3,MacIntel,59.88023952,SONAid,,,,,,,
,,,,5.378307292,1.1637,space,0.347,0,52,52,12,1,13,image/13.jpg,0,R_3FJcVxSy2lNvUyM,2,2024-04-10_14h05.23.485,face trait task,2021.2.3,MacIntel,59.88023952,SONAid,,,,,,,
,,,,,,,,,,,,,,,,R_3FJcVxSy2lNvUyM,2,2024-04-10_14h05.23.485,face trait task,2021.2.3,MacIntel,59.88023952,SONAid,0,0,0,0,1,0,critical.png
,,,,6.022291667,1.7694,space,0.4382,0,0,0,33,1,34,image/34.jpg,0,R_3FJcVxSy2lNvUyM,2,2024-04-10_14h05.23.485,face trait task,2021.2.3,MacIntel,59.88023952,SONAid,,,,,,,
,,,,5.075677083,1.5353,space,0.4379,0,1,1,10,1,11,image/11.jpg,0,R_3FJcVxSy2lNvUyM,2,2024-04-10_14h05.23.485,face trait task,2021.2.3,MacIntel,59.88023952,SONAid,,,,,,,
,,,,3.982708333,1.6477,space,0.5681,0,2,2,32,1,33,image/33.jpg,0,R_3FJcVxSy2lNvUyM,2,2024-04-10_14h05.23.485,face trait task,2021.2.3,MacIntel,59.88023952,SONAid,,,,,,,
,,,,5.899244792,1.1997,space,0.3348,0,3,3,3,1,4,image/4.jpg,0,R_3FJcVxSy2lNvUyM,2,2024-04-10_14h05.23.485,face trait task,2021.2.3,MacIntel,59.88023952,SONAid,,,,,,,
,,,,6.053802083,2.114,space,0.3855,0,4,4,41,1,42,image/42.jpg,0,R_3FJcVxSy2lNvUyM,2,2024-04-10_14h05.23.485,face trait task,2021.2.3,MacIntel,59.88023952,SONAid,,,,,,,
,,,,6.125833333,1.3804,space,0.4857,0,5,5,25,1,26,image/26.jpg,0,R_3FJcVxSy2lNvUyM,2,2024-04-10_14h05.23.485,face trait task,2021.2.3,MacIntel,59.88023952,SONAid,,,,,,,
,,,,6.668854167,1.4015,space,0.313,0,6,6,44,1,45,image/45.jpg,0,R_3FJcVxSy2lNvUyM,2,2024-04-10_14h05.23.485,face trait task,2021.2.3,MacIntel,59.88023952,SONAid,,,,,,,
,,,,6.1078125,1.1981,space,0.2522,0,7,7,18,1,19,image/19.jpg,0,R_3FJcVxSy2lNvUyM,2,2024-04-10_14h05.23.485,face trait task,2021.2.3,MacIntel,59.88023952,SONAid,,,,,,,
,,,,6.463541667,1.5969,space,0.2112,0,8,8,47,1,48,image/48.jpg,0,R_3FJcVxSy2lNvUyM,2,2024-04-10_14h05.23.485,face trait task,2021.2.3,MacIntel,59.88023952,SONAid,,,,,,,
,,,,5.447890625,1.2515,space,0.4239,0,9,9,16,1,17,image/17.jpg,0,R_3FJcVxSy2lNvUyM,2,2024-04-10_14h05.23.485,face trait task,2021.2.3,MacIntel,59.88023952,SONAid,,,,,,,
,,,,5.065572917,1.13,space,0.248,0,10,10,43,1,44,image/44.jpg,0,R_3FJcVxSy2lNvUyM,2,2024-04-10_14h05.23.485,face trait task,2021.2.3,MacIntel,59.88023952,SONAid,,,,,,,
,,,,4.989088542,2.3468,space,1.6981,0,11,11,50,1,51,image/51.jpg,1,R_3FJcVxSy2lNvUyM,2,2024-04-10_14h05.23.485,face trait task,2021.2.3,MacIntel,59.88023952,SONAid,,,,,,,
,,,,5.816354167,1.3487,space,0.2317,0,12,12,45,1,46,image/46.jpg,0,R_3FJcVxSy2lNvUyM,2,2024-04-10_14h05.23.485,face trait task,2021.2.3,MacIntel,59.88023952,SONAid,,,,,,,
,,,,5.95875,0.8511,space,0.3033,0,13,13,27,1,28,image/28.jpg,0,R_3FJcVxSy2lNvUyM,2,2024-04-10_14h05.23.485,face trait task,2021.2.3,MacIntel,59.88023952,SONAid,,,,,,,
,,,,5.417369792,2.2122,space,1.4316,0,14,14,8,1,9,image/9.jpg,0,R_3FJcVxSy2lNvUyM,2,2024-04-10_14h05.23.485,face trait task,2021.2.3,MacIntel,59.88023952,SONAid,,,,,,,
,,,,5.144348958,1.2138,space,0.3804,0,15,15,46,1,47,image/47.jpg,0,R_3FJcVxSy2lNvUyM,2,2024-04-10_14h05.23.485,face trait task,2021.2.3,MacIntel,59.88023952,SONAid,,,,,,,
,,,,5.984375,1.6476,space,0.4008,0,16,16,26,1,27,image/27.jpg,0,R_3FJcVxSy2lNvUyM,2,2024-04-10_14h05.23.485,face trait task,2021.2.3,MacIntel,59.88023952,SONAid,,,,,,,
,,,,6.129635417,1.0677,space,0.4459,0,17,17,37,1,38,image/38.jpg,0,R_3FJcVxSy2lNvUyM,2,2024-04-10_14h05.23.485,face trait task,2021.2.3,MacIntel,59.88023952,SONAid,,,,,,,
,,,,6.157890625,1.6288,space,0.3038,0,18,18,38,1,39,image/39.jpg,0,R_3FJcVxSy2lNvUyM,2,2024-04-10_14h05.23.485,face trait task,2021.2.3,MacIntel,59.88023952,SONAid,,,,,,,
,,,,6.128151042,1.0174,space,0.2809,0,19,19,5,1,6,image/6.jpg,0,R_3FJcVxSy2lNvUyM,2,2024-04-10_14h05.23.485,face trait task,2021.2.3,MacIntel,59.88023952,SONAid,,,,,,,
,,,,6.131484375,1.1991,space,0.3848,0,20,20,42,1,43,image/43.jpg,0,R_3FJcVxSy2lNvUyM,2,2024-04-10_14h05.23.485,face trait task,2021.2.3,MacIntel,59.88023952,SONAid,,,,,,,
,,,,6.394479167,0.93,space,0.4466,0,21,21,1,1,2,image/2.jpg,0,R_3FJcVxSy2lNvUyM,2,2024-04-10_14h05.23.485,face trait task,2021.2.3,MacIntel,59.88023952,SONAid,,,,,,,
,,,,6.3978125,0.9179,space,0.4354,0,22,22,31,1,32,image/32.jpg,0,R_3FJcVxSy2lNvUyM,2,2024-04-10_14h05.23.485,face trait task,2021.2.3,MacIntel,59.88023952,SONAid,,,,,,,
,,,,6.3978125,0.8977,space,0.3308,0,23,23,11,1,12,image/12.jpg,0,R_3FJcVxSy2lNvUyM,2,2024-04-10_14h05.23.485,face trait task,2021.2.3,MacIntel,59.88023952,SONAid,,,,,,,
,,,,6.742578125,0.8834,space,0.3815,0,24,24,48,1,49,image/49.jpg,0,R_3FJcVxSy2lNvUyM,2,2024-04-10_14h05.23.485,face trait task,2021.2.3,MacIntel,59.88023952,SONAid,,,,,,,
,,,,6.545989583,1.2804,space,0.6239,0,25,25,20,1,21,image/21.jpg,0,R_3FJcVxSy2lNvUyM,2,2024-04-10_14h05.23.485,face trait task,2021.2.3,MacIntel,59.88023952,SONAid,,,,,,,
,,,,6.545989583,1.0339,space,0.4817,0,26,26,15,1,16,image/16.jpg,0,R_3FJcVxSy2lNvUyM,2,2024-04-10_14h05.23.485,face trait task,2021.2.3,MacIntel,59.88023952,SONAid,,,,,,,
,,,,6.545989583,0.8466,space,0.4316,0,27,27,49,1,50,image/50.jpg,0,R_3FJcVxSy2lNvUyM,2,2024-04-10_14h05.23.485,face trait task,2021.2.3,MacIntel,59.88023952,SONAid,,,,,,,
,,,,6.545989583,1.065,space,0.3354,0,28,28,36,1,37,image/37.jpg,0,R_3FJcVxSy2lNvUyM,2,2024-04-10_14h05.23.485,face trait task,2021.2.3,MacIntel,59.88023952,SONAid,,,,,,,
,,,,6.545989583,1.1312,space,0.2316,0,29,29,0,1,1,image/1.jpg,0,R_3FJcVxSy2lNvUyM,2,2024-04-10_14h05.23.485,face trait task,2021.2.3,MacIntel,59.88023952,SONAid,,,,,,,
,,,,5.019505208,2.5948,space,2.0376,0,30,30,52,1,53,image/53.jpg,1,R_3FJcVxSy2lNvUyM,2,2024-04-10_14h05.23.485,face trait task,2021.2.3,MacIntel,59.88023952,SONAid,,,,,,,
,,,,6.394244792,1.4773,space,0.332,0,31,31,4,1,5,image/5.jpg,0,R_3FJcVxSy2lNvUyM,2,2024-04-10_14h05.23.485,face trait task,2021.2.3,MacIntel,59.88023952,SONAid,,,,,,,
,,,,5.236614583,1.3009,space,0.498,0,32,32,30,1,31,image/31.jpg,0,R_3FJcVxSy2lNvUyM,2,2024-04-10_14h05.23.485,face trait task,2021.2.3,MacIntel,59.88023952,SONAid,,,,,,,
,,,,6.441796875,1.2953,space,0.3697,0,33,33,14,1,15,image/15.jpg,0,R_3FJcVxSy2lNvUyM,2,2024-04-10_14h05.23.485,face trait task,2021.2.3,MacIntel,59.88023952,SONAid,,,,,,,
,,,,6.438463542,0.8628,space,0.3976,0,34,34,6,1,7,image/7.jpg,0,R_3FJcVxSy2lNvUyM,2,2024-04-10_14h05.23.485,face trait task,2021.2.3,MacIntel,59.88023952,SONAid,,,,,,,
,,,,6.504401042,1.4291,space,0.3351,0,35,35,23,1,24,image/24.jpg,0,R_3FJcVxSy2lNvUyM,2,2024-04-10_14h05.23.485,face trait task,2021.2.3,MacIntel,59.88023952,SONAid,,,,,,,
,,,,6.68828125,1.1009,space,0.3185,0,36,36,7,1,8,image/8.jpg,0,R_3FJcVxSy2lNvUyM,2,2024-04-10_14h05.23.485,face trait task,2021.2.3,MacIntel,59.88023952,SONAid,,,,,,,
,,,,6.053880208,2.7969,space,0.3856,0,37,37,2,1,3,image/3.jpg,0,R_3FJcVxSy2lNvUyM,2,2024-04-10_14h05.23.485,face trait task,2021.2.3,MacIntel,59.88023952,SONAid,,,,,,,
,,,,5.440651042,1.4637,space,0.4155,0,38,38,40,1,41,image/41.jpg,0,R_3FJcVxSy2lNvUyM,2,2024-04-10_14h05.23.485,face trait task,2021.2.3,MacIntel,59.88023952,SONAid,,,,,,,
,,,,6.5684375,1.2793,space,0.3781,0,39,39,28,1,29,image/29.jpg,0,R_3FJcVxSy2lNvUyM,2,2024-04-10_14h05.23.485,face trait task,2021.2.3,MacIntel,59.88023952,SONAid,,,,,,,
,,,,6.52140625,1.0443,space,0.5083,0,40,40,51,1,58,image/58.jpg,1,R_3FJcVxSy2lNvUyM,2,2024-04-10_14h05.23.485,face trait task,2021.2.3,MacIntel,59.88023952,SONAid,,,,,,,
,,,,6.43671875,1.2961,space,0.3512,0,41,41,29,1,30,image/30.jpg,0,R_3FJcVxSy2lNvUyM,2,2024-04-10_14h05.23.485,face trait task,2021.2.3,MacIntel,59.88023952,SONAid,,,,,,,
,,,,6.421979167,1.1477,space,0.2847,0,42,42,9,1,10,image/10.jpg,0,R_3FJcVxSy2lNvUyM,2,2024-04-10_14h05.23.485,face trait task,2021.2.3,MacIntel,59.88023952,SONAid,,,,,,,
,,,,6.574140625,1.1364,space,0.3807,0,43,43,22,1,23,image/23.jpg,0,R_3FJcVxSy2lNvUyM,2,2024-04-10_14h05.23.485,face trait task,2021.2.3,MacIntel,59.88023952,SONAid,,,,,,,
,,,,5.678177083,2.1958,space,0.4182,0,44,44,34,1,35,image/35.jpg,0,R_3FJcVxSy2lNvUyM,2,2024-04-10_14h05.23.485,face trait task,2021.2.3,MacIntel,59.88023952,SONAid,,,,,,,
,,,,6.4859375,1.6633,space,0.3128,0,45,45,39,1,40,image/40.jpg,0,R_3FJcVxSy2lNvUyM,2,2024-04-10_14h05.23.485,face trait task,2021.2.3,MacIntel,59.88023952,SONAid,,,,,,,
,,,,6.4565625,1.1523,space,0.2815,0,46,46,24,1,25,image/25.jpg,0,R_3FJcVxSy2lNvUyM,2,2024-04-10_14h05.23.485,face trait task,2021.2.3,MacIntel,59.88023952,SONAid,,,,,,,
,,,,6.55953125,0.9487,space,0.3572,0,47,47,17,1,18,image/18.jpg,0,R_3FJcVxSy2lNvUyM,2,2024-04-10_14h05.23.485,face trait task,2021.2.3,MacIntel,59.88023952,SONAid,,,,,,,
,,,,6.486927083,1.1507,space,0.3813,0,48,48,13,1,14,image/14.jpg,0,R_3FJcVxSy2lNvUyM,2,2024-04-10_14h05.23.485,face trait task,2021.2.3,MacIntel,59.88023952,SONAid,,,,,,,
,,,,6.411953125,1.0484,space,0.2707,0,49,49,35,1,36,image/36.jpg,0,R_3FJcVxSy2lNvUyM,2,2024-04-10_14h05.23.485,face trait task,2021.2.3,MacIntel,59.88023952,SONAid,,,,,,,
,,,,6.493671875,0.6806,space,0.4483,0,50,50,12,1,13,image/13.jpg,0,R_3FJcVxSy2lNvUyM,2,2024-04-10_14h05.23.485,face trait task,2021.2.3,MacIntel,59.88023952,SONAid,,,,,,,
,,,,6.493671875,1.4174,space,0.3084,0,51,51,21,1,22,image/22.jpg,0,R_3FJcVxSy2lNvUyM,2,2024-04-10_14h05.23.485,face trait task,2021.2.3,MacIntel,59.88023952,SONAid,,,,,,,
,,,,6.477057292,0.9631,space,0.448,0,52,52,19,1,20,image/20.jpg,0,R_3FJcVxSy2lNvUyM,2,2024-04-10_14h05.23.485,face trait task,2021.2.3,MacIntel,59.88023952,SONAid,,,,,,,
,,,,,,,,,,,,,,,,R_3FJcVxSy2lNvUyM,2,2024-04-10_14h05.23.485,face trait task,2021.2.3,MacIntel,59.88023952,SONAid,0,1,1,1,1,1,competent.png
,,,,4.020572917,1.3653,space,0.2968,0,0,0,36,1,37,image/37.jpg,0,R_3FJcVxSy2lNvUyM,2,2024-04-10_14h05.23.485,face trait task,2021.2.3,MacIntel,59.88023952,SONAid,,,,,,,
,,,,3.557005208,1.299,space,0.2742,0,1,1,16,1,17,image/17.jpg,0,R_3FJcVxSy2lNvUyM,2,2024-04-10_14h05.23.485,face trait task,2021.2.3,MacIntel,59.88023952,SONAid,,,,,,,
,,,,6.153177083,2.0342,space,1.2052,0,2,2,12,1,13,image/13.jpg,0,R_3FJcVxSy2lNvUyM,2,2024-04-10_14h05.23.485,face trait task,2021.2.3,MacIntel,59.88023952,SONAid,,,,,,,
,,,,5.072838542,1.2678,space,0.2885,0,3,3,20,1,21,image/21.jpg,0,R_3FJcVxSy2lNvUyM,2,2024-04-10_14h05.23.485,face trait task,2021.2.3,MacIntel,59.88023952,SONAid,,,,,,,
,,,,5.614322917,2.0348,space,0.4962,0,4,4,1,1,2,image/2.jpg,0,R_3FJcVxSy2lNvUyM,2,2024-04-10_14h05.23.485,face trait task,2021.2.3,MacIntel,59.88023952,SONAid,,,,,,,
,,,,4.081432292,2.331,space,0.4024,0,5,5,32,1,33,image/33.jpg,0,R_3FJcVxSy2lNvUyM,2,2024-04-10_14h05.23.485,face trait task,2021.2.3,MacIntel,59.88023952,SONAid,,,,,,,
,,,,5.102630208,1.2462,space,0.2568,0,6,6,6,1,7,image/7.jpg,0,R_3FJcVxSy2lNvUyM,2,2024-04-10_14h05.23.485,face trait task,2021.2.3,MacIntel,59.88023952,SONAid,,,,,,,
,,,,5.896302083,1.0177,space,0.3555,0,7,7,48,1,49,image/49.jpg,0,R_3FJcVxSy2lNvUyM,2,2024-04-10_14h05.23.485,face trait task,2021.2.3,MacIntel,59.88023952,SONAid,,,,,,,
,,,,2.071666667,1.2176,space,0.285,0,8,8,45,1,46,image/46.jpg,0,R_3FJcVxSy2lNvUyM,2,2024-04-10_14h05.23.485,face trait task,2021.2.3,MacIntel,59.88023952,SONAid,,,,,,,
,,,,3.036588542,2.0143,space,0.29,0,9,9,37,1,38,image/38.jpg,0,R_3FJcVxSy2lNvUyM,2,2024-04-10_14h05.23.485,face trait task,2021.2.3,MacIntel,59.88023952,SONAid,,,,,,,
,,,,5.358854167,1.2303,space,0.5253,0,10,10,19,1,20,image/20.jpg,0,R_3FJcVxSy2lNvUyM,2,2024-04-10_14h05.23.485,face trait task,2021.2.3,MacIntel,59.88023952,SONAid,,,,,,,
,,,,3.148307292,1.1652,space,0.4724,0,11,11,34,1,35,image/35.jpg,0,R_3FJcVxSy2lNvUyM,2,2024-04-10_14h05.23.485,face trait task,2021.2.3,MacIntel,59.88023952,SONAid,,,,,,,
,,,,2.995338542,2.9711,space,0.3568,0,12,12,47,1,48,image/48.jpg,0,R_3FJcVxSy2lNvUyM,2,2024-04-10_14h05.23.485,face trait task,2021.2.3,MacIntel,59.88023952,SONAid,,,,,,,
,,,,4.083515625,1.3141,space,0.4206,0,13,13,11,1,12,image/12.jpg,0,R_3FJcVxSy2lNvUyM,2,2024-04-10_14h05.23.485,face trait task,2021.2.3,MacIntel,59.88023952,SONAid,,,,,,,
,,,,4.769557292,1.963,space,0.3462,0,14,14,29,1,30,image/30.jpg,0,R_3FJcVxSy2lNvUyM,2,2024-04-10_14h05.23.485,face trait task,2021.2.3,MacIntel,59.88023952,SONAid,,,,,,,
,,,,2.175286458,2.2325,space,0.4711,0,15,15,30,1,31,image/31.jpg,0,R_3FJcVxSy2lNvUyM,2,2024-04-10_14h05.23.485,face trait task,2021.2.3,MacIntel,59.88023952,SONAid,,,,,,,
,,,,4.008515625,1.1807,space,0.2962,0,16,16,39,1,40,image/40.jpg,0,R_3FJcVxSy2lNvUyM,2,2024-04-10_14h05.23.485,face trait task,2021.2.3,MacIntel,59.88023952,SONAid,,,,,,,
,,,,2.214401042,1.3686,space,0.3449,0,17,17,40,1,41,image/41.jpg,0,R_3FJcVxSy2lNvUyM,2,2024-04-10_14h05.23.485,face trait task,2021.2.3,MacIntel,59.88023952,SONAid,,,,,,,
,,,,4.552734375,1.4299,space,0.2851,0,18,18,17,1,18,image/18.jpg,0,R_3FJcVxSy2lNvUyM,2,2024-04-10_14h05.23.485,face trait task,2021.2.3,MacIntel,59.88023952,SONAid,,,,,,,
,,,,5.71140625,1.1859,space,0.3027,0,19,19,3,1,4,image/4.jpg,0,R_3FJcVxSy2lNvUyM,2,2024-04-10_14h05.23.485,face trait task,2021.2.3,MacIntel,59.88023952,SONAid,,,,,,,
,,,,5.065442708,1.1991,space,0.4334,0,20,20,2,1,3,image/3.jpg,0,R_3FJcVxSy2lNvUyM,2,2024-04-10_14h05.23.485,face trait task,2021.2.3,MacIntel,59.88023952,SONAid,,,,,,,
,,,,3.539192708,1.1024,space,0.452,0,21,21,44,1,45,image/45.jpg,0,R_3FJcVxSy2lNvUyM,2,2024-04-10_14h05.23.485,face trait task,2021.2.3,MacIntel,59.88023952,SONAid,,,,,,,
,,,,4.298932292,1.2816,space,0.3869,0,22,22,13,1,14,image/14.jpg,0,R_3FJcVxSy2lNvUyM,2,2024-04-10_14h05.23.485,face trait task,2021.2.3,MacIntel,59.88023952,SONAid,,,,,,,
,,,,4.5340625,1.1822,space,0.3133,0,23,23,0,1,1,image/1.jpg,0,R_3FJcVxSy2lNvUyM,2,2024-04-10_14h05.23.485,face trait task,2021.2.3,MacIntel,59.88023952,SONAid,,,,,,,
,,,,3.641015625,1.802,space,0.9126,0,24,24,10,1,11,image/11.jpg,0,R_3FJcVxSy2lNvUyM,2,2024-04-10_14h05.23.485,face trait task,2021.2.3,MacIntel,59.88023952,SONAid,,,,,,,
,,,,4.037760417,1.2803,space,0.3366,0,25,25,15,1,16,image/16.jpg,0,R_3FJcVxSy2lNvUyM,2,2024-04-10_14h05.23.485,face trait task,2021.2.3,MacIntel,59.88023952,SONAid,,,,,,,
,,,,4.530078125,1.4285,space,0.3466,0,26,26,41,1,42,image/42.jpg,0,R_3FJcVxSy2lNvUyM,2,2024-04-10_14h05.23.485,face trait task,2021.2.3,MacIntel,59.88023952,SONAid,,,,,,,
,,,,2.975755208,1.2478,space,0.364,0,27,27,42,1,43,image/43.jpg,0,R_3FJcVxSy2lNvUyM,2,2024-04-10_14h05.23.485,face trait task,2021.2.3,MacIntel,59.88023952,SONAid,,,,,,,
,,,,4.054375,1.2107,space,0.2653,0,28,28,26,1,27,image/27.jpg,0,R_3FJcVxSy2lNvUyM,2,2024-04-10_14h05.23.485,face trait task,2021.2.3,MacIntel,59.88023952,SONAid,,,,,,,
,,,,3.977708333,1.7363,space,0.773,0,29,29,9,1,10,image/10.jpg,0,R_3FJcVxSy2lNvUyM,2,2024-04-10_14h05.23.485,face trait task,2021.2.3,MacIntel,59.88023952,SONAid,,,,,,,
,,,,3.026432292,1.7183,space,0.2589,0,30,30,28,1,29,image/29.jpg,0,R_3FJcVxSy2lNvUyM,2,2024-04-10_14h05.23.485,face trait task,2021.2.3,MacIntel,59.88023952,SONAid,,,,,,,
,,,,4.630520833,1.1677,space,0.3244,0,31,31,23,1,24,image/24.jpg,0,R_3FJcVxSy2lNvUyM,2,2024-04-10_14h05.23.485,face trait task,2021.2.3,MacIntel,59.88023952,SONAid,,,,,,,
,,,,3.378020833,1.2791,space,0.2504,0,32,32,27,1,28,image/28.jpg,0,R_3FJcVxSy2lNvUyM,2,2024-04-10_14h05.23.485,face trait task,2021.2.3,MacIntel,59.88023952,SONAid,,,,,,,
,,,,4.050182292,1.1849,space,0.2676,0,33,33,18,1,19,image/19.jpg,0,R_3FJcVxSy2lNvUyM,2,2024-04-10_14h05.23.485,face trait task,2021.2.3,MacIntel,59.88023952,SONAid,,,,,,,
,,,,4.654192708,1.286,space,0.2513,0,34,34,21,1,22,image/22.jpg,0,R_3FJcVxSy2lNvUyM,2,2024-04-10_14h05.23.485,face trait task,2021.2.3,MacIntel,59.88023952,SONAid,,,,,,,
,,,,5.159140625,2.698,space,0.3128,0,35,35,14,1,15,image/15.jpg,0,R_3FJcVxSy2lNvUyM,2,2024-04-10_14h05.23.485,face trait task,2021.2.3,MacIntel,59.88023952,SONAid,,,,,,,
,,,,4.812421875,1.7132,space,0.7649,0,36,36,7,1,8,image/8.jpg,0,R_3FJcVxSy2lNvUyM,2,2024-04-10_14h05.23.485,face trait task,2021.2.3,MacIntel,59.88023952,SONAid,,,,,,,
,,,,3.104505208,1.1169,space,0.2813,0,37,37,38,1,39,image/39.jpg,0,R_3FJcVxSy2lNvUyM,2,2024-04-10_14h05.23.485,face trait task,2021.2.3,MacIntel,59.88023952,SONAid,,,,,,,
,,,,4.046276042,1.1962,space,0.2734,0,38,38,24,1,25,image/25.jpg,0,R_3FJcVxSy2lNvUyM,2,2024-04-10_14h05.23.485,face trait task,2021.2.3,MacIntel,59.88023952,SONAid,,,,,,,
,,,,2.503776042,1.8304,space,0.5192,0,39,39,8,1,9,image/9.jpg,0,R_3FJcVxSy2lNvUyM,2,2024-04-10_14h05.23.485,face trait task,2021.2.3,MacIntel,59.88023952,SONAid,,,,,,,
,,,,4.971614583,1.9342,space,0.5458,0,40,40,50,1,51,image/51.jpg,1,R_3FJcVxSy2lNvUyM,2,2024-04-10_14h05.23.485,face trait task,2021.2.3,MacIntel,59.88023952,SONAid,,,,,,,
,,,,4.767734375,1.3637,space,0.3566,0,41,41,33,1,34,image/34.jpg,0,R_3FJcVxSy2lNvUyM,2,2024-04-10_14h05.23.485,face trait task,2021.2.3,MacIntel,59.88023952,SONAid,,,,,,,
,,,,5.618489583,1.8793,space,0.3068,0,42,42,49,1,50,image/50.jpg,0,R_3FJcVxSy2lNvUyM,2,2024-04-10_14h05.23.485,face trait task,2021.2.3,MacIntel,59.88023952,SONAid,,,,,,,
,,,,3.989765625,1.6475,space,0.2545,0,43,43,25,1,26,image/26.jpg,0,R_3FJcVxSy2lNvUyM,2,2024-04-10_14h05.23.485,face trait task,2021.2.3,MacIntel,59.88023952,SONAid,,,,,,,
,,,,2.915755208,1.3981,space,0.3696,0,44,44,46,1,47,image/47.jpg,0,R_3FJcVxSy2lNvUyM,2,2024-04-10_14h05.23.485,face trait task,2021.2.3,MacIntel,59.88023952,SONAid,,,,,,,
,,,,5.195598958,1.2354,space,0.4739,0,45,45,4,1,5,image/5.jpg,0,R_3FJcVxSy2lNvUyM,2,2024-04-10_14h05.23.485,face trait task,2021.2.3,MacIntel,59.88023952,SONAid,,,,,,,
,,,,4.039088542,2.3349,space,0.3468,0,46,46,31,1,32,image/32.jpg,0,R_3FJcVxSy2lNvUyM,2,2024-04-10_14h05.23.485,face trait task,2021.2.3,MacIntel,59.88023952,SONAid,,,,,,,
,,,,3.055625,1.3631,space,0.305,0,47,47,5,1,6,image/6.jpg,0,R_3FJcVxSy2lNvUyM,2,2024-04-10_14h05.23.485,face trait task,2021.2.3,MacIntel,59.88023952,SONAid,,,,,,,
,,,,5.36921875,1.1151,space,0.4205,0,48,48,35,1,36,image/36.jpg,0,R_3FJcVxSy2lNvUyM,2,2024-04-10_14h05.23.485,face trait task,2021.2.3,MacIntel,59.88023952,SONAid,,,,,,,
,,,,4.052864583,1.0627,space,0.4382,0,49,49,22,1,23,image/23.jpg,0,R_3FJcVxSy2lNvUyM,2,2024-04-10_14h05.23.485,face trait task,2021.2.3,MacIntel,59.88023952,SONAid,,,,,,,
,,,,5.052395833,1.9803,space,0.567,0,50,50,51,1,58,image/58.jpg,1,R_3FJcVxSy2lNvUyM,2,2024-04-10_14h05.23.485,face trait task,2021.2.3,MacIntel,59.88023952,SONAid,,,,,,,
,,,,4.987135417,1.6849,space,0.2912,0,51,51,52,1,53,image/53.jpg,1,R_3FJcVxSy2lNvUyM,2,2024-04-10_14h05.23.485,face trait task,2021.2.3,MacIntel,59.88023952,SONAid,,,,,,,
,,,,2.253177083,3.9779,space,2.9684,0,52,52,43,1,44,image/44.jpg,0,R_3FJcVxSy2lNvUyM,2,2024-04-10_14h05.23.485,face trait task,2021.2.3,MacIntel,59.88023952,SONAid,,,,,,,
,,,,,,,,,,,,,,,,R_3FJcVxSy2lNvUyM,2,2024-04-10_14h05.23.485,face trait task,2021.2.3,MacIntel,59.88023952,SONAid,0,2,2,2,1,2,trustworthy.png
,,,,4.036744792,1.3383,space,0.6813,0,0,0,5,1,6,image/6.jpg,0,R_3FJcVxSy2lNvUyM,2,2024-04-10_14h05.23.485,face trait task,2021.2.3,MacIntel,59.88023952,SONAid,,,,,,,
,,,,4.47953125,1.3314,space,0.3352,0,1,1,16,1,17,image/17.jpg,0,R_3FJcVxSy2lNvUyM,2,2024-04-10_14h05.23.485,face trait task,2021.2.3,MacIntel,59.88023952,SONAid,,,,,,,
,,,,5.614453125,1.2971,space,0.5026,0,2,2,49,1,50,image/50.jpg,0,R_3FJcVxSy2lNvUyM,2,2024-04-10_14h05.23.485,face trait task,2021.2.3,MacIntel,59.88023952,SONAid,,,,,,,
,,,,3.158776042,1.1803,space,0.3477,0,3,3,28,1,29,image/29.jpg,0,R_3FJcVxSy2lNvUyM,2,2024-04-10_14h05.23.485,face trait task,2021.2.3,MacIntel,59.88023952,SONAid,,,,,,,
,,,,3.03078125,1.3312,space,0.3011,0,4,4,37,1,38,image/38.jpg,0,R_3FJcVxSy2lNvUyM,2,2024-04-10_14h05.23.485,face trait task,2021.2.3,MacIntel,59.88023952,SONAid,,,,,,,
,,,,5.055026042,1.081,space,0.3042,0,5,5,4,1,5,image/5.jpg,0,R_3FJcVxSy2lNvUyM,2,2024-04-10_14h05.23.485,face trait task,2021.2.3,MacIntel,59.88023952,SONAid,,,,,,,
,,,,4.308229167,1.6143,space,0.8373,0,6,6,25,1,26,image/26.jpg,0,R_3FJcVxSy2lNvUyM,2,2024-04-10_14h05.23.485,face trait task,2021.2.3,MacIntel,59.88023952,SONAid,,,,,,,
,,,,3.973541667,1.1792,space,0.2472,0,7,7,42,1,43,image/43.jpg,0,R_3FJcVxSy2lNvUyM,2,2024-04-10_14h05.23.485,face trait task,2021.2.3,MacIntel,59.88023952,SONAid,,,,,,,
,,,,4.108489583,1.3508,space,0.4849,0,8,8,45,1,46,image/46.jpg,0,R_3FJcVxSy2lNvUyM,2,2024-04-10_14h05.23.485,face trait task,2021.2.3,MacIntel,59.88023952,SONAid,,,,,,,
,,,,5.237760417,1.4127,space,0.3871,0,9,9,29,1,30,image/30.jpg,0,R_3FJcVxSy2lNvUyM,2,2024-04-10_14h05.23.485,face trait task,2021.2.3,MacIntel,59.88023952,SONAid,,,,,,,
,,,,5.01859375,2.0833,space,0.2955,0,10,10,52,1,53,image/53.jpg,1,R_3FJcVxSy2lNvUyM,2,2024-04-10_14h05.23.485,face trait task,2021.2.3,MacIntel,59.88023952,SONAid,,,,,,,
,,,,3.0496875,1.712,space,0.386,0,11,11,38,1,39,image/39.jpg,0,R_3FJcVxSy2lNvUyM,2,2024-04-10_14h05.23.485,face trait task,2021.2.3,MacIntel,59.88023952,SONAid,,,,,,,
,,,,1.868098958,1.2797,space,0.4351,0,12,12,40,1,41,image/41.jpg,0,R_3FJcVxSy2lNvUyM,2,2024-04-10_14h05.23.485,face trait task,2021.2.3,MacIntel,59.88023952,SONAid,,,,,,,
,,,,5.941875,1.3303,space,0.4429,0,13,13,0,1,1,image/1.jpg,0,R_3FJcVxSy2lNvUyM,2,2024-04-10_14h05.23.485,face trait task,2021.2.3,MacIntel,59.88023952,SONAid,,,,,,,
,,,,4.98234375,2.031,space,0.7188,0,14,14,50,1,51,image/51.jpg,1,R_3FJcVxSy2lNvUyM,2,2024-04-10_14h05.23.485,face trait task,2021.2.3,MacIntel,59.88023952,SONAid,,,,,,,
,,,,5.962083333,2.4306,space,0.4316,0,15,15,22,1,23,image/23.jpg,0,R_3FJcVxSy2lNvUyM,2,2024-04-10_14h05.23.485,face trait task,2021.2.3,MacIntel,59.88023952,SONAid,,,,,,,
,,,,4.442890625,2.434,space,0.3463,0,16,16,48,1,49,image/49.jpg,0,R_3FJcVxSy2lNvUyM,2,2024-04-10_14h05.23.485,face trait task,2021.2.3,MacIntel,59.88023952,SONAid,,,,,,,
,,,,5.487604167,1.4515,space,0.4808,0,17,17,3,1,4,image/4.jpg,0,R_3FJcVxSy2lNvUyM,2,2024-04-10_14h05.23.485,face trait task,2021.2.3,MacIntel,59.88023952,SONAid,,,,,,,
,,,,4.967239583,1.2293,space,0.2225,0,18,18,1,1,2,image/2.jpg,0,R_3FJcVxSy2lNvUyM,2,2024-04-10_14h05.23.485,face trait task,2021.2.3,MacIntel,59.88023952,SONAid,,,,,,,
,,,,4.965885417,1.2509,space,0.3044,0,19,19,15,1,16,image/16.jpg,0,R_3FJcVxSy2lNvUyM,2,2024-04-10_14h05.23.485,face trait task,2021.2.3,MacIntel,59.88023952,SONAid,,,,,,,
,,,,5.03015625,2.0444,space,1.1186,0,20,20,51,1,58,image/58.jpg,1,R_3FJcVxSy2lNvUyM,2,2024-04-10_14h05.23.485,face trait task,2021.2.3,MacIntel,59.88023952,SONAid,,,,,,,
,,,,4.047994792,1.3143,space,0.2331,0,21,21,47,1,48,image/48.jpg,0,R_3FJcVxSy2lNvUyM,2,2024-04-10_14h05.23.485,face trait task,2021.2.3,MacIntel,59.88023952,SONAid,,,,,,,
,,,,3.078515625,1.5632,space,0.2963,0,22,22,39,1,40,image/40.jpg,0,R_3FJcVxSy2lNvUyM,2,2024-04-10_14h05.23.485,face trait task,2021.2.3,MacIntel,59.88023952,SONAid,,,,,,,
,,,,5.04125,1.2955,space,0.3652,0,23,23,19,1,20,image/20.jpg,0,R_3FJcVxSy2lNvUyM,2,2024-04-10_14h05.23.485,face trait task,2021.2.3,MacIntel,59.88023952,SONAid,,,,,,,
,,,,4.020520833,1.2313,space,0.2677,0,24,24,44,1,45,image/45.jpg,0,R_3FJcVxSy2lNvUyM,2,2024-04-10_14h05.23.485,face trait task,2021.2.3,MacIntel,59.88023952,SONAid,,,,,,,
,,,,5.949557292,1.7822,space,0.8522,0,25,25,24,1,25,image/25.jpg,0,R_3FJcVxSy2lNvUyM,2,2024-04-10_14h05.23.485,face trait task,2021.2.3,MacIntel,59.88023952,SONAid,,,,,,,
,,,,3.069348958,1.346,space,0.2511,0,26,26,30,1,31,image/31.jpg,0,R_3FJcVxSy2lNvUyM,2,2024-04-10_14h05.23.485,face trait task,2021.2.3,MacIntel,59.88023952,SONAid,,,,,,,
,,,,4.064401042,1.4475,space,0.2961,0,27,27,43,1,44,image/44.jpg,0,R_3FJcVxSy2lNvUyM,2,2024-04-10_14h05.23.485,face trait task,2021.2.3,MacIntel,59.88023952,SONAid,,,,,,,
,,,,3.971015625,2.9973,space,2.1715,0,28,28,12,1,13,image/13.jpg,0,R_3FJcVxSy2lNvUyM,2,2024-04-10_14h05.23.485,face trait task,2021.2.3,MacIntel,59.88023952,SONAid,,,,,,,
,,,,5.02234375,1.2648,space,0.2957,0,29,29,9,1,10,image/10.jpg,0,R_3FJcVxSy2lNvUyM,2,2024-04-10_14h05.23.485,face trait task,2021.2.3,MacIntel,59.88023952,SONAid,,,,,,,
,,,,3.964817708,1.6807,space,0.2366,0,30,30,14,1,15,image/15.jpg,0,R_3FJcVxSy2lNvUyM,2,2024-04-10_14h05.23.485,face trait task,2021.2.3,MacIntel,59.88023952,SONAid,,,,,,,
,,,,3.00546875,1.2961,space,0.2452,0,31,31,26,1,27,image/27.jpg,0,R_3FJcVxSy2lNvUyM,2,2024-04-10_14h05.23.485,face trait task,2021.2.3,MacIntel,59.88023952,SONAid,,,,,,,
,,,,3.986901042,1.3472,space,0.2879,0,32,32,2,1,3,image/3.jpg,0,R_3FJcVxSy2lNvUyM,2,2024-04-10_14h05.23.485,face trait task,2021.2.3,MacIntel,59.88023952,SONAid,,,,,,,
,,,,3.087890625,1.431,space,0.28,0,33,33,23,1,24,image/24.jpg,0,R_3FJcVxSy2lNvUyM,2,2024-04-10_14h05.23.485,face trait task,2021.2.3,MacIntel,59.88023952,SONAid,,,,,,,
,,,,3.129661458,1.3465,space,0.7371,0,34,34,10,1,11,image/11.jpg,0,R_3FJcVxSy2lNvUyM,2,2024-04-10_14h05.23.485,face trait task,2021.2.3,MacIntel,59.88023952,SONAid,,,,,,,
,,,,2.050442708,1.3655,space,0.3943,0,35,35,8,1,9,image/9.jpg,0,R_3FJcVxSy2lNvUyM,2,2024-04-10_14h05.23.485,face trait task,2021.2.3,MacIntel,59.88023952,SONAid,,,,,,,
,,,,5.071197917,1.5188,space,0.2644,0,36,36,20,1,21,image/21.jpg,0,R_3FJcVxSy2lNvUyM,2,2024-04-10_14h05.23.485,face trait task,2021.2.3,MacIntel,59.88023952,SONAid,,,,,,,
,,,,4.000104167,1.4148,space,0.2183,0,37,37,35,1,36,image/36.jpg,0,R_3FJcVxSy2lNvUyM,2,2024-04-10_14h05.23.485,face trait task,2021.2.3,MacIntel,59.88023952,SONAid,,,,,,,
,,,,3.025546875,1.2655,space,0.2345,0,38,38,36,1,37,image/37.jpg,0,R_3FJcVxSy2lNvUyM,2,2024-04-10_14h05.23.485,face trait task,2021.2.3,MacIntel,59.88023952,SONAid,,,,,,,
,,,,2.076640625,1.6798,space,0.3305,0,39,39,46,1,47,image/47.jpg,0,R_3FJcVxSy2lNvUyM,2,2024-04-10_14h05.23.485,face trait task,2021.2.3,MacIntel,59.88023952,SONAid,,,,,,,
,,,,4.002291667,1.2491,space,0.2362,0,40,40,27,1,28,image/28.jpg,0,R_3FJcVxSy2lNvUyM,2,2024-04-10_14h05.23.485,face trait task,2021.2.3,MacIntel,59.88023952,SONAid,,,,,,,
,,,,4.708177083,1.0682,space,0.2037,0,41,41,18,1,19,image/19.jpg,0,R_3FJcVxSy2lNvUyM,2,2024-04-10_14h05.23.485,face trait task,2021.2.3,MacIntel,59.88023952,SONAid,,,,,,,
,,,,2.4878125,1.2812,space,0.2873,0,42,42,41,1,42,image/42.jpg,0,R_3FJcVxSy2lNvUyM,2,2024-04-10_14h05.23.485,face trait task,2021.2.3,MacIntel,59.88023952,SONAid,,,,,,,
,,,,5.664244792,1.2652,space,0.3704,0,43,43,11,1,12,image/12.jpg,0,R_3FJcVxSy2lNvUyM,2,2024-04-10_14h05.23.485,face trait task,2021.2.3,MacIntel,59.88023952,SONAid,,,,,,,
,,,,4.004557292,1.1465,space,0.2717,0,44,44,13,1,14,image/14.jpg,0,R_3FJcVxSy2lNvUyM,2,2024-04-10_14h05.23.485,face trait task,2021.2.3,MacIntel,59.88023952,SONAid,,,,,,,
,,,,3.339479167,1.2133,space,0.5985,0,45,45,7,1,8,image/8.jpg,0,R_3FJcVxSy2lNvUyM,2,2024-04-10_14h05.23.485,face trait task,2021.2.3,MacIntel,59.88023952,SONAid,,,,,,,
,,,,3.455416667,1.2957,space,0.2024,0,46,46,34,1,35,image/35.jpg,0,R_3FJcVxSy2lNvUyM,2,2024-04-10_14h05.23.485,face trait task,2021.2.3,MacIntel,59.88023952,SONAid,,,,,,,
,,,,4.063255208,2.0294,space,0.3315,0,47,47,32,1,33,image/33.jpg,0,R_3FJcVxSy2lNvUyM,2,2024-04-10_14h05.23.485,face trait task,2021.2.3,MacIntel,59.88023952,SONAid,,,,,,,
,,,,3.677552083,0.9959,space,0.3537,0,48,48,6,1,7,image/7.jpg,0,R_3FJcVxSy2lNvUyM,2,2024-04-10_14h05.23.485,face trait task,2021.2.3,MacIntel,59.88023952,SONAid,,,,,,,
,,,,4.165885417,1.1631,space,0.3348,0,49,49,17,1,18,image/18.jpg,0,R_3FJcVxSy2lNvUyM,2,2024-04-10_14h05.23.485,face trait task,2021.2.3,MacIntel,59.88023952,SONAid,,,,,,,
,,,,3.967317708,2.0145,space,0.245,0,50,50,21,1,22,image/22.jpg,0,R_3FJcVxSy2lNvUyM,2,2024-04-10_14h05.23.485,face trait task,2021.2.3,MacIntel,59.88023952,SONAid,,,,,,,
,,,,4.221666667,1.2004,space,0.3371,0,51,51,33,1,34,image/34.jpg,0,R_3FJcVxSy2lNvUyM,2,2024-04-10_14h05.23.485,face trait task,2021.2.3,MacIntel,59.88023952,SONAid,,,,,,,
,,,,4.795390625,0.9666,space,0.2974,0,52,52,31,1,32,image/32.jpg,0,R_3FJcVxSy2lNvUyM,2,2024-04-10_14h05.23.485,face trait task,2021.2.3,MacIntel,59.88023952,SONAid,,,,,,,
,,,,,,,,,,,,,,,,R_3FJcVxSy2lNvUyM,2,2024-04-10_14h05.23.485,face trait task,2021.2.3,MacIntel,59.88023952,SONAid,0,3,3,3,1,3,friendly.png
