chooserow,ParID,pre_instru_resp_2.keys,pre_instru_resp_2.rt,pre_instru_resp_3.keys,pre_instru_resp_3.rt,pre_instru_resp_9.keys,pre_instru_resp_9.rt,pre_instru_resp_8.keys,pre_instru_resp_8.rt,pre_instru_resp_4.keys,pre_instru_resp_4.rt,pre_instru_resp_5.keys,pre_instru_resp_5.rt,pre_instru_resp_6.keys,pre_instru_resp_6.rt,key_resp_3.keys,key_resp_3.rt,key_resp_4.keys,key_resp_4.rt,key_resp_5.keys,key_resp_5.rt,key_resp_6.keys,key_resp_6.rt,key_resp_7.keys,key_resp_7.rt,trials_2.thisRepN,trials_2.thisTrialN,trials_2.thisN,trials_2.thisIndex,trials_2.ran,participant,session,date,expName,psychopyVersion,OS,frameRate,SONAid,pre_instru_resp.keys,pre_instru_resp.rt,clicked,judge_2.x,judge_2.y,judge_2.leftButton,judge_2.midButton,judge_2.rightButton,judge_2.clicked_name,trials.thisRepN,trials.thisTrialN,trials.thisN,trials.thisIndex,trials.ran,prac_answer,prac_dot_sti,dotlefttext,dotrighttext,prac_acc,judge.x,judge.y,judge.leftButton,judge.midButton,judge.rightButton,judge.clicked_name,clicked_guilt,slider_guilt.response,slider_guilt.rt,key_guilt.keys,share_slider.response,share_slider.rt,key_share.keys,slider_apology.response,slider_apology.rt,key_apology.keys,key_apology.rt,slider_hide.response,slider_hide.rt,slider_forgiveness.response,slider_forgiveness.rt,key_forgiveness.keys,slider_mad.response,slider_mad.rt,trialseq.thisRepN,trialseq.thisTrialN,trialseq.thisN,trialseq.thisIndex,trialseq.ran,type_trial,stipic,DV,picture,answer,number,key_guilt.rt,key_share.rt,key_forgiveness.rt
"[79,203,49,24,165,177,14,97,89,133,169,163,72,100,88,115,39,136,62,151,152,160,154,168,60,110,123,58,117,71,191,107,81,139,86,124,57,126,6,192,185,186]",R_3hlnjdAbx50vJ5l,space,1.7906,space,2.2013,space,9.6408,space,19.157,space,6.8006,space,7.5983,space,3.344,3,14.0859,2,5.1332,3,15.3533,2,9.0557,3,6.3896,0,0,0,0,1,R_3hlnjdAbx50vJ5l,1,2024-05-31_22h07.55.289,interaction task,2021.2.3,MacIntel,60.24096386,120532,,,,,,,,,,,,,,,,,,,,,,,,,,,,,,,,,,,,,,,,,,,,,,,,,,,,,,,,,
,,,,space,2.4976,space,7.9844,space,11.5701,space,8.6349,space,1.2078,space,0.5195,3,2.2455,2,10.1757,3,3.424,2,3.5705,2,3.1086,1,0,1,0,1,R_3hlnjdAbx50vJ5l,1,2024-05-31_22h07.55.289,interaction task,2021.2.3,MacIntel,60.24096386,120532,,,,,,,,,,,,,,,,,,,,,,,,,,,,,,,,,,,,,,,,,,,,,,,,,,,,,,,,,
,,,,space,0.8566,space,0.1609,space,0.1565,space,0.5785,space,3.4218,space,0.8447,3,1.3974,3,4.1647,3,2.0513,2,0.3858,2,0.1598,2,0,2,0,1,R_3hlnjdAbx50vJ5l,1,2024-05-31_22h07.55.289,interaction task,2021.2.3,MacIntel,60.24096386,120532,,,,,,,,,,,,,,,,,,,,,,,,,,,,,,,,,,,,,,,,,,,,,,,,,,,,,,,,,
,,,,space,0.97,space,0.3642,space,0.311,space,0.4843,space,1.8774,space,0.509,3,1.1809,1,1.3517,3,1.4619,2,1.994,2,2.7993,3,0,3,0,1,R_3hlnjdAbx50vJ5l,1,2024-05-31_22h07.55.289,interaction task,2021.2.3,MacIntel,60.24096386,120532,,,,,,,,,,,,,,,,,,,,,,,,,,,,,,,,,,,,,,,,,,,,,,,,,,,,,,,,,
,,,,,,,,,,,,,,,,,,,,,,,,,,,,,,,R_3hlnjdAbx50vJ5l,1,2024-05-31_22h07.55.289,interaction task,2021.2.3,MacIntel,60.24096386,120532,space,2.8968,"[""LeftButton_2""]",-0.237765842,-0.301571181,1,0,0,LeftButton_2,0,0,0,0,1,LeftButton_2,9dot2.png,Smaller,Greater,,,,,,,,,,,,,,,,,,,,,,,,,,,,,,,,,,,,,,,
,,,,,,,,,,,,,,,,,,,,,,,,,,,,,,,R_3hlnjdAbx50vJ5l,1,2024-05-31_22h07.55.289,interaction task,2021.2.3,MacIntel,60.24096386,120532,,,"[""LeftButton_2""]",-0.242442491,-0.313246528,1,0,0,LeftButton_2,0,1,1,2,1,RightButton_2,11dot1.png,Smaller,Greater,,,,,,,,,,,,,,,,,,,,,,,,,,,,,,,,,,,,,,,
,,,,,,,,,,,,,,,,,,,,,,,,,,,,,,,R_3hlnjdAbx50vJ5l,1,2024-05-31_22h07.55.289,interaction task,2021.2.3,MacIntel,60.24096386,120532,,,"[""RightButton_2""]",0.271582031,-0.333090278,1,0,0,RightButton_2,0,2,2,1,1,LeftButton_2,9dot2.png,Smaller,Greater,,,,,,,,,,,,,,,,,,,,,,,,,,,,,,,,,,,,,,,
,,,,,,,,,,,,,,,,,,,,,,,,,,,,,,,R_3hlnjdAbx50vJ5l,1,2024-05-31_22h07.55.289,interaction task,2021.2.3,MacIntel,60.24096386,120532,,,,,,,,,,,,,,,,,Smaller,Greater,0.2,-0.237456597,-0.488116319,1,0,0,LeftButton,"[""LeftButton""]",,,,,,,40,6.2091,space,1.5202,96,9.8746,,,,,,0,0,0,0,1,1,both_wrong.png,2,RandomDot24.png,No answer,21,,,
,,,,,,,,,,,,,,,,,,,,,,,,,,,,,,,R_3hlnjdAbx50vJ5l,1,2024-05-31_22h07.55.289,interaction task,2021.2.3,MacIntel,60.24096386,120532,,,,,,,,,,,,,,,,,Smaller,Greater,,-0.291997613,-0.543272569,1,0,0,LeftButton,"[""LeftButton""]",,,,,,,,,,,,,,,,,,0,1,1,1,1,5,both_right.png,10,RandomDot42.png,LeftButton,21,,,
,,,,,,,,,,,,,,,,,,,,,,,,,,,,,,,R_3hlnjdAbx50vJ5l,1,2024-05-31_22h07.55.289,interaction task,2021.2.3,MacIntel,60.24096386,120532,,,,,,,,,,,,,,,,,Greater,Smaller,,-0.24437934,-0.516571181,1,0,0,LeftButton,"[""LeftButton""]",12,6.0349,space,,,,,,,,,,,,,,,0,2,2,2,1,1,both_wrong.png,0,RandomDot16.png,No answer,19,3.82,,
,,,,,,,,,,,,,,,,,,,,,,,,,,,,,,,R_3hlnjdAbx50vJ5l,1,2024-05-31_22h07.55.289,interaction task,2021.2.3,MacIntel,60.24096386,120532,,,,,,,,,,,,,,,,,Greater,Smaller,,-0.352924262,-0.535668403,1,0,0,LeftButton,"[""LeftButton""]",,,,,,,,,,,,,,,,,,0,3,3,3,1,0,both_right.png,2,RandomDot25.png,No answer,19,,,
,,,,,,,,,,,,,,,,,,,,,,,,,,,,,,,R_3hlnjdAbx50vJ5l,1,2024-05-31_22h07.55.289,interaction task,2021.2.3,MacIntel,60.24096386,120532,,,,,,,,,,,,,,,,,Smaller,Greater,,0.336083984,-0.514991319,1,0,0,RightButton,"[""RightButton""]",,,,0.010335286,8.9202,space,,,,,,,,,,,,0,4,4,4,1,3,only_sub_wrong.png,1,RandomDot6.png,No answer,21,,2.4264,
,,,,,,,,,,,,,,,,,,,,,,,,,,,,,,,R_3hlnjdAbx50vJ5l,1,2024-05-31_22h07.55.289,interaction task,2021.2.3,MacIntel,60.24096386,120532,,,,,,,,,,,,,,,,,Smaller,Greater,,-0.269710286,-0.5109375,1,0,0,LeftButton,"[""LeftButton""]",,,,,,,4,4.8699,space,1.1279,95,7.1809,,,,,,0,5,5,5,1,3,only_sub_wrong.png,2,RandomDot31.png,No answer,19,,,
,,,,,,,,,,,,,,,,,,,,,,,,,,,,,,,R_3hlnjdAbx50vJ5l,1,2024-05-31_22h07.55.289,interaction task,2021.2.3,MacIntel,60.24096386,120532,,,,,,,,,,,,,,,,,Greater,Smaller,,-0.282307943,-0.514904514,1,0,0,LeftButton,"[""LeftButton""]",,,,,,,,,,,,,,,,,,0,6,6,6,1,0,both_right.png,1,RandomDot29.png,No answer,21,,,
,,,,,,,,,,,,,,,,,,,,,,,,,,,,,,,R_3hlnjdAbx50vJ5l,1,2024-05-31_22h07.55.289,interaction task,2021.2.3,MacIntel,60.24096386,120532,,,,,,,,,,,,,,,,,Greater,Smaller,,-0.30265842,-0.535798611,1,0,0,LeftButton,"[""LeftButton""]",4,2.6827,space,,,,,,,,,,,,,,,0,7,7,7,1,2,only_sub_right.png,0,RandomDot8.png,No answer,20,1.1593,,
,,,,,,,,,,,,,,,,,,,,,,,,,,,,,,,R_3hlnjdAbx50vJ5l,1,2024-05-31_22h07.55.289,interaction task,2021.2.3,MacIntel,60.24096386,120532,,,,,,,,,,,,,,,,,Greater,Smaller,,0.299365234,-0.517569444,1,0,0,RightButton,"[""RightButton""]",,,,,,,,,,,,,79.76981183,5.1602,space,6.283209701,8.2853,0,8,8,8,1,1,both_wrong.png,3,RandomDot6.png,No answer,21,,,1.122
,,,,,,,,,,,,,,,,,,,,,,,,,,,,,,,R_3hlnjdAbx50vJ5l,1,2024-05-31_22h07.55.289,interaction task,2021.2.3,MacIntel,60.24096386,120532,,,,,,,,,,,,,,,,,Greater,Smaller,,-0.286349826,-0.521857639,1,0,0,LeftButton,"[""LeftButton""]",,,,,,,,,,,,,94.65499176,3.3927,space,6.806563903,4.9848,0,9,9,9,1,2,only_sub_right.png,3,RandomDot36.png,No answer,20,,,0.8478
,,,,,,,,,,,,,,,,,,,,,,,,,,,,,,,R_3hlnjdAbx50vJ5l,1,2024-05-31_22h07.55.289,interaction task,2021.2.3,MacIntel,60.24096386,120532,,,,,,,,,,,,,,,,,Greater,Smaller,,-0.286843533,-0.525503472,1,0,0,LeftButton,"[""LeftButton""]",,,,,,,5,3.4214,space,1.4864,96,5.962,,,,,,0,10,10,10,1,3,only_sub_wrong.png,2,RandomDot1.png,No answer,20,,,
,,,,,,,,,,,,,,,,,,,,,,,,,,,,,,,R_3hlnjdAbx50vJ5l,1,2024-05-31_22h07.55.289,interaction task,2021.2.3,MacIntel,60.24096386,120532,,,,,,,,,,,,,,,,,Smaller,Greater,,0.273019748,-0.53640625,1,0,0,RightButton,"[""RightButton""]",,,,2.137071398,3.277,space,,,,,,,,,,,,0,11,11,11,1,3,only_sub_wrong.png,1,RandomDot6.png,No answer,20,,1.2688,
,,,,,,,,,,,,,,,,,,,,,,,,,,,,,,,R_3hlnjdAbx50vJ5l,1,2024-05-31_22h07.55.289,interaction task,2021.2.3,MacIntel,60.24096386,120532,,,,,,,,,,,,,,,,,Greater,Smaller,,0.260150825,-0.516449653,1,0,0,RightButton,"[""RightButton""]",,,,,,,4,3.2131,space,1.1605,89,4.3398,,,,,,0,12,12,12,1,1,both_wrong.png,2,RandomDot1.png,No answer,21,,,
,,,,,,,,,,,,,,,,,,,,,,,,,,,,,,,R_3hlnjdAbx50vJ5l,1,2024-05-31_22h07.55.289,interaction task,2021.2.3,MacIntel,60.24096386,120532,,,,,,,,,,,,,,,,,Greater,Smaller,,0.313026259,-0.501545139,1,0,0,RightButton,"[""RightButton""]",6,2.9753,space,,,,,,,,,,,,,,,0,13,13,13,1,2,only_sub_right.png,0,RandomDot33.png,No answer,21,1.0916,,
,,,,,,,,,,,,,,,,,,,,,,,,,,,,,,,R_3hlnjdAbx50vJ5l,1,2024-05-31_22h07.55.289,interaction task,2021.2.3,MacIntel,60.24096386,120532,,,,,,,,,,,,,,,,,Greater,Smaller,,-0.286523437,-0.468923611,1,0,0,LeftButton,"[""LeftButton""]",,,,,,,,,,,,,90.43746931,3.3679,space,6.080992214,4.792,0,14,14,14,1,1,both_wrong.png,3,RandomDot30.png,No answer,20,,,0.8969
,,,,,,,,,,,,,,,,,,,,,,,,,,,,,,,R_3hlnjdAbx50vJ5l,1,2024-05-31_22h07.55.289,interaction task,2021.2.3,MacIntel,60.24096386,120532,,,,,,,,,,,,,,,,,Smaller,Greater,,0.356125217,-0.529045139,1,0,0,RightButton,"[""RightButton""]",,,,2.796603733,1.6207,space,,,,,,,,,,,,0,15,15,15,1,2,only_sub_right.png,1,RandomDot14.png,No answer,20,,1.1745,
,,,,,,,,,,,,,,,,,,,,,,,,,,,,,,,R_3hlnjdAbx50vJ5l,1,2024-05-31_22h07.55.289,interaction task,2021.2.3,MacIntel,60.24096386,120532,,,,,,,,,,,,,,,,,Greater,Smaller,,-0.275173611,-0.537482639,1,0,0,LeftButton,"[""LeftButton""]",,,,,,,,,,,,,,,,,,0,16,16,16,1,0,both_right.png,3,RandomDot17.png,No answer,21,,,
,,,,,,,,,,,,,,,,,,,,,,,,,,,,,,,R_3hlnjdAbx50vJ5l,1,2024-05-31_22h07.55.289,interaction task,2021.2.3,MacIntel,60.24096386,120532,,,,,,,,,,,,,,,,,Greater,Smaller,,0.282465278,-0.508758681,1,0,0,RightButton,"[""RightButton""]",,,,,,,,,,,,,91.77900972,2.8241,space,7.610501719,3.8513,0,17,17,17,1,2,only_sub_right.png,3,RandomDot10.png,No answer,19,,,0.4081
,,,,,,,,,,,,,,,,,,,,,,,,,,,,,,,R_3hlnjdAbx50vJ5l,1,2024-05-31_22h07.55.289,interaction task,2021.2.3,MacIntel,60.24096386,120532,,,,,,,,,,,,,,,,,Greater,Smaller,,0.269439019,-0.491032986,1,0,0,RightButton,"[""RightButton""]",,,,2.099012587,3.0713,space,,,,,,,,,,,,0,18,18,18,1,1,both_wrong.png,1,RandomDot28.png,No answer,21,,0.7763,
,,,,,,,,,,,,,,,,,,,,,,,,,,,,,,,R_3hlnjdAbx50vJ5l,1,2024-05-31_22h07.55.289,interaction task,2021.2.3,MacIntel,60.24096386,120532,,,,,,,,,,,,,,,,,Smaller,Greater,,0.324077691,-0.516770833,1,0,0,RightButton,"[""RightButton""]",0,2.74,space,,,,,,,,,,,,,,,0,19,19,19,1,3,only_sub_wrong.png,0,RandomDot26.png,No answer,19,0.6538,,
,,,,,,,,,,,,,,,,,,,,,,,,,,,,,,,R_3hlnjdAbx50vJ5l,1,2024-05-31_22h07.55.289,interaction task,2021.2.3,MacIntel,60.24096386,120532,,,,,,,,,,,,,,,,,Smaller,Greater,,-0.264051649,-0.514409722,1,0,0,LeftButton,"[""LeftButton""]",3,2.196,space,,,,,,,,,,,,,,,0,20,20,20,1,3,only_sub_wrong.png,0,RandomDot9.png,No answer,19,0.3679,,
,,,,,,,,,,,,,,,,,,,,,,,,,,,,,,,R_3hlnjdAbx50vJ5l,1,2024-05-31_22h07.55.289,interaction task,2021.2.3,MacIntel,60.24096386,120532,,,,,,,,,,,,,,,,,Greater,Smaller,,-0.230881076,-0.511310764,1,0,0,LeftButton,"[""LeftButton""]",,,,0.110758464,2.9242,space,,,,,,,,,,,,0,21,21,21,1,3,only_sub_wrong.png,1,RandomDot22.png,No answer,19,,7.8032,
,,,,,,,,,,,,,,,,,,,,,,,,,,,,,,,R_3hlnjdAbx50vJ5l,1,2024-05-31_22h07.55.289,interaction task,2021.2.3,MacIntel,60.24096386,120532,,,,,,,,,,,,,,,,,Smaller,Greater,,-0.245263672,-0.525173611,1,0,0,LeftButton,"[""LeftButton""]",2,2.0629,space,,,,,,,,,,,,,,,0,22,22,22,1,3,only_sub_wrong.png,0,RandomDot25.png,No answer,21,0.6381,,
,,,,,,,,,,,,,,,,,,,,,,,,,,,,,,,R_3hlnjdAbx50vJ5l,1,2024-05-31_22h07.55.289,interaction task,2021.2.3,MacIntel,60.24096386,120532,,,,,,,,,,,,,,,,,Greater,Smaller,,0.279334852,-0.542213542,1,0,0,RightButton,"[""RightButton""]",,,,,,,52,2.5902,space,0.5784,3,3.9765,,,,,,0,23,23,23,1,3,only_sub_wrong.png,2,RandomDot13.png,No answer,21,,,
,,,,,,,,,,,,,,,,,,,,,,,,,,,,,,,R_3hlnjdAbx50vJ5l,1,2024-05-31_22h07.55.289,interaction task,2021.2.3,MacIntel,60.24096386,120532,,,,,,,,,,,,,,,,,Greater,Smaller,,0.289463976,-0.534956597,1,0,0,RightButton,"[""RightButton""]",,,,0.311469184,2.0836,space,,,,,,,,,,,,0,24,24,24,1,1,both_wrong.png,1,RandomDot13.png,No answer,19,,0.5283,
,,,,,,,,,,,,,,,,,,,,,,,,,,,,,,,R_3hlnjdAbx50vJ5l,1,2024-05-31_22h07.55.289,interaction task,2021.2.3,MacIntel,60.24096386,120532,,,,,,,,,,,,,,,,,Greater,Smaller,,-0.243077257,-0.519748264,1,0,0,LeftButton,"[""LeftButton""]",,,,0.131971571,1.7744,space,,,,,,,,,,,,0,25,25,25,1,2,only_sub_right.png,1,RandomDot6.png,No answer,21,,0.3585,
,,,,,,,,,,,,,,,,,,,,,,,,,,,,,,,R_3hlnjdAbx50vJ5l,1,2024-05-31_22h07.55.289,interaction task,2021.2.3,MacIntel,60.24096386,120532,,,,,,,,,,,,,,,,,Greater,Smaller,,0.318115234,-0.520737847,1,0,0,RightButton,"[""RightButton""]",,,,,,,2,4.2332,space,1.0094,96,6.4146,,,,,,0,26,26,26,1,2,only_sub_right.png,2,RandomDot16.png,No answer,20,,,
,,,,,,,,,,,,,,,,,,,,,,,,,,,,,,,R_3hlnjdAbx50vJ5l,1,2024-05-31_22h07.55.289,interaction task,2021.2.3,MacIntel,60.24096386,120532,,,,,,,,,,,,,,,,,Smaller,Greater,,-0.256705729,-0.499887153,1,0,0,LeftButton,"[""LeftButton""]",0,2.4142,space,,,,,,,,,,,,,,,0,27,27,27,1,1,both_wrong.png,0,RandomDot34.png,No answer,19,0.4612,,
,,,,,,,,,,,,,,,,,,,,,,,,,,,,,,,R_3hlnjdAbx50vJ5l,1,2024-05-31_22h07.55.289,interaction task,2021.2.3,MacIntel,60.24096386,120532,,,,,,,,,,,,,,,,,Smaller,Greater,,0.292062717,-0.488498264,1,0,0,RightButton,"[""RightButton""]",,,,0.80086263,1.9954,space,,,,,,,,,,,,0,28,28,28,1,2,only_sub_right.png,1,RandomDot27.png,No answer,21,,0.5595,
,,,,,,,,,,,,,,,,,,,,,,,,,,,,,,,R_3hlnjdAbx50vJ5l,1,2024-05-31_22h07.55.289,interaction task,2021.2.3,MacIntel,60.24096386,120532,,,,,,,,,,,,,,,,,Smaller,Greater,,-0.274441189,-0.521293403,1,0,0,LeftButton,"[""LeftButton""]",,,,0.365966797,1.6725,space,,,,,,,,,,,,0,29,29,29,1,1,both_wrong.png,1,RandomDot14.png,No answer,20,,0.305,
,,,,,,,,,,,,,,,,,,,,,,,,,,,,,,,R_3hlnjdAbx50vJ5l,1,2024-05-31_22h07.55.289,interaction task,2021.2.3,MacIntel,60.24096386,120532,,,,,,,,,,,,,,,,,Smaller,Greater,,0.31546224,-0.496024306,1,0,0,RightButton,"[""RightButton""]",,,,,,,,,,,,,46.43680731,4.1481,space,11.61320234,6.6506,0,30,30,30,1,3,only_sub_wrong.png,3,RandomDot36.png,No answer,21,,,0.3927
,,,,,,,,,,,,,,,,,,,,,,,,,,,,,,,R_3hlnjdAbx50vJ5l,1,2024-05-31_22h07.55.289,interaction task,2021.2.3,MacIntel,60.24096386,120532,,,,,,,,,,,,,,,,,Smaller,Greater,,0.297553168,-0.543125,1,0,0,RightButton,"[""RightButton""]",0,2.3606,space,,,,,,,,,,,,,,,0,31,31,31,1,2,only_sub_right.png,0,RandomDot37.png,No answer,21,0.2758,,
,,,,,,,,,,,,,,,,,,,,,,,,,,,,,,,R_3hlnjdAbx50vJ5l,1,2024-05-31_22h07.55.289,interaction task,2021.2.3,MacIntel,60.24096386,120532,,,,,,,,,,,,,,,,,Smaller,Greater,,-0.274072266,-0.488064236,1,0,0,LeftButton,"[""LeftButton""]",,,,,,,0,3.9016,space,0.3538,98,5.428,,,,,,0,32,32,32,1,1,both_wrong.png,2,RandomDot21.png,No answer,20,,,
,,,,,,,,,,,,,,,,,,,,,,,,,,,,,,,R_3hlnjdAbx50vJ5l,1,2024-05-31_22h07.55.289,interaction task,2021.2.3,MacIntel,60.24096386,120532,,,,,,,,,,,,,,,,,Smaller,Greater,,-0.288975694,-0.484973958,1,0,0,LeftButton,"[""LeftButton""]",,,,,,,,,,,,,57.22119195,2.5073,space,52.65842014,3.724,0,33,33,33,1,2,only_sub_right.png,3,RandomDot30.png,No answer,20,,,0.6037
,,,,,,,,,,,,,,,,,,,,,,,,,,,,,,,R_3hlnjdAbx50vJ5l,1,2024-05-31_22h07.55.289,interaction task,2021.2.3,MacIntel,60.24096386,120532,,,,,,,,,,,,,,,,,Greater,Smaller,,0.34616428,-0.530225694,1,0,0,RightButton,"[""RightButton""]",,,,,,,,,,,,,53.94351501,1.7074,space,49.30018501,2.5004,0,34,34,34,1,1,both_wrong.png,3,RandomDot13.png,No answer,21,,,0.7167
,,,,,,,,,,,,,,,,,,,,,,,,,,,,,,,R_3hlnjdAbx50vJ5l,1,2024-05-31_22h07.55.289,interaction task,2021.2.3,MacIntel,60.24096386,120532,,,,,,,,,,,,,,,,,Greater,Smaller,,0.283734809,-0.515451389,1,0,0,RightButton,"[""RightButton""]",,,,,,,1,3.6593,space,0.9707,96,4.7517,,,,,,0,35,35,35,1,2,only_sub_right.png,2,RandomDot20.png,No answer,20,,,
,,,,,,,,,,,,,,,,,,,,,,,,,,,,,,,R_3hlnjdAbx50vJ5l,1,2024-05-31_22h07.55.289,interaction task,2021.2.3,MacIntel,60.24096386,120532,,,,,,,,,,,,,,,,,Smaller,Greater,,-0.286024306,-0.503203125,1,0,0,LeftButton,"[""LeftButton""]",1,2.7147,space,,,,,,,,,,,,,,,0,36,36,36,1,1,both_wrong.png,0,RandomDot22.png,No answer,21,0.5079,,
,,,,,,,,,,,,,,,,,,,,,,,,,,,,,,,R_3hlnjdAbx50vJ5l,1,2024-05-31_22h07.55.289,interaction task,2021.2.3,MacIntel,60.24096386,120532,,,,,,,,,,,,,,,,,Smaller,Greater,,-0.256108941,-0.512152778,1,0,0,LeftButton,"[""LeftButton""]",,,,,,,2,2.831,space,0.8738,99,3.8824,,,,,,0,37,37,37,1,2,only_sub_right.png,2,RandomDot34.png,No answer,20,,,
,,,,,,,,,,,,,,,,,,,,,,,,,,,,,,,R_3hlnjdAbx50vJ5l,1,2024-05-31_22h07.55.289,interaction task,2021.2.3,MacIntel,60.24096386,120532,,,,,,,,,,,,,,,,,Smaller,Greater,,0.246001519,-0.515503472,1,0,0,RightButton,"[""RightButton""]",,,,,,,,,,,,,,,,,,0,38,38,38,1,0,both_right.png,0,RandomDot22.png,No answer,19,,,
,,,,,,,,,,,,,,,,,,,,,,,,,,,,,,,R_3hlnjdAbx50vJ5l,1,2024-05-31_22h07.55.289,interaction task,2021.2.3,MacIntel,60.24096386,120532,,,,,,,,,,,,,,,,,Greater,Smaller,,-0.23266059,-0.489140625,1,0,0,LeftButton,"[""LeftButton""]",,,,,,,,,,,,,,,,,,0,39,39,39,1,4,both_right.png,10,RandomDot41.png,LeftButton,5,,,
,,,,,,,,,,,,,,,,,,,,,,,,,,,,,,,R_3hlnjdAbx50vJ5l,1,2024-05-31_22h07.55.289,interaction task,2021.2.3,MacIntel,60.24096386,120532,,,,,,,,,,,,,,,,,Greater,Smaller,,-0.317692057,-0.506623264,1,0,0,LeftButton,"[""LeftButton""]",,,,,,,,,,,,,53.67937184,2.3653,space,51.18042403,3.0913,0,40,40,40,1,3,only_sub_wrong.png,3,RandomDot34.png,No answer,20,,,0.5019
,,,,,,,,,,,,,,,,,,,,,,,,,,,,,,,R_3hlnjdAbx50vJ5l,1,2024-05-31_22h07.55.289,interaction task,2021.2.3,MacIntel,60.24096386,120532,,,,,,,,,,,,,,,,,Smaller,Greater,,0.334228516,-0.53515625,1,0,0,RightButton,"[""RightButton""]",,,,,,,,,,,,,57.9341593,1.8995,space,60.48955264,1.288,0,41,41,41,1,3,only_sub_wrong.png,3,RandomDot9.png,No answer,19,,,0.558
