choose_trial,key_resp.keys,key_resp.rt,key_resp_4.keys,key_resp_4.rt,session_trait,slider_face_judge.response,slider_face_judge.rt,key_resp_3.keys,key_resp_3.rt,face_loop.thisRepN,face_loop.thisTrialN,face_loop.thisN,face_loop.thisIndex,face_loop.ran,face_serial,image_name,isCheck,answer,check_question,participant,session,date,expName,psychopyVersion,OS,frameRate,SONAid,session.thisRepN,session.thisTrialN,session.thisN,session.thisIndex,session.ran,session_serial,slider_judge_img
"[0,1,2,3,4,5,6,7,8,9,10,11,12,13,14,15,16,17,18,19,20,21,22,23,24,25,26,27,28,29,30,31,32,33,34,35,36,37,38,39,40,41,42,43,44,45,46,47,48,49,59,53,50]",space,12.282,space,21.7934,friendly,3.009583333,8.6578,space,1.3572,0,0,0,49,1,50,image/50.jpg,0,0,,R_3hlnjdAbx50vJ5l,2,2024-05-31_22h23.29.001,face trait task,2021.2.3,MacIntel,60.24096386,120532,,,,,,,
,,,,,,3.988541667,5.3227,space,0.7385,0,1,1,47,1,48,image/48.jpg,0,0,,R_3hlnjdAbx50vJ5l,2,2024-05-31_22h23.29.001,face trait task,2021.2.3,MacIntel,60.24096386,120532,,,,,,,
,,,,,,5.429609375,4.7675,space,0.6096,0,2,2,19,1,20,image/20.jpg,0,0,,R_3hlnjdAbx50vJ5l,2,2024-05-31_22h23.29.001,face trait task,2021.2.3,MacIntel,60.24096386,120532,,,,,,,
,,,,,,2.087864583,2.3071,space,0.4017,0,3,3,8,1,9,image/9.jpg,0,0,,R_3hlnjdAbx50vJ5l,2,2024-05-31_22h23.29.001,face trait task,2021.2.3,MacIntel,60.24096386,120532,,,,,,,
,,,,,,5.009505208,3.0465,space,0.3201,0,4,4,6,1,7,image/7.jpg,0,0,,R_3hlnjdAbx50vJ5l,2,2024-05-31_22h23.29.001,face trait task,2021.2.3,MacIntel,60.24096386,120532,,,,,,,
,,,,,,2.999973958,2.5148,space,0.5196,0,5,5,5,1,6,image/6.jpg,0,0,,R_3hlnjdAbx50vJ5l,2,2024-05-31_22h23.29.001,face trait task,2021.2.3,MacIntel,60.24096386,120532,,,,,,,
,,,,,,5.52578125,3.6957,space,1.8731,0,6,6,9,1,10,image/10.jpg,0,0,,R_3hlnjdAbx50vJ5l,2,2024-05-31_22h23.29.001,face trait task,2021.2.3,MacIntel,60.24096386,120532,,,,,,,
,,,,,,2.921692708,2.3713,space,0.6922,0,7,7,36,1,37,image/37.jpg,0,0,,R_3hlnjdAbx50vJ5l,2,2024-05-31_22h23.29.001,face trait task,2021.2.3,MacIntel,60.24096386,120532,,,,,,,
,,,,,,6.376276042,3.0504,space,0.2705,0,8,8,17,1,18,image/18.jpg,0,0,,R_3hlnjdAbx50vJ5l,2,2024-05-31_22h23.29.001,face trait task,2021.2.3,MacIntel,60.24096386,120532,,,,,,,
,,,,,,2.740052083,2.7378,space,0.5533,0,9,9,43,1,44,image/44.jpg,0,0,,R_3hlnjdAbx50vJ5l,2,2024-05-31_22h23.29.001,face trait task,2021.2.3,MacIntel,60.24096386,120532,,,,,,,
,,,,,,4.016510417,2.1605,space,1.1824,0,10,10,32,1,33,image/33.jpg,0,0,,R_3hlnjdAbx50vJ5l,2,2024-05-31_22h23.29.001,face trait task,2021.2.3,MacIntel,60.24096386,120532,,,,,,,
,,,,,,5.022057292,2.0937,space,1.0572,0,11,11,14,1,15,image/15.jpg,0,0,,R_3hlnjdAbx50vJ5l,2,2024-05-31_22h23.29.001,face trait task,2021.2.3,MacIntel,60.24096386,120532,,,,,,,
,,,,,,2.7703125,2.1897,space,0.5295,0,12,12,0,1,1,image/1.jpg,0,0,,R_3hlnjdAbx50vJ5l,2,2024-05-31_22h23.29.001,face trait task,2021.2.3,MacIntel,60.24096386,120532,,,,,,,
,,,,,,6.959869792,5.9179,space,1.8687,0,13,13,50,1,60,image/fill_img.png,1,7,Please move the slider all the way to the RIGHT to show that you are paying attention.,R_3hlnjdAbx50vJ5l,2,2024-05-31_22h23.29.001,face trait task,2021.2.3,MacIntel,60.24096386,120532,,,,,,,
,,,,,,1.419453125,7.8923,space,0.4563,0,14,14,25,1,26,image/26.jpg,0,0,,R_3hlnjdAbx50vJ5l,2,2024-05-31_22h23.29.001,face trait task,2021.2.3,MacIntel,60.24096386,120532,,,,,,,
,,,,,,2.645755208,2.1246,space,0.3081,0,15,15,4,1,5,image/5.jpg,0,0,,R_3hlnjdAbx50vJ5l,2,2024-05-31_22h23.29.001,face trait task,2021.2.3,MacIntel,60.24096386,120532,,,,,,,
,,,,,,3.835911458,1.9702,space,0.5415,0,16,16,41,1,42,image/42.jpg,0,0,,R_3hlnjdAbx50vJ5l,2,2024-05-31_22h23.29.001,face trait task,2021.2.3,MacIntel,60.24096386,120532,,,,,,,
,,,,,,5.283619792,4.0626,space,1.973,0,17,17,35,1,36,image/36.jpg,0,0,,R_3hlnjdAbx50vJ5l,2,2024-05-31_22h23.29.001,face trait task,2021.2.3,MacIntel,60.24096386,120532,,,,,,,
,,,,,,3.545625,2.0181,space,0.4512,0,18,18,28,1,29,image/29.jpg,0,0,,R_3hlnjdAbx50vJ5l,2,2024-05-31_22h23.29.001,face trait task,2021.2.3,MacIntel,60.24096386,120532,,,,,,,
,,,,,,1.021875,3.2502,space,0.7429,0,19,19,18,1,19,image/19.jpg,0,0,,R_3hlnjdAbx50vJ5l,2,2024-05-31_22h23.29.001,face trait task,2021.2.3,MacIntel,60.24096386,120532,,,,,,,
,,,,,,3.37734375,3.0245,space,0.5081,0,20,20,24,1,25,image/25.jpg,0,0,,R_3hlnjdAbx50vJ5l,2,2024-05-31_22h23.29.001,face trait task,2021.2.3,MacIntel,60.24096386,120532,,,,,,,
,,,,,,5.698151042,1.6574,space,0.4529,0,21,21,7,1,8,image/8.jpg,0,0,,R_3hlnjdAbx50vJ5l,2,2024-05-31_22h23.29.001,face trait task,2021.2.3,MacIntel,60.24096386,120532,,,,,,,
,,,,,,3.19515625,1.96,space,0.5602,0,22,22,10,1,11,image/11.jpg,0,0,,R_3hlnjdAbx50vJ5l,2,2024-05-31_22h23.29.001,face trait task,2021.2.3,MacIntel,60.24096386,120532,,,,,,,
,,,,,,1.903072917,6.324,space,0.4259,0,23,23,31,1,32,image/32.jpg,0,0,,R_3hlnjdAbx50vJ5l,2,2024-05-31_22h23.29.001,face trait task,2021.2.3,MacIntel,60.24096386,120532,,,,,,,
,,,,,,1.104375,4.9404,space,0.4407,0,24,24,1,1,2,image/2.jpg,0,0,,R_3hlnjdAbx50vJ5l,2,2024-05-31_22h23.29.001,face trait task,2021.2.3,MacIntel,60.24096386,120532,,,,,,,
,,,,,,3.996432292,3.5183,space,1.3295,0,25,25,33,1,34,image/34.jpg,0,0,,R_3hlnjdAbx50vJ5l,2,2024-05-31_22h23.29.001,face trait task,2021.2.3,MacIntel,60.24096386,120532,,,,,,,
,,,,,,4.005260417,1.476,space,0.5251,0,26,26,27,1,28,image/28.jpg,0,0,,R_3hlnjdAbx50vJ5l,2,2024-05-31_22h23.29.001,face trait task,2021.2.3,MacIntel,60.24096386,120532,,,,,,,
,,,,,,5.025286458,4.0494,space,0.2568,0,27,27,2,1,3,image/3.jpg,0,0,,R_3hlnjdAbx50vJ5l,2,2024-05-31_22h23.29.001,face trait task,2021.2.3,MacIntel,60.24096386,120532,,,,,,,
,,,,,,5.687994792,4.525,space,0.4347,0,28,28,30,1,31,image/31.jpg,0,0,,R_3hlnjdAbx50vJ5l,2,2024-05-31_22h23.29.001,face trait task,2021.2.3,MacIntel,60.24096386,120532,,,,,,,
,,,,,,1.005807292,3.8115,space,0.5768,0,29,29,52,1,51,image/fill_img.png,1,1,Please move the slider all the way to the LEFT to show that you are paying attention.,R_3hlnjdAbx50vJ5l,2,2024-05-31_22h23.29.001,face trait task,2021.2.3,MacIntel,60.24096386,120532,,,,,,,
,,,,,,1.01046875,3.9763,space,0.6283,0,30,30,51,1,54,image/fill_img.png,1,1,Please move the slider all the way to the LEFT to show that you are paying attention.,R_3hlnjdAbx50vJ5l,2,2024-05-31_22h23.29.001,face trait task,2021.2.3,MacIntel,60.24096386,120532,,,,,,,
,,,,,,4.405104167,3.6104,space,0.2943,0,31,31,16,1,17,image/17.jpg,0,0,,R_3hlnjdAbx50vJ5l,2,2024-05-31_22h23.29.001,face trait task,2021.2.3,MacIntel,60.24096386,120532,,,,,,,
,,,,,,3.643984375,1.753,space,0.2408,0,32,32,34,1,35,image/35.jpg,0,0,,R_3hlnjdAbx50vJ5l,2,2024-05-31_22h23.29.001,face trait task,2021.2.3,MacIntel,60.24096386,120532,,,,,,,
,,,,,,4.256953125,1.8995,space,0.3769,0,33,33,48,1,49,image/49.jpg,0,0,,R_3hlnjdAbx50vJ5l,2,2024-05-31_22h23.29.001,face trait task,2021.2.3,MacIntel,60.24096386,120532,,,,,,,
,,,,,,5.715625,1.7793,space,0.339,0,34,34,22,1,23,image/23.jpg,0,0,,R_3hlnjdAbx50vJ5l,2,2024-05-31_22h23.29.001,face trait task,2021.2.3,MacIntel,60.24096386,120532,,,,,,,
,,,,,,1.028177083,2.4463,space,0.2955,0,35,35,40,1,41,image/41.jpg,0,0,,R_3hlnjdAbx50vJ5l,2,2024-05-31_22h23.29.001,face trait task,2021.2.3,MacIntel,60.24096386,120532,,,,,,,
,,,,,,4.539192708,3.0776,space,0.3122,0,36,36,12,1,13,image/13.jpg,0,0,,R_3hlnjdAbx50vJ5l,2,2024-05-31_22h23.29.001,face trait task,2021.2.3,MacIntel,60.24096386,120532,,,,,,,
,,,,,,4.683932292,2.451,space,0.3632,0,37,37,45,1,46,image/46.jpg,0,0,,R_3hlnjdAbx50vJ5l,2,2024-05-31_22h23.29.001,face trait task,2021.2.3,MacIntel,60.24096386,120532,,,,,,,
,,,,,,3.418854167,1.7558,space,0.2817,0,38,38,44,1,45,image/45.jpg,0,0,,R_3hlnjdAbx50vJ5l,2,2024-05-31_22h23.29.001,face trait task,2021.2.3,MacIntel,60.24096386,120532,,,,,,,
,,,,,,3.418854167,1.2601,space,0.404,0,39,39,42,1,43,image/43.jpg,0,0,,R_3hlnjdAbx50vJ5l,2,2024-05-31_22h23.29.001,face trait task,2021.2.3,MacIntel,60.24096386,120532,,,,,,,
,,,,,,5.367890625,1.5501,space,0.4979,0,40,40,38,1,39,image/39.jpg,0,0,,R_3hlnjdAbx50vJ5l,2,2024-05-31_22h23.29.001,face trait task,2021.2.3,MacIntel,60.24096386,120532,,,,,,,
,,,,,,2.4778125,1.7702,space,0.2996,0,41,41,29,1,30,image/30.jpg,0,0,,R_3hlnjdAbx50vJ5l,2,2024-05-31_22h23.29.001,face trait task,2021.2.3,MacIntel,60.24096386,120532,,,,,,,
,,,,,,1.737864583,2.3302,space,1.4973,0,42,42,37,1,38,image/38.jpg,0,0,,R_3hlnjdAbx50vJ5l,2,2024-05-31_22h23.29.001,face trait task,2021.2.3,MacIntel,60.24096386,120532,,,,,,,
,,,,,,4.590026042,1.6915,space,0.2366,0,43,43,26,1,27,image/27.jpg,0,0,,R_3hlnjdAbx50vJ5l,2,2024-05-31_22h23.29.001,face trait task,2021.2.3,MacIntel,60.24096386,120532,,,,,,,
,,,,,,2.622994792,2.39,space,0.5515,0,44,44,46,1,47,image/47.jpg,0,0,,R_3hlnjdAbx50vJ5l,2,2024-05-31_22h23.29.001,face trait task,2021.2.3,MacIntel,60.24096386,120532,,,,,,,
,,,,,,5.785338542,1.5458,space,0.3867,0,45,45,3,1,4,image/4.jpg,0,0,,R_3hlnjdAbx50vJ5l,2,2024-05-31_22h23.29.001,face trait task,2021.2.3,MacIntel,60.24096386,120532,,,,,,,
,,,,,,3.581875,1.9432,space,0.9173,0,46,46,39,1,40,image/40.jpg,0,0,,R_3hlnjdAbx50vJ5l,2,2024-05-31_22h23.29.001,face trait task,2021.2.3,MacIntel,60.24096386,120532,,,,,,,
,,,,,,2.473463542,1.7794,space,0.2664,0,47,47,11,1,12,image/12.jpg,0,0,,R_3hlnjdAbx50vJ5l,2,2024-05-31_22h23.29.001,face trait task,2021.2.3,MacIntel,60.24096386,120532,,,,,,,
,,,,,,6.440625,2.1622,space,0.2612,0,48,48,15,1,16,image/16.jpg,0,0,,R_3hlnjdAbx50vJ5l,2,2024-05-31_22h23.29.001,face trait task,2021.2.3,MacIntel,60.24096386,120532,,,,,,,
,,,,,,6.440625,1.3499,space,0.2766,0,49,49,21,1,22,image/22.jpg,0,0,,R_3hlnjdAbx50vJ5l,2,2024-05-31_22h23.29.001,face trait task,2021.2.3,MacIntel,60.24096386,120532,,,,,,,
,,,,,,2.408567708,3.1445,space,1.8513,0,50,50,23,1,24,image/24.jpg,0,0,,R_3hlnjdAbx50vJ5l,2,2024-05-31_22h23.29.001,face trait task,2021.2.3,MacIntel,60.24096386,120532,,,,,,,
,,,,,,2.408567708,1.0309,space,0.3548,0,51,51,20,1,21,image/21.jpg,0,0,,R_3hlnjdAbx50vJ5l,2,2024-05-31_22h23.29.001,face trait task,2021.2.3,MacIntel,60.24096386,120532,,,,,,,
,,,,,,2.421119792,1.0884,space,0.3838,0,52,52,13,1,14,image/14.jpg,0,0,,R_3hlnjdAbx50vJ5l,2,2024-05-31_22h23.29.001,face trait task,2021.2.3,MacIntel,60.24096386,120532,,,,,,,
,,,,,,,,,,,,,,,,,,,,R_3hlnjdAbx50vJ5l,2,2024-05-31_22h23.29.001,face trait task,2021.2.3,MacIntel,60.24096386,120532,0,0,0,3,1,3,friendly.png
,,,,,critical,2.393697917,4.5181,space,0.8296,0,0,0,8,1,9,image/9.jpg,0,0,,R_3hlnjdAbx50vJ5l,2,2024-05-31_22h23.29.001,face trait task,2021.2.3,MacIntel,60.24096386,120532,,,,,,,
,,,,,,3.441510417,3.2238,space,1.6043,0,1,1,43,1,44,image/44.jpg,0,0,,R_3hlnjdAbx50vJ5l,2,2024-05-31_22h23.29.001,face trait task,2021.2.3,MacIntel,60.24096386,120532,,,,,,,
,,,,,,5.149973958,4.6634,space,0.5534,0,2,2,37,1,38,image/38.jpg,0,0,,R_3hlnjdAbx50vJ5l,2,2024-05-31_22h23.29.001,face trait task,2021.2.3,MacIntel,60.24096386,120532,,,,,,,
,,,,,,2.405286458,2.5529,space,1.1478,0,3,3,10,1,11,image/11.jpg,0,0,,R_3hlnjdAbx50vJ5l,2,2024-05-31_22h23.29.001,face trait task,2021.2.3,MacIntel,60.24096386,120532,,,,,,,
,,,,,,4.382291667,2.2346,space,0.406,0,4,4,42,1,43,image/43.jpg,0,0,,R_3hlnjdAbx50vJ5l,2,2024-05-31_22h23.29.001,face trait task,2021.2.3,MacIntel,60.24096386,120532,,,,,,,
,,,,,,6.55203125,2.3906,space,0.331,0,5,5,4,1,5,image/5.jpg,0,0,,R_3hlnjdAbx50vJ5l,2,2024-05-31_22h23.29.001,face trait task,2021.2.3,MacIntel,60.24096386,120532,,,,,,,
,,,,,,1.01765625,2.7804,space,0.4687,0,6,6,52,1,51,image/fill_img.png,1,1,Please move the slider all the way to the LEFT to show that you are paying attention.,R_3hlnjdAbx50vJ5l,2,2024-05-31_22h23.29.001,face trait task,2021.2.3,MacIntel,60.24096386,120532,,,,,,,
,,,,,,5.126796875,3.9809,space,1.236,0,7,7,31,1,32,image/32.jpg,0,0,,R_3hlnjdAbx50vJ5l,2,2024-05-31_22h23.29.001,face trait task,2021.2.3,MacIntel,60.24096386,120532,,,,,,,
,,,,,,6.757890625,2.1654,space,0.2661,0,8,8,29,1,30,image/30.jpg,0,0,,R_3hlnjdAbx50vJ5l,2,2024-05-31_22h23.29.001,face trait task,2021.2.3,MacIntel,60.24096386,120532,,,,,,,
,,,,,,2.336953125,2.0232,space,0.2428,0,9,9,30,1,31,image/31.jpg,0,0,,R_3hlnjdAbx50vJ5l,2,2024-05-31_22h23.29.001,face trait task,2021.2.3,MacIntel,60.24096386,120532,,,,,,,
,,,,,,3.561588542,2.0191,space,0.284,0,10,10,38,1,39,image/39.jpg,0,0,,R_3hlnjdAbx50vJ5l,2,2024-05-31_22h23.29.001,face trait task,2021.2.3,MacIntel,60.24096386,120532,,,,,,,
,,,,,,4.817942708,2.4428,space,0.3068,0,11,11,0,1,1,image/1.jpg,0,0,,R_3hlnjdAbx50vJ5l,2,2024-05-31_22h23.29.001,face trait task,2021.2.3,MacIntel,60.24096386,120532,,,,,,,
,,,,,,4.817942708,1.0553,space,0.3595,0,12,12,9,1,10,image/10.jpg,0,0,,R_3hlnjdAbx50vJ5l,2,2024-05-31_22h23.29.001,face trait task,2021.2.3,MacIntel,60.24096386,120532,,,,,,,
,,,,,,5.455989583,0.9707,space,0.2854,0,13,13,14,1,15,image/15.jpg,0,0,,R_3hlnjdAbx50vJ5l,2,2024-05-31_22h23.29.001,face trait task,2021.2.3,MacIntel,60.24096386,120532,,,,,,,
,,,,,,2.610677083,1.7136,space,0.2227,0,14,14,11,1,12,image/12.jpg,0,0,,R_3hlnjdAbx50vJ5l,2,2024-05-31_22h23.29.001,face trait task,2021.2.3,MacIntel,60.24096386,120532,,,,,,,
,,,,,,5.443984375,2.7673,space,0.2659,0,15,15,35,1,36,image/36.jpg,0,0,,R_3hlnjdAbx50vJ5l,2,2024-05-31_22h23.29.001,face trait task,2021.2.3,MacIntel,60.24096386,120532,,,,,,,
,,,,,,1.569322917,2.0027,space,0.2288,0,16,16,22,1,23,image/23.jpg,0,0,,R_3hlnjdAbx50vJ5l,2,2024-05-31_22h23.29.001,face trait task,2021.2.3,MacIntel,60.24096386,120532,,,,,,,
,,,,,,6.99453125,2.1361,space,0.3004,0,17,17,36,1,37,image/37.jpg,0,0,,R_3hlnjdAbx50vJ5l,2,2024-05-31_22h23.29.001,face trait task,2021.2.3,MacIntel,60.24096386,120532,,,,,,,
,,,,,,6.074895833,1.5559,space,0.2861,0,18,18,49,1,50,image/50.jpg,0,0,,R_3hlnjdAbx50vJ5l,2,2024-05-31_22h23.29.001,face trait task,2021.2.3,MacIntel,60.24096386,120532,,,,,,,
,,,,,,4.816666667,1.9094,space,0.3329,0,19,19,39,1,40,image/40.jpg,0,0,,R_3hlnjdAbx50vJ5l,2,2024-05-31_22h23.29.001,face trait task,2021.2.3,MacIntel,60.24096386,120532,,,,,,,
,,,,,,3.250390625,1.8926,space,0.4419,0,20,20,19,1,20,image/20.jpg,0,0,,R_3hlnjdAbx50vJ5l,2,2024-05-31_22h23.29.001,face trait task,2021.2.3,MacIntel,60.24096386,120532,,,,,,,
,,,,,,3.256328125,1.5105,space,0.3483,0,21,21,47,1,48,image/48.jpg,0,0,,R_3hlnjdAbx50vJ5l,2,2024-05-31_22h23.29.001,face trait task,2021.2.3,MacIntel,60.24096386,120532,,,,,,,
,,,,,,6.3115625,1.173,space,0.1885,0,22,22,12,1,13,image/13.jpg,0,0,,R_3hlnjdAbx50vJ5l,2,2024-05-31_22h23.29.001,face trait task,2021.2.3,MacIntel,60.24096386,120532,,,,,,,
,,,,,,2.437057292,3.2218,space,1.7835,0,23,23,5,1,6,image/6.jpg,0,0,,R_3hlnjdAbx50vJ5l,2,2024-05-31_22h23.29.001,face trait task,2021.2.3,MacIntel,60.24096386,120532,,,,,,,
,,,,,,3.46515625,2.3447,space,0.4353,0,24,24,13,1,14,image/14.jpg,0,0,,R_3hlnjdAbx50vJ5l,2,2024-05-31_22h23.29.001,face trait task,2021.2.3,MacIntel,60.24096386,120532,,,,,,,
,,,,,,6.526588542,2.0184,space,0.384,0,25,25,3,1,4,image/4.jpg,0,0,,R_3hlnjdAbx50vJ5l,2,2024-05-31_22h23.29.001,face trait task,2021.2.3,MacIntel,60.24096386,120532,,,,,,,
,,,,,,5.784270833,1.8551,space,0.5021,0,26,26,23,1,24,image/24.jpg,0,0,,R_3hlnjdAbx50vJ5l,2,2024-05-31_22h23.29.001,face trait task,2021.2.3,MacIntel,60.24096386,120532,,,,,,,
,,,,,,1.679296875,1.5779,space,0.6712,0,27,27,6,1,7,image/7.jpg,0,0,,R_3hlnjdAbx50vJ5l,2,2024-05-31_22h23.29.001,face trait task,2021.2.3,MacIntel,60.24096386,120532,,,,,,,
,,,,,,2.091979167,1.7045,space,0.7359,0,28,28,48,1,49,image/49.jpg,0,0,,R_3hlnjdAbx50vJ5l,2,2024-05-31_22h23.29.001,face trait task,2021.2.3,MacIntel,60.24096386,120532,,,,,,,
,,,,,,4.774088542,3.1358,space,0.4165,0,29,29,15,1,16,image/16.jpg,0,0,,R_3hlnjdAbx50vJ5l,2,2024-05-31_22h23.29.001,face trait task,2021.2.3,MacIntel,60.24096386,120532,,,,,,,
,,,,,,3.996796875,2.1136,space,0.2211,0,30,30,46,1,47,image/47.jpg,0,0,,R_3hlnjdAbx50vJ5l,2,2024-05-31_22h23.29.001,face trait task,2021.2.3,MacIntel,60.24096386,120532,,,,,,,
,,,,,,3.025677083,1.6473,space,0.3376,0,31,31,32,1,33,image/33.jpg,0,0,,R_3hlnjdAbx50vJ5l,2,2024-05-31_22h23.29.001,face trait task,2021.2.3,MacIntel,60.24096386,120532,,,,,,,
,,,,,,5.145651042,2.124,space,0.3403,0,32,32,24,1,25,image/25.jpg,0,0,,R_3hlnjdAbx50vJ5l,2,2024-05-31_22h23.29.001,face trait task,2021.2.3,MacIntel,60.24096386,120532,,,,,,,
,,,,,,6.989583333,4.2315,space,0.3058,0,33,33,28,1,29,image/29.jpg,0,0,,R_3hlnjdAbx50vJ5l,2,2024-05-31_22h23.29.001,face trait task,2021.2.3,MacIntel,60.24096386,120532,,,,,,,
,,,,,,6.989583333,1.4985,space,0.745,0,34,34,50,1,60,image/fill_img.png,1,7,Please move the slider all the way to the RIGHT to show that you are paying attention.,R_3hlnjdAbx50vJ5l,2,2024-05-31_22h23.29.001,face trait task,2021.2.3,MacIntel,60.24096386,120532,,,,,,,
,,,,,,3.514166667,3.0859,space,0.3122,0,35,35,18,1,19,image/19.jpg,0,0,,R_3hlnjdAbx50vJ5l,2,2024-05-31_22h23.29.001,face trait task,2021.2.3,MacIntel,60.24096386,120532,,,,,,,
,,,,,,2.331328125,2.3901,space,0.4682,0,36,36,2,1,3,image/3.jpg,0,0,,R_3hlnjdAbx50vJ5l,2,2024-05-31_22h23.29.001,face trait task,2021.2.3,MacIntel,60.24096386,120532,,,,,,,
,,,,,,4.643567708,1.8934,space,0.3111,0,37,37,40,1,41,image/41.jpg,0,0,,R_3hlnjdAbx50vJ5l,2,2024-05-31_22h23.29.001,face trait task,2021.2.3,MacIntel,60.24096386,120532,,,,,,,
,,,,,,4.223463542,1.7516,space,0.3544,0,38,38,21,1,22,image/22.jpg,0,0,,R_3hlnjdAbx50vJ5l,2,2024-05-31_22h23.29.001,face trait task,2021.2.3,MacIntel,60.24096386,120532,,,,,,,
,,,,,,6.930598958,2.2228,space,0.4285,0,39,39,33,1,34,image/34.jpg,0,0,,R_3hlnjdAbx50vJ5l,2,2024-05-31_22h23.29.001,face trait task,2021.2.3,MacIntel,60.24096386,120532,,,,,,,
,,,,,,5.552604167,1.8035,space,0.3057,0,40,40,16,1,17,image/17.jpg,0,0,,R_3hlnjdAbx50vJ5l,2,2024-05-31_22h23.29.001,face trait task,2021.2.3,MacIntel,60.24096386,120532,,,,,,,
,,,,,,5.973802083,2.966,space,1.876,0,41,41,41,1,42,image/42.jpg,0,0,,R_3hlnjdAbx50vJ5l,2,2024-05-31_22h23.29.001,face trait task,2021.2.3,MacIntel,60.24096386,120532,,,,,,,
,,,,,,6.528776042,1.9984,space,0.6683,0,42,42,44,1,45,image/45.jpg,0,0,,R_3hlnjdAbx50vJ5l,2,2024-05-31_22h23.29.001,face trait task,2021.2.3,MacIntel,60.24096386,120532,,,,,,,
,,,,,,1.02484375,2.9431,space,0.8762,0,43,43,51,1,54,image/fill_img.png,1,1,Please move the slider all the way to the LEFT to show that you are paying attention.,R_3hlnjdAbx50vJ5l,2,2024-05-31_22h23.29.001,face trait task,2021.2.3,MacIntel,60.24096386,120532,,,,,,,
,,,,,,2.617734375,2.8107,space,0.3057,0,44,44,34,1,35,image/35.jpg,0,0,,R_3hlnjdAbx50vJ5l,2,2024-05-31_22h23.29.001,face trait task,2021.2.3,MacIntel,60.24096386,120532,,,,,,,
,,,,,,6.948489583,4.3272,space,0.4073,0,45,45,1,1,2,image/2.jpg,0,0,,R_3hlnjdAbx50vJ5l,2,2024-05-31_22h23.29.001,face trait task,2021.2.3,MacIntel,60.24096386,120532,,,,,,,
,,,,,,4.96671875,2.5607,space,0.3708,0,46,46,27,1,28,image/28.jpg,0,0,,R_3hlnjdAbx50vJ5l,2,2024-05-31_22h23.29.001,face trait task,2021.2.3,MacIntel,60.24096386,120532,,,,,,,
,,,,,,6.970546875,4.9628,space,0.2838,0,47,47,45,1,46,image/46.jpg,0,0,,R_3hlnjdAbx50vJ5l,2,2024-05-31_22h23.29.001,face trait task,2021.2.3,MacIntel,60.24096386,120532,,,,,,,
,,,,,,3.738932292,4.5547,space,1.326,0,48,48,25,1,26,image/26.jpg,0,0,,R_3hlnjdAbx50vJ5l,2,2024-05-31_22h23.29.001,face trait task,2021.2.3,MacIntel,60.24096386,120532,,,,,,,
,,,,,,5.593072917,1.7614,space,0.4124,0,49,49,17,1,18,image/18.jpg,0,0,,R_3hlnjdAbx50vJ5l,2,2024-05-31_22h23.29.001,face trait task,2021.2.3,MacIntel,60.24096386,120532,,,,,,,
,,,,,,6.604192708,1.2172,space,0.5523,0,50,50,26,1,27,image/27.jpg,0,0,,R_3hlnjdAbx50vJ5l,2,2024-05-31_22h23.29.001,face trait task,2021.2.3,MacIntel,60.24096386,120532,,,,,,,
,,,,,,3.519713542,1.4484,space,0.3471,0,51,51,7,1,8,image/8.jpg,0,0,,R_3hlnjdAbx50vJ5l,2,2024-05-31_22h23.29.001,face trait task,2021.2.3,MacIntel,60.24096386,120532,,,,,,,
,,,,,,2.699791667,1.5871,space,0.2732,0,52,52,20,1,21,image/21.jpg,0,0,,R_3hlnjdAbx50vJ5l,2,2024-05-31_22h23.29.001,face trait task,2021.2.3,MacIntel,60.24096386,120532,,,,,,,
,,,,,,,,,,,,,,,,,,,,R_3hlnjdAbx50vJ5l,2,2024-05-31_22h23.29.001,face trait task,2021.2.3,MacIntel,60.24096386,120532,0,1,1,0,1,0,critical.png
,,,,,trustworthy,6.924140625,3.52,space,0.8674,0,0,0,35,1,36,image/36.jpg,0,0,,R_3hlnjdAbx50vJ5l,2,2024-05-31_22h23.29.001,face trait task,2021.2.3,MacIntel,60.24096386,120532,,,,,,,
,,,,,,3.123385417,2.5873,space,0.4743,0,1,1,3,1,4,image/4.jpg,0,0,,R_3hlnjdAbx50vJ5l,2,2024-05-31_22h23.29.001,face trait task,2021.2.3,MacIntel,60.24096386,120532,,,,,,,
,,,,,,1.004427083,2.3982,space,0.5383,0,2,2,49,1,50,image/50.jpg,0,0,,R_3hlnjdAbx50vJ5l,2,2024-05-31_22h23.29.001,face trait task,2021.2.3,MacIntel,60.24096386,120532,,,,,,,
,,,,,,5.955651042,2.0989,space,0.4842,0,3,3,22,1,23,image/23.jpg,0,0,,R_3hlnjdAbx50vJ5l,2,2024-05-31_22h23.29.001,face trait task,2021.2.3,MacIntel,60.24096386,120532,,,,,,,
,,,,,,5.443307292,2.2218,space,0.389,0,4,4,15,1,16,image/16.jpg,0,0,,R_3hlnjdAbx50vJ5l,2,2024-05-31_22h23.29.001,face trait task,2021.2.3,MacIntel,60.24096386,120532,,,,,,,
,,,,,,1.591979167,2.0533,space,0.364,0,5,5,1,1,2,image/2.jpg,0,0,,R_3hlnjdAbx50vJ5l,2,2024-05-31_22h23.29.001,face trait task,2021.2.3,MacIntel,60.24096386,120532,,,,,,,
,,,,,,6.935729167,3.4642,space,0.9104,0,6,6,50,1,60,image/fill_img.png,1,7,Please move the slider all the way to the RIGHT to show that you are paying attention.,R_3hlnjdAbx50vJ5l,2,2024-05-31_22h23.29.001,face trait task,2021.2.3,MacIntel,60.24096386,120532,,,,,,,
,,,,,,1.346848958,2.4515,space,0.614,0,7,7,4,1,5,image/5.jpg,0,0,,R_3hlnjdAbx50vJ5l,2,2024-05-31_22h23.29.001,face trait task,2021.2.3,MacIntel,60.24096386,120532,,,,,,,
,,,,,,6.25640625,1.9083,space,0.2437,0,8,8,12,1,13,image/13.jpg,0,0,,R_3hlnjdAbx50vJ5l,2,2024-05-31_22h23.29.001,face trait task,2021.2.3,MacIntel,60.24096386,120532,,,,,,,
,,,,,,4.843645833,1.6607,space,0.3791,0,9,9,0,1,1,image/1.jpg,0,0,,R_3hlnjdAbx50vJ5l,2,2024-05-31_22h23.29.001,face trait task,2021.2.3,MacIntel,60.24096386,120532,,,,,,,
,,,,,,3.698411458,1.8991,space,0.2763,0,10,10,27,1,28,image/28.jpg,0,0,,R_3hlnjdAbx50vJ5l,2,2024-05-31_22h23.29.001,face trait task,2021.2.3,MacIntel,60.24096386,120532,,,,,,,
,,,,,,3.241927083,1.5285,space,0.3458,0,11,11,37,1,38,image/38.jpg,0,0,,R_3hlnjdAbx50vJ5l,2,2024-05-31_22h23.29.001,face trait task,2021.2.3,MacIntel,60.24096386,120532,,,,,,,
,,,,,,6.808567708,1.7442,space,0.3585,0,12,12,19,1,20,image/20.jpg,0,0,,R_3hlnjdAbx50vJ5l,2,2024-05-31_22h23.29.001,face trait task,2021.2.3,MacIntel,60.24096386,120532,,,,,,,
,,,,,,3.670416667,2.0403,space,0.2914,0,13,13,11,1,12,image/12.jpg,0,0,,R_3hlnjdAbx50vJ5l,2,2024-05-31_22h23.29.001,face trait task,2021.2.3,MacIntel,60.24096386,120532,,,,,,,
,,,,,,2.771302083,2.5729,space,1.615,0,14,14,40,1,41,image/41.jpg,0,0,,R_3hlnjdAbx50vJ5l,2,2024-05-31_22h23.29.001,face trait task,2021.2.3,MacIntel,60.24096386,120532,,,,,,,
,,,,,,6.473802083,3.5868,space,0.3122,0,15,15,2,1,3,image/3.jpg,0,0,,R_3hlnjdAbx50vJ5l,2,2024-05-31_22h23.29.001,face trait task,2021.2.3,MacIntel,60.24096386,120532,,,,,,,
,,,,,,4.701927083,1.8055,space,0.3045,0,16,16,5,1,6,image/6.jpg,0,0,,R_3hlnjdAbx50vJ5l,2,2024-05-31_22h23.29.001,face trait task,2021.2.3,MacIntel,60.24096386,120532,,,,,,,
,,,,,,3.986380208,1.5561,space,0.3835,0,17,17,29,1,30,image/30.jpg,0,0,,R_3hlnjdAbx50vJ5l,2,2024-05-31_22h23.29.001,face trait task,2021.2.3,MacIntel,60.24096386,120532,,,,,,,
,,,,,,3.986380208,1.3087,space,1.2645,0,18,18,46,1,47,image/47.jpg,0,0,,R_3hlnjdAbx50vJ5l,2,2024-05-31_22h23.29.001,face trait task,2021.2.3,MacIntel,60.24096386,120532,,,,,,,
,,,,,,4.696041667,2.2749,space,0.364,0,19,19,26,1,27,image/27.jpg,0,0,,R_3hlnjdAbx50vJ5l,2,2024-05-31_22h23.29.001,face trait task,2021.2.3,MacIntel,60.24096386,120532,,,,,,,
,,,,,,2.579322917,1.8729,space,0.3174,0,20,20,39,1,40,image/40.jpg,0,0,,R_3hlnjdAbx50vJ5l,2,2024-05-31_22h23.29.001,face trait task,2021.2.3,MacIntel,60.24096386,120532,,,,,,,
,,,,,,1.794322917,2.5192,space,0.2788,0,21,21,9,1,10,image/10.jpg,0,0,,R_3hlnjdAbx50vJ5l,2,2024-05-31_22h23.29.001,face trait task,2021.2.3,MacIntel,60.24096386,120532,,,,,,,
,,,,,,5.119036458,1.981,space,0.5436,0,22,22,14,1,15,image/15.jpg,0,0,,R_3hlnjdAbx50vJ5l,2,2024-05-31_22h23.29.001,face trait task,2021.2.3,MacIntel,60.24096386,120532,,,,,,,
,,,,,,4.356796875,1.9878,space,0.3867,0,23,23,20,1,21,image/21.jpg,0,0,,R_3hlnjdAbx50vJ5l,2,2024-05-31_22h23.29.001,face trait task,2021.2.3,MacIntel,60.24096386,120532,,,,,,,
,,,,,,4.026171875,1.7603,space,0.4264,0,24,24,41,1,42,image/42.jpg,0,0,,R_3hlnjdAbx50vJ5l,2,2024-05-31_22h23.29.001,face trait task,2021.2.3,MacIntel,60.24096386,120532,,,,,,,
,,,,,,5.367317708,3.0508,space,0.4073,0,25,25,25,1,26,image/26.jpg,0,0,,R_3hlnjdAbx50vJ5l,2,2024-05-31_22h23.29.001,face trait task,2021.2.3,MacIntel,60.24096386,120532,,,,,,,
,,,,,,3.563880208,1.7339,space,0.3406,0,26,26,32,1,33,image/33.jpg,0,0,,R_3hlnjdAbx50vJ5l,2,2024-05-31_22h23.29.001,face trait task,2021.2.3,MacIntel,60.24096386,120532,,,,,,,
,,,,,,1.390755208,3.0559,space,0.5069,0,27,27,28,1,29,image/29.jpg,0,0,,R_3hlnjdAbx50vJ5l,2,2024-05-31_22h23.29.001,face trait task,2021.2.3,MacIntel,60.24096386,120532,,,,,,,
,,,,,,5.451041667,2.5246,space,0.3263,0,28,28,23,1,24,image/24.jpg,0,0,,R_3hlnjdAbx50vJ5l,2,2024-05-31_22h23.29.001,face trait task,2021.2.3,MacIntel,60.24096386,120532,,,,,,,
,,,,,,5.316744792,1.4693,space,0.3211,0,29,29,38,1,39,image/39.jpg,0,0,,R_3hlnjdAbx50vJ5l,2,2024-05-31_22h23.29.001,face trait task,2021.2.3,MacIntel,60.24096386,120532,,,,,,,
,,,,,,1.039244792,2.1693,space,0.3435,0,30,30,8,1,9,image/9.jpg,0,0,,R_3hlnjdAbx50vJ5l,2,2024-05-31_22h23.29.001,face trait task,2021.2.3,MacIntel,60.24096386,120532,,,,,,,
,,,,,,1.039244792,1.2583,space,0.507,0,31,31,45,1,46,image/46.jpg,0,0,,R_3hlnjdAbx50vJ5l,2,2024-05-31_22h23.29.001,face trait task,2021.2.3,MacIntel,60.24096386,120532,,,,,,,
,,,,,,5.768828125,2.1851,space,0.4305,0,32,32,48,1,49,image/49.jpg,0,0,,R_3hlnjdAbx50vJ5l,2,2024-05-31_22h23.29.001,face trait task,2021.2.3,MacIntel,60.24096386,120532,,,,,,,
,,,,,,1.010416667,2.2104,space,0.335,0,33,33,52,1,51,image/fill_img.png,1,1,Please move the slider all the way to the LEFT to show that you are paying attention.,R_3hlnjdAbx50vJ5l,2,2024-05-31_22h23.29.001,face trait task,2021.2.3,MacIntel,60.24096386,120532,,,,,,,
,,,,,,3.683333333,1.5576,space,0.2566,0,34,34,31,1,32,image/32.jpg,0,0,,R_3hlnjdAbx50vJ5l,2,2024-05-31_22h23.29.001,face trait task,2021.2.3,MacIntel,60.24096386,120532,,,,,,,
,,,,,,5.089192708,1.8465,space,0.3005,0,35,35,10,1,11,image/11.jpg,0,0,,R_3hlnjdAbx50vJ5l,2,2024-05-31_22h23.29.001,face trait task,2021.2.3,MacIntel,60.24096386,120532,,,,,,,
,,,,,,3.866197917,2.6308,space,1.3106,0,36,36,44,1,45,image/45.jpg,0,0,,R_3hlnjdAbx50vJ5l,2,2024-05-31_22h23.29.001,face trait task,2021.2.3,MacIntel,60.24096386,120532,,,,,,,
,,,,,,2.213463542,2.6701,space,0.6148,0,37,37,47,1,48,image/48.jpg,0,0,,R_3hlnjdAbx50vJ5l,2,2024-05-31_22h23.29.001,face trait task,2021.2.3,MacIntel,60.24096386,120532,,,,,,,
,,,,,,1.797447917,1.2864,space,0.5085,0,38,38,17,1,18,image/18.jpg,0,0,,R_3hlnjdAbx50vJ5l,2,2024-05-31_22h23.29.001,face trait task,2021.2.3,MacIntel,60.24096386,120532,,,,,,,
,,,,,,1.684166667,1.6014,space,0.3204,0,39,39,36,1,37,image/37.jpg,0,0,,R_3hlnjdAbx50vJ5l,2,2024-05-31_22h23.29.001,face trait task,2021.2.3,MacIntel,60.24096386,120532,,,,,,,
,,,,,,5.652395833,3.1514,space,0.3407,0,40,40,13,1,14,image/14.jpg,0,0,,R_3hlnjdAbx50vJ5l,2,2024-05-31_22h23.29.001,face trait task,2021.2.3,MacIntel,60.24096386,120532,,,,,,,
,,,,,,6.988645833,2.3608,space,0.446,0,41,41,30,1,31,image/31.jpg,0,0,,R_3hlnjdAbx50vJ5l,2,2024-05-31_22h23.29.001,face trait task,2021.2.3,MacIntel,60.24096386,120532,,,,,,,
,,,,,,3.556901042,2.3198,space,0.2992,0,42,42,21,1,22,image/22.jpg,0,0,,R_3hlnjdAbx50vJ5l,2,2024-05-31_22h23.29.001,face trait task,2021.2.3,MacIntel,60.24096386,120532,,,,,,,
,,,,,,4.003333333,1.8123,space,0.2681,0,43,43,6,1,7,image/7.jpg,0,0,,R_3hlnjdAbx50vJ5l,2,2024-05-31_22h23.29.001,face trait task,2021.2.3,MacIntel,60.24096386,120532,,,,,,,
,,,,,,4.003333333,1.3212,space,0.3589,0,44,44,24,1,25,image/25.jpg,0,0,,R_3hlnjdAbx50vJ5l,2,2024-05-31_22h23.29.001,face trait task,2021.2.3,MacIntel,60.24096386,120532,,,,,,,
,,,,,,1.018541667,3.0232,space,0.9196,0,45,45,51,1,54,image/fill_img.png,1,1,Please move the slider all the way to the LEFT to show that you are paying attention.,R_3hlnjdAbx50vJ5l,2,2024-05-31_22h23.29.001,face trait task,2021.2.3,MacIntel,60.24096386,120532,,,,,,,
,,,,,,1.675677083,1.8846,space,0.1719,0,46,46,7,1,8,image/8.jpg,0,0,,R_3hlnjdAbx50vJ5l,2,2024-05-31_22h23.29.001,face trait task,2021.2.3,MacIntel,60.24096386,120532,,,,,,,
,,,,,,5.5846875,1.2916,space,0.3853,0,47,47,16,1,17,image/17.jpg,0,0,,R_3hlnjdAbx50vJ5l,2,2024-05-31_22h23.29.001,face trait task,2021.2.3,MacIntel,60.24096386,120532,,,,,,,
,,,,,,1.989557292,3.0113,space,0.4561,0,48,48,33,1,34,image/34.jpg,0,0,,R_3hlnjdAbx50vJ5l,2,2024-05-31_22h23.29.001,face trait task,2021.2.3,MacIntel,60.24096386,120532,,,,,,,
,,,,,,1.994322917,1.3203,space,0.3665,0,49,49,42,1,43,image/43.jpg,0,0,,R_3hlnjdAbx50vJ5l,2,2024-05-31_22h23.29.001,face trait task,2021.2.3,MacIntel,60.24096386,120532,,,,,,,
,,,,,,3.987161458,2.6771,space,0.3502,0,50,50,34,1,35,image/35.jpg,0,0,,R_3hlnjdAbx50vJ5l,2,2024-05-31_22h23.29.001,face trait task,2021.2.3,MacIntel,60.24096386,120532,,,,,,,
,,,,,,4.336744792,1.73,space,0.3847,0,51,51,18,1,19,image/19.jpg,0,0,,R_3hlnjdAbx50vJ5l,2,2024-05-31_22h23.29.001,face trait task,2021.2.3,MacIntel,60.24096386,120532,,,,,,,
,,,,,,5.810729167,1.9503,space,0.4871,0,52,52,43,1,44,image/44.jpg,0,0,,R_3hlnjdAbx50vJ5l,2,2024-05-31_22h23.29.001,face trait task,2021.2.3,MacIntel,60.24096386,120532,,,,,,,
,,,,,,,,,,,,,,,,,,,,R_3hlnjdAbx50vJ5l,2,2024-05-31_22h23.29.001,face trait task,2021.2.3,MacIntel,60.24096386,120532,0,2,2,2,1,2,trustworthy.png
,,,,,competent,4.02375,4.2643,space,2.4981,0,0,0,34,1,35,image/35.jpg,0,0,,R_3hlnjdAbx50vJ5l,2,2024-05-31_22h23.29.001,face trait task,2021.2.3,MacIntel,60.24096386,120532,,,,,,,
,,,,,,6.3940625,3.456,space,0.2961,0,1,1,4,1,5,image/5.jpg,0,0,,R_3hlnjdAbx50vJ5l,2,2024-05-31_22h23.29.001,face trait task,2021.2.3,MacIntel,60.24096386,120532,,,,,,,
,,,,,,6.3940625,4.5019,space,0.7012,0,2,2,13,1,14,image/14.jpg,0,0,,R_3hlnjdAbx50vJ5l,2,2024-05-31_22h23.29.001,face trait task,2021.2.3,MacIntel,60.24096386,120532,,,,,,,
,,,,,,3.6296875,1.5475,space,0.3499,0,3,3,32,1,33,image/33.jpg,0,0,,R_3hlnjdAbx50vJ5l,2,2024-05-31_22h23.29.001,face trait task,2021.2.3,MacIntel,60.24096386,120532,,,,,,,
,,,,,,1.004921875,4.0935,space,0.3991,0,4,4,52,1,51,image/fill_img.png,1,1,Please move the slider all the way to the LEFT to show that you are paying attention.,R_3hlnjdAbx50vJ5l,2,2024-05-31_22h23.29.001,face trait task,2021.2.3,MacIntel,60.24096386,120532,,,,,,,
,,,,,,5.551588542,3.8746,space,0.4667,0,5,5,33,1,34,image/34.jpg,0,0,,R_3hlnjdAbx50vJ5l,2,2024-05-31_22h23.29.001,face trait task,2021.2.3,MacIntel,60.24096386,120532,,,,,,,
,,,,,,2.600208333,2.0849,space,0.6156,0,6,6,49,1,50,image/50.jpg,0,0,,R_3hlnjdAbx50vJ5l,2,2024-05-31_22h23.29.001,face trait task,2021.2.3,MacIntel,60.24096386,120532,,,,,,,
,,,,,,6.941354167,3.2506,space,0.4848,0,7,7,39,1,40,image/40.jpg,0,0,,R_3hlnjdAbx50vJ5l,2,2024-05-31_22h23.29.001,face trait task,2021.2.3,MacIntel,60.24096386,120532,,,,,,,
,,,,,,2.874609375,1.8847,space,0.3609,0,8,8,8,1,9,image/9.jpg,0,0,,R_3hlnjdAbx50vJ5l,2,2024-05-31_22h23.29.001,face trait task,2021.2.3,MacIntel,60.24096386,120532,,,,,,,
,,,,,,5.204505208,1.7362,space,0.4057,0,9,9,18,1,19,image/19.jpg,0,0,,R_3hlnjdAbx50vJ5l,2,2024-05-31_22h23.29.001,face trait task,2021.2.3,MacIntel,60.24096386,120532,,,,,,,
,,,,,,3.96984375,2.1944,space,0.2804,0,10,10,9,1,10,image/10.jpg,0,0,,R_3hlnjdAbx50vJ5l,2,2024-05-31_22h23.29.001,face trait task,2021.2.3,MacIntel,60.24096386,120532,,,,,,,
,,,,,,1.07546875,2.4969,space,0.3266,0,11,11,28,1,29,image/29.jpg,0,0,,R_3hlnjdAbx50vJ5l,2,2024-05-31_22h23.29.001,face trait task,2021.2.3,MacIntel,60.24096386,120532,,,,,,,
,,,,,,3.5821875,1.6788,space,0.5784,0,12,12,7,1,8,image/8.jpg,0,0,,R_3hlnjdAbx50vJ5l,2,2024-05-31_22h23.29.001,face trait task,2021.2.3,MacIntel,60.24096386,120532,,,,,,,
,,,,,,2.1159375,1.7018,space,0.3596,0,13,13,40,1,41,image/41.jpg,0,0,,R_3hlnjdAbx50vJ5l,2,2024-05-31_22h23.29.001,face trait task,2021.2.3,MacIntel,60.24096386,120532,,,,,,,
,,,,,,1.821666667,2.633,space,1.1722,0,14,14,0,1,1,image/1.jpg,0,0,,R_3hlnjdAbx50vJ5l,2,2024-05-31_22h23.29.001,face trait task,2021.2.3,MacIntel,60.24096386,120532,,,,,,,
,,,,,,5.6240625,2.2937,space,0.2848,0,15,15,11,1,12,image/12.jpg,0,0,,R_3hlnjdAbx50vJ5l,2,2024-05-31_22h23.29.001,face trait task,2021.2.3,MacIntel,60.24096386,120532,,,,,,,
,,,,,,4.504322917,1.7192,space,0.2669,0,16,16,23,1,24,image/24.jpg,0,0,,R_3hlnjdAbx50vJ5l,2,2024-05-31_22h23.29.001,face trait task,2021.2.3,MacIntel,60.24096386,120532,,,,,,,
,,,,,,6.553880208,1.9487,space,0.3568,0,17,17,25,1,26,image/26.jpg,0,0,,R_3hlnjdAbx50vJ5l,2,2024-05-31_22h23.29.001,face trait task,2021.2.3,MacIntel,60.24096386,120532,,,,,,,
,,,,,,5.671901042,2.1282,space,0.331,0,18,18,22,1,23,image/23.jpg,0,0,,R_3hlnjdAbx50vJ5l,2,2024-05-31_22h23.29.001,face trait task,2021.2.3,MacIntel,60.24096386,120532,,,,,,,
,,,,,,1.368229167,2.3265,space,0.3163,0,19,19,45,1,46,image/46.jpg,0,0,,R_3hlnjdAbx50vJ5l,2,2024-05-31_22h23.29.001,face trait task,2021.2.3,MacIntel,60.24096386,120532,,,,,,,
,,,,,,4.202135417,2.1538,space,0.3935,0,20,20,37,1,38,image/38.jpg,0,0,,R_3hlnjdAbx50vJ5l,2,2024-05-31_22h23.29.001,face trait task,2021.2.3,MacIntel,60.24096386,120532,,,,,,,
,,,,,,3.312578125,1.8689,space,0.3513,0,21,21,47,1,48,image/48.jpg,0,0,,R_3hlnjdAbx50vJ5l,2,2024-05-31_22h23.29.001,face trait task,2021.2.3,MacIntel,60.24096386,120532,,,,,,,
,,,,,,5.976197917,2.3494,space,0.3265,0,22,22,1,1,2,image/2.jpg,0,0,,R_3hlnjdAbx50vJ5l,2,2024-05-31_22h23.29.001,face trait task,2021.2.3,MacIntel,60.24096386,120532,,,,,,,
,,,,,,1.01765625,2.3936,space,0.3387,0,23,23,51,1,54,image/fill_img.png,1,1,Please move the slider all the way to the LEFT to show that you are paying attention.,R_3hlnjdAbx50vJ5l,2,2024-05-31_22h23.29.001,face trait task,2021.2.3,MacIntel,60.24096386,120532,,,,,,,
,,,,,,5.303072917,1.5388,space,0.2545,0,24,24,12,1,13,image/13.jpg,0,0,,R_3hlnjdAbx50vJ5l,2,2024-05-31_22h23.29.001,face trait task,2021.2.3,MacIntel,60.24096386,120532,,,,,,,
,,,,,,3.95671875,1.296,space,0.3368,0,25,25,10,1,11,image/11.jpg,0,0,,R_3hlnjdAbx50vJ5l,2,2024-05-31_22h23.29.001,face trait task,2021.2.3,MacIntel,60.24096386,120532,,,,,,,
,,,,,,2.794635417,1.4996,space,0.3194,0,26,26,31,1,32,image/32.jpg,0,0,,R_3hlnjdAbx50vJ5l,2,2024-05-31_22h23.29.001,face trait task,2021.2.3,MacIntel,60.24096386,120532,,,,,,,
,,,,,,6.633125,1.1712,space,0.3023,0,27,27,43,1,44,image/44.jpg,0,0,,R_3hlnjdAbx50vJ5l,2,2024-05-31_22h23.29.001,face trait task,2021.2.3,MacIntel,60.24096386,120532,,,,,,,
,,,,,,5.690442708,1.177,space,0.4995,0,28,28,16,1,17,image/17.jpg,0,0,,R_3hlnjdAbx50vJ5l,2,2024-05-31_22h23.29.001,face trait task,2021.2.3,MacIntel,60.24096386,120532,,,,,,,
,,,,,,1.198932292,1.9865,space,0.2757,0,29,29,38,1,39,image/39.jpg,0,0,,R_3hlnjdAbx50vJ5l,2,2024-05-31_22h23.29.001,face trait task,2021.2.3,MacIntel,60.24096386,120532,,,,,,,
,,,,,,3.277604167,1.489,space,0.2621,0,30,30,26,1,27,image/27.jpg,0,0,,R_3hlnjdAbx50vJ5l,2,2024-05-31_22h23.29.001,face trait task,2021.2.3,MacIntel,60.24096386,120532,,,,,,,
,,,,,,4.679010417,1.3015,space,0.3576,0,31,31,19,1,20,image/20.jpg,0,0,,R_3hlnjdAbx50vJ5l,2,2024-05-31_22h23.29.001,face trait task,2021.2.3,MacIntel,60.24096386,120532,,,,,,,
,,,,,,6.957890625,2.2063,space,0.3231,0,32,32,30,1,31,image/31.jpg,0,0,,R_3hlnjdAbx50vJ5l,2,2024-05-31_22h23.29.001,face trait task,2021.2.3,MacIntel,60.24096386,120532,,,,,,,
,,,,,,6.957890625,1.6614,space,0.4176,0,33,33,17,1,18,image/18.jpg,0,0,,R_3hlnjdAbx50vJ5l,2,2024-05-31_22h23.29.001,face trait task,2021.2.3,MacIntel,60.24096386,120532,,,,,,,
,,,,,,4.9965625,2.2677,space,0.3064,0,34,34,5,1,6,image/6.jpg,0,0,,R_3hlnjdAbx50vJ5l,2,2024-05-31_22h23.29.001,face trait task,2021.2.3,MacIntel,60.24096386,120532,,,,,,,
,,,,,,4.558151042,0.9772,space,0.4702,0,35,35,6,1,7,image/7.jpg,0,0,,R_3hlnjdAbx50vJ5l,2,2024-05-31_22h23.29.001,face trait task,2021.2.3,MacIntel,60.24096386,120532,,,,,,,
,,,,,,3.794947917,1.1349,space,0.3632,0,36,36,46,1,47,image/47.jpg,0,0,,R_3hlnjdAbx50vJ5l,2,2024-05-31_22h23.29.001,face trait task,2021.2.3,MacIntel,60.24096386,120532,,,,,,,
,,,,,,2.298098958,1.0361,space,0.3769,0,37,37,15,1,16,image/16.jpg,0,0,,R_3hlnjdAbx50vJ5l,2,2024-05-31_22h23.29.001,face trait task,2021.2.3,MacIntel,60.24096386,120532,,,,,,,
,,,,,,5.309739583,1.5702,space,0.2873,0,38,38,44,1,45,image/45.jpg,0,0,,R_3hlnjdAbx50vJ5l,2,2024-05-31_22h23.29.001,face trait task,2021.2.3,MacIntel,60.24096386,120532,,,,,,,
,,,,,,6.417083333,1.3721,space,0.7444,0,39,39,24,1,25,image/25.jpg,0,0,,R_3hlnjdAbx50vJ5l,2,2024-05-31_22h23.29.001,face trait task,2021.2.3,MacIntel,60.24096386,120532,,,,,,,
,,,,,,1.412109375,1.319,space,0.3404,0,40,40,29,1,30,image/30.jpg,0,0,,R_3hlnjdAbx50vJ5l,2,2024-05-31_22h23.29.001,face trait task,2021.2.3,MacIntel,60.24096386,120532,,,,,,,
,,,,,,6.99265625,2.6383,space,0.6807,0,41,41,50,1,60,image/fill_img.png,1,7,Please move the slider all the way to the RIGHT to show that you are paying attention.,R_3hlnjdAbx50vJ5l,2,2024-05-31_22h23.29.001,face trait task,2021.2.3,MacIntel,60.24096386,120532,,,,,,,
,,,,,,5.335286458,1.7362,space,0.2943,0,42,42,3,1,4,image/4.jpg,0,0,,R_3hlnjdAbx50vJ5l,2,2024-05-31_22h23.29.001,face trait task,2021.2.3,MacIntel,60.24096386,120532,,,,,,,
,,,,,,5.923229167,1.2777,space,0.4598,0,43,43,14,1,15,image/15.jpg,0,0,,R_3hlnjdAbx50vJ5l,2,2024-05-31_22h23.29.001,face trait task,2021.2.3,MacIntel,60.24096386,120532,,,,,,,
,,,,,,6.975885417,2.835,space,1.9093,0,44,44,2,1,3,image/3.jpg,0,0,,R_3hlnjdAbx50vJ5l,2,2024-05-31_22h23.29.001,face trait task,2021.2.3,MacIntel,60.24096386,120532,,,,,,,
,,,,,,6.949791667,2.8841,space,0.4661,0,45,45,35,1,36,image/36.jpg,0,0,,R_3hlnjdAbx50vJ5l,2,2024-05-31_22h23.29.001,face trait task,2021.2.3,MacIntel,60.24096386,120532,,,,,,,
,,,,,,2.297317708,1.7553,space,0.4694,0,46,46,42,1,43,image/43.jpg,0,0,,R_3hlnjdAbx50vJ5l,2,2024-05-31_22h23.29.001,face trait task,2021.2.3,MacIntel,60.24096386,120532,,,,,,,
,,,,,,3.10921875,2.1657,space,0.6007,0,47,47,48,1,49,image/49.jpg,0,0,,R_3hlnjdAbx50vJ5l,2,2024-05-31_22h23.29.001,face trait task,2021.2.3,MacIntel,60.24096386,120532,,,,,,,
,,,,,,4.008776042,1.8444,space,0.2922,0,48,48,41,1,42,image/42.jpg,0,0,,R_3hlnjdAbx50vJ5l,2,2024-05-31_22h23.29.001,face trait task,2021.2.3,MacIntel,60.24096386,120532,,,,,,,
,,,,,,3.230807292,2.5287,space,0.3782,0,49,49,36,1,37,image/37.jpg,0,0,,R_3hlnjdAbx50vJ5l,2,2024-05-31_22h23.29.001,face trait task,2021.2.3,MacIntel,60.24096386,120532,,,,,,,
,,,,,,4.001171875,2.4238,space,0.2346,0,50,50,27,1,28,image/28.jpg,0,0,,R_3hlnjdAbx50vJ5l,2,2024-05-31_22h23.29.001,face trait task,2021.2.3,MacIntel,60.24096386,120532,,,,,,,
,,,,,,5.364322917,1.4965,space,0.4165,0,51,51,20,1,21,image/21.jpg,0,0,,R_3hlnjdAbx50vJ5l,2,2024-05-31_22h23.29.001,face trait task,2021.2.3,MacIntel,60.24096386,120532,,,,,,,
,,,,,,5.756041667,1.4211,space,0.5126,0,52,52,21,1,22,image/22.jpg,0,0,,R_3hlnjdAbx50vJ5l,2,2024-05-31_22h23.29.001,face trait task,2021.2.3,MacIntel,60.24096386,120532,,,,,,,
,,,,,,,,,,,,,,,,,,,,R_3hlnjdAbx50vJ5l,2,2024-05-31_22h23.29.001,face trait task,2021.2.3,MacIntel,60.24096386,120532,0,3,3,1,1,1,competent.png
