choose_trial,key_resp.keys,key_resp.rt,key_resp_4.keys,key_resp_4.rt,session_trait,slider_face_judge.response,slider_face_judge.rt,key_resp_3.keys,key_resp_3.rt,face_loop.thisRepN,face_loop.thisTrialN,face_loop.thisN,face_loop.thisIndex,face_loop.ran,face_serial,image_name,isCheck,answer,check_question,participant,session,date,expName,psychopyVersion,OS,frameRate,SONAid,session.thisRepN,session.thisTrialN,session.thisN,session.thisIndex,session.ran,session_serial,slider_judge_img
"[0,1,2,3,4,5,6,7,8,9,10,11,12,13,14,15,16,17,18,19,20,21,22,23,24,25,26,27,28,29,30,31,32,33,34,35,36,37,38,39,40,41,42,43,44,45,46,47,48,49,56,55,52]",space,10.823,space,32.838,friendly,2.993333333,7.229,space,2.756,0,0,0,10,1,11,image/11.jpg,0,0,,R_3HGNQtHAhV6oD0K,2,2024-05-30_16h39.51.707,face trait task,2021.2.3,MacIntel,30.3030303,120486,,,,,,,
,,,,,,6.006666667,3.79,space,1.073,0,1,1,40,1,41,image/41.jpg,0,0,,R_3HGNQtHAhV6oD0K,2,2024-05-30_16h39.51.707,face trait task,2021.2.3,MacIntel,30.3030303,120486,,,,,,,
,,,,,,6.006666667,2.421,space,1.554,0,2,2,43,1,44,image/44.jpg,0,0,,R_3HGNQtHAhV6oD0K,2,2024-05-30_16h39.51.707,face trait task,2021.2.3,MacIntel,30.3030303,120486,,,,,,,
,,,,,,1.993333333,1.97,space,0.475,0,3,3,16,1,17,image/17.jpg,0,0,,R_3HGNQtHAhV6oD0K,2,2024-05-30_16h39.51.707,face trait task,2021.2.3,MacIntel,30.3030303,120486,,,,,,,
,,,,,,4.02,3.286,space,0.359,0,4,4,47,1,48,image/48.jpg,0,0,,R_3HGNQtHAhV6oD0K,2,2024-05-30_16h39.51.707,face trait task,2021.2.3,MacIntel,30.3030303,120486,,,,,,,
,,,,,,6.98,2.354,space,0.556,0,5,5,48,1,49,image/49.jpg,0,0,,R_3HGNQtHAhV6oD0K,2,2024-05-30_16h39.51.707,face trait task,2021.2.3,MacIntel,30.3030303,120486,,,,,,,
,,,,,,3.98,2.136,space,0.378,0,6,6,46,1,47,image/47.jpg,0,0,,R_3HGNQtHAhV6oD0K,2,2024-05-30_16h39.51.707,face trait task,2021.2.3,MacIntel,30.3030303,120486,,,,,,,
,,,,,,6.993333333,7.298,space,3.056,0,7,7,51,1,56,image/fill_img.png,1,7,Please move the slider all the way to the RIGHT to show that you are paying attention.,R_3HGNQtHAhV6oD0K,2,2024-05-30_16h39.51.707,face trait task,2021.2.3,MacIntel,30.3030303,120486,,,,,,,
,,,,,,5,2.853,space,0.755,0,8,8,34,1,35,image/35.jpg,0,0,,R_3HGNQtHAhV6oD0K,2,2024-05-30_16h39.51.707,face trait task,2021.2.3,MacIntel,30.3030303,120486,,,,,,,
,,,,,,3.933333333,2.136,space,0.655,0,9,9,7,1,8,image/8.jpg,0,0,,R_3HGNQtHAhV6oD0K,2,2024-05-30_16h39.51.707,face trait task,2021.2.3,MacIntel,30.3030303,120486,,,,,,,
,,,,,,2.98,2.169,space,0.423,0,10,10,5,1,6,image/6.jpg,0,0,,R_3HGNQtHAhV6oD0K,2,2024-05-30_16h39.51.707,face trait task,2021.2.3,MacIntel,30.3030303,120486,,,,,,,
,,,,,,1.966666667,1.869,space,1.035,0,11,11,36,1,37,image/37.jpg,0,0,,R_3HGNQtHAhV6oD0K,2,2024-05-30_16h39.51.707,face trait task,2021.2.3,MacIntel,30.3030303,120486,,,,,,,
,,,,,,1.966666667,1.819,space,0.776,0,12,12,4,1,5,image/5.jpg,0,0,,R_3HGNQtHAhV6oD0K,2,2024-05-30_16h39.51.707,face trait task,2021.2.3,MacIntel,30.3030303,120486,,,,,,,
,,,,,,1.966666667,1.569,space,0.539,0,13,13,31,1,32,image/32.jpg,0,0,,R_3HGNQtHAhV6oD0K,2,2024-05-30_16h39.51.707,face trait task,2021.2.3,MacIntel,30.3030303,120486,,,,,,,
,,,,,,3.966666667,3.69,space,0.396,0,14,14,9,1,10,image/10.jpg,0,0,,R_3HGNQtHAhV6oD0K,2,2024-05-30_16h39.51.707,face trait task,2021.2.3,MacIntel,30.3030303,120486,,,,,,,
,,,,,,6.013333333,2.634,space,0.401,0,15,15,11,1,12,image/12.jpg,0,0,,R_3HGNQtHAhV6oD0K,2,2024-05-30_16h39.51.707,face trait task,2021.2.3,MacIntel,30.3030303,120486,,,,,,,
,,,,,,1.033333333,9.386,space,0.735,0,16,16,0,1,1,image/1.jpg,0,0,,R_3HGNQtHAhV6oD0K,2,2024-05-30_16h39.51.707,face trait task,2021.2.3,MacIntel,30.3030303,120486,,,,,,,
,,,,,,1.626666667,2.321,space,0.457,0,17,17,25,1,26,image/26.jpg,0,0,,R_3HGNQtHAhV6oD0K,2,2024-05-30_16h39.51.707,face trait task,2021.2.3,MacIntel,30.3030303,120486,,,,,,,
,,,,,,1.586666667,1.436,space,0.338,0,18,18,8,1,9,image/9.jpg,0,0,,R_3HGNQtHAhV6oD0K,2,2024-05-30_16h39.51.707,face trait task,2021.2.3,MacIntel,30.3030303,120486,,,,,,,
,,,,,,5.973333333,4.654,space,0.405,0,19,19,22,1,23,image/23.jpg,0,0,,R_3HGNQtHAhV6oD0K,2,2024-05-30_16h39.51.707,face trait task,2021.2.3,MacIntel,30.3030303,120486,,,,,,,
,,,,,,1.006666667,3.354,space,0.689,0,20,20,52,1,53,image/fill_img.png,1,1,Please move the slider all the way to the LEFT to show that you are paying attention.,R_3HGNQtHAhV6oD0K,2,2024-05-30_16h39.51.707,face trait task,2021.2.3,MacIntel,30.3030303,120486,,,,,,,
,,,,,,1.106666667,1.735,space,0.623,0,21,21,39,1,40,image/40.jpg,0,0,,R_3HGNQtHAhV6oD0K,2,2024-05-30_16h39.51.707,face trait task,2021.2.3,MacIntel,30.3030303,120486,,,,,,,
,,,,,,3.453333333,2.733,space,0.311,0,22,22,33,1,34,image/34.jpg,0,0,,R_3HGNQtHAhV6oD0K,2,2024-05-30_16h39.51.707,face trait task,2021.2.3,MacIntel,30.3030303,120486,,,,,,,
,,,,,,4.24,1.9,space,0.211,0,23,23,37,1,38,image/38.jpg,0,0,,R_3HGNQtHAhV6oD0K,2,2024-05-30_16h39.51.707,face trait task,2021.2.3,MacIntel,30.3030303,120486,,,,,,,
,,,,,,1.073333333,2.302,space,0.287,0,24,24,13,1,14,image/14.jpg,0,0,,R_3HGNQtHAhV6oD0K,2,2024-05-30_16h39.51.707,face trait task,2021.2.3,MacIntel,30.3030303,120486,,,,,,,
,,,,,,3.986666667,2.202,space,0.689,0,25,25,26,1,27,image/27.jpg,0,0,,R_3HGNQtHAhV6oD0K,2,2024-05-30_16h39.51.707,face trait task,2021.2.3,MacIntel,30.3030303,120486,,,,,,,
,,,,,,4.453333333,3.088,space,0.338,0,26,26,35,1,36,image/36.jpg,0,0,,R_3HGNQtHAhV6oD0K,2,2024-05-30_16h39.51.707,face trait task,2021.2.3,MacIntel,30.3030303,120486,,,,,,,
,,,,,,3.78,2.786,space,0.286,0,27,27,17,1,18,image/18.jpg,0,0,,R_3HGNQtHAhV6oD0K,2,2024-05-30_16h39.51.707,face trait task,2021.2.3,MacIntel,30.3030303,120486,,,,,,,
,,,,,,3.78,1.501,space,0.613,0,28,28,44,1,45,image/45.jpg,0,0,,R_3HGNQtHAhV6oD0K,2,2024-05-30_16h39.51.707,face trait task,2021.2.3,MacIntel,30.3030303,120486,,,,,,,
,,,,,,4.966666667,2.288,space,0.229,0,29,29,3,1,4,image/4.jpg,0,0,,R_3HGNQtHAhV6oD0K,2,2024-05-30_16h39.51.707,face trait task,2021.2.3,MacIntel,30.3030303,120486,,,,,,,
,,,,,,4,3.035,space,0.352,0,30,30,28,1,29,image/29.jpg,0,0,,R_3HGNQtHAhV6oD0K,2,2024-05-30_16h39.51.707,face trait task,2021.2.3,MacIntel,30.3030303,120486,,,,,,,
,,,,,,4.393333333,2.188,space,0.288,0,31,31,23,1,24,image/24.jpg,0,0,,R_3HGNQtHAhV6oD0K,2,2024-05-30_16h39.51.707,face trait task,2021.2.3,MacIntel,30.3030303,120486,,,,,,,
,,,,,,3.5,1.935,space,0.267,0,32,32,14,1,15,image/15.jpg,0,0,,R_3HGNQtHAhV6oD0K,2,2024-05-30_16h39.51.707,face trait task,2021.2.3,MacIntel,30.3030303,120486,,,,,,,
,,,,,,1.646666667,2.069,space,0.205,0,33,33,45,1,46,image/46.jpg,0,0,,R_3HGNQtHAhV6oD0K,2,2024-05-30_16h39.51.707,face trait task,2021.2.3,MacIntel,30.3030303,120486,,,,,,,
,,,,,,5.946666667,2.634,space,0.338,0,34,34,20,1,21,image/21.jpg,0,0,,R_3HGNQtHAhV6oD0K,2,2024-05-30_16h39.51.707,face trait task,2021.2.3,MacIntel,30.3030303,120486,,,,,,,
,,,,,,3.96,2.288,space,0.237,0,35,35,27,1,28,image/28.jpg,0,0,,R_3HGNQtHAhV6oD0K,2,2024-05-30_16h39.51.707,face trait task,2021.2.3,MacIntel,30.3030303,120486,,,,,,,
,,,,,,3.986666667,2.202,space,0.453,0,36,36,32,1,33,image/33.jpg,0,0,,R_3HGNQtHAhV6oD0K,2,2024-05-30_16h39.51.707,face trait task,2021.2.3,MacIntel,30.3030303,120486,,,,,,,
,,,,,,5.006666667,1.635,space,0.238,0,37,37,49,1,50,image/50.jpg,0,0,,R_3HGNQtHAhV6oD0K,2,2024-05-30_16h39.51.707,face trait task,2021.2.3,MacIntel,30.3030303,120486,,,,,,,
,,,,,,5.006666667,1.269,space,0.319,0,38,38,42,1,43,image/43.jpg,0,0,,R_3HGNQtHAhV6oD0K,2,2024-05-30_16h39.51.707,face trait task,2021.2.3,MacIntel,30.3030303,120486,,,,,,,
,,,,,,3.24,1.789,space,0.286,0,39,39,24,1,25,image/25.jpg,0,0,,R_3HGNQtHAhV6oD0K,2,2024-05-30_16h39.51.707,face trait task,2021.2.3,MacIntel,30.3030303,120486,,,,,,,
,,,,,,3.24,1.654,space,0.589,0,40,40,29,1,30,image/30.jpg,0,0,,R_3HGNQtHAhV6oD0K,2,2024-05-30_16h39.51.707,face trait task,2021.2.3,MacIntel,30.3030303,120486,,,,,,,
,,,,,,3.24,1.77,space,0.477,0,41,41,6,1,7,image/7.jpg,0,0,,R_3HGNQtHAhV6oD0K,2,2024-05-30_16h39.51.707,face trait task,2021.2.3,MacIntel,30.3030303,120486,,,,,,,
,,,,,,3.24,1.287,space,0.454,0,42,42,18,1,19,image/19.jpg,0,0,,R_3HGNQtHAhV6oD0K,2,2024-05-30_16h39.51.707,face trait task,2021.2.3,MacIntel,30.3030303,120486,,,,,,,
,,,,,,5.266666667,1.688,space,0.269,0,43,43,2,1,3,image/3.jpg,0,0,,R_3HGNQtHAhV6oD0K,2,2024-05-30_16h39.51.707,face trait task,2021.2.3,MacIntel,30.3030303,120486,,,,,,,
,,,,,,3.513333333,1.601,space,0.267,0,44,44,15,1,16,image/16.jpg,0,0,,R_3HGNQtHAhV6oD0K,2,2024-05-30_16h39.51.707,face trait task,2021.2.3,MacIntel,30.3030303,120486,,,,,,,
,,,,,,3.513333333,1.123,space,0.339,0,45,45,19,1,20,image/20.jpg,0,0,,R_3HGNQtHAhV6oD0K,2,2024-05-30_16h39.51.707,face trait task,2021.2.3,MacIntel,30.3030303,120486,,,,,,,
,,,,,,5.246666667,1.868,space,0.24,0,46,46,12,1,13,image/13.jpg,0,0,,R_3HGNQtHAhV6oD0K,2,2024-05-30_16h39.51.707,face trait task,2021.2.3,MacIntel,30.3030303,120486,,,,,,,
,,,,,,2.966666667,1.888,space,0.261,0,47,47,21,1,22,image/22.jpg,0,0,,R_3HGNQtHAhV6oD0K,2,2024-05-30_16h39.51.707,face trait task,2021.2.3,MacIntel,30.3030303,120486,,,,,,,
,,,,,,5.06,2.036,space,0.354,0,48,48,41,1,42,image/42.jpg,0,0,,R_3HGNQtHAhV6oD0K,2,2024-05-30_16h39.51.707,face trait task,2021.2.3,MacIntel,30.3030303,120486,,,,,,,
,,,,,,6.966666667,2.719,space,0.491,0,49,49,50,1,57,image/fill_img.png,1,7,Please move the slider all the way to the RIGHT to show that you are paying attention.,R_3HGNQtHAhV6oD0K,2,2024-05-30_16h39.51.707,face trait task,2021.2.3,MacIntel,30.3030303,120486,,,,,,,
,,,,,,4.993333333,5.234,space,0.238,0,50,50,1,1,2,image/2.jpg,0,0,,R_3HGNQtHAhV6oD0K,2,2024-05-30_16h39.51.707,face trait task,2021.2.3,MacIntel,30.3030303,120486,,,,,,,
,,,,,,2.96,2.005,space,0.242,0,51,51,38,1,39,image/39.jpg,0,0,,R_3HGNQtHAhV6oD0K,2,2024-05-30_16h39.51.707,face trait task,2021.2.3,MacIntel,30.3030303,120486,,,,,,,
,,,,,,2.96,1.235,space,0.624,0,52,52,30,1,31,image/31.jpg,0,0,,R_3HGNQtHAhV6oD0K,2,2024-05-30_16h39.51.707,face trait task,2021.2.3,MacIntel,30.3030303,120486,,,,,,,
,,,,,,,,,,,,,,,,,,,,R_3HGNQtHAhV6oD0K,2,2024-05-30_16h39.51.707,face trait task,2021.2.3,MacIntel,30.3030303,120486,0,0,0,3,1,3,friendly.png
,,,,,competent,2.993333333,3.811,space,0.438,0,0,0,29,1,30,image/30.jpg,0,0,,R_3HGNQtHAhV6oD0K,2,2024-05-30_16h39.51.707,face trait task,2021.2.3,MacIntel,30.3030303,120486,,,,,,,
,,,,,,5,2.287,space,0.274,0,1,1,26,1,27,image/27.jpg,0,0,,R_3HGNQtHAhV6oD0K,2,2024-05-30_16h39.51.707,face trait task,2021.2.3,MacIntel,30.3030303,120486,,,,,,,
,,,,,,4.96,1.721,space,0.193,0,2,2,23,1,24,image/24.jpg,0,0,,R_3HGNQtHAhV6oD0K,2,2024-05-30_16h39.51.707,face trait task,2021.2.3,MacIntel,30.3030303,120486,,,,,,,
,,,,,,3.973333333,4.4,space,0.501,0,3,3,1,1,2,image/2.jpg,0,0,,R_3HGNQtHAhV6oD0K,2,2024-05-30_16h39.51.707,face trait task,2021.2.3,MacIntel,30.3030303,120486,,,,,,,
,,,,,,6.973333333,4.252,space,0.388,0,4,4,50,1,57,image/fill_img.png,1,7,Please move the slider all the way to the RIGHT to show that you are paying attention.,R_3HGNQtHAhV6oD0K,2,2024-05-30_16h39.51.707,face trait task,2021.2.3,MacIntel,30.3030303,120486,,,,,,,
,,,,,,1,2.868,space,0.355,0,5,5,52,1,53,image/fill_img.png,1,1,Please move the slider all the way to the LEFT to show that you are paying attention.,R_3HGNQtHAhV6oD0K,2,2024-05-30_16h39.51.707,face trait task,2021.2.3,MacIntel,30.3030303,120486,,,,,,,
,,,,,,5.006666667,2.835,space,1.334,0,6,6,27,1,28,image/28.jpg,0,0,,R_3HGNQtHAhV6oD0K,2,2024-05-30_16h39.51.707,face trait task,2021.2.3,MacIntel,30.3030303,120486,,,,,,,
,,,,,,5.006666667,3.588,space,0.687,0,7,7,37,1,38,image/38.jpg,0,0,,R_3HGNQtHAhV6oD0K,2,2024-05-30_16h39.51.707,face trait task,2021.2.3,MacIntel,30.3030303,120486,,,,,,,
,,,,,,5.006666667,2.687,space,0.658,0,8,8,30,1,31,image/31.jpg,0,0,,R_3HGNQtHAhV6oD0K,2,2024-05-30_16h39.51.707,face trait task,2021.2.3,MacIntel,30.3030303,120486,,,,,,,
,,,,,,3.433333333,3.67,space,0.537,0,9,9,9,1,10,image/10.jpg,0,0,,R_3HGNQtHAhV6oD0K,2,2024-05-30_16h39.51.707,face trait task,2021.2.3,MacIntel,30.3030303,120486,,,,,,,
,,,,,,4.7,3.135,space,0.401,0,10,10,45,1,46,image/46.jpg,0,0,,R_3HGNQtHAhV6oD0K,2,2024-05-30_16h39.51.707,face trait task,2021.2.3,MacIntel,30.3030303,120486,,,,,,,
,,,,,,6.2,2.855,space,0.808,0,11,11,49,1,50,image/50.jpg,0,0,,R_3HGNQtHAhV6oD0K,2,2024-05-30_16h39.51.707,face trait task,2021.2.3,MacIntel,30.3030303,120486,,,,,,,
,,,,,,6.2,2.301,space,0.727,0,12,12,10,1,11,image/11.jpg,0,0,,R_3HGNQtHAhV6oD0K,2,2024-05-30_16h39.51.707,face trait task,2021.2.3,MacIntel,30.3030303,120486,,,,,,,
,,,,,,1.066666667,2.521,space,0.688,0,13,13,7,1,8,image/8.jpg,0,0,,R_3HGNQtHAhV6oD0K,2,2024-05-30_16h39.51.707,face trait task,2021.2.3,MacIntel,30.3030303,120486,,,,,,,
,,,,,,2.98,2.287,space,1.005,0,14,14,43,1,44,image/44.jpg,0,0,,R_3HGNQtHAhV6oD0K,2,2024-05-30_16h39.51.707,face trait task,2021.2.3,MacIntel,30.3030303,120486,,,,,,,
,,,,,,5.693333333,2.522,space,0.634,0,15,15,11,1,12,image/12.jpg,0,0,,R_3HGNQtHAhV6oD0K,2,2024-05-30_16h39.51.707,face trait task,2021.2.3,MacIntel,30.3030303,120486,,,,,,,
,,,,,,2.98,3.819,space,0.954,0,16,16,22,1,23,image/23.jpg,0,0,,R_3HGNQtHAhV6oD0K,2,2024-05-30_16h39.51.707,face trait task,2021.2.3,MacIntel,30.3030303,120486,,,,,,,
,,,,,,6.98,2.42,space,0.854,0,17,17,51,1,56,image/fill_img.png,1,7,Please move the slider all the way to the RIGHT to show that you are paying attention.,R_3HGNQtHAhV6oD0K,2,2024-05-30_16h39.51.707,face trait task,2021.2.3,MacIntel,30.3030303,120486,,,,,,,
,,,,,,3.5,2.287,space,0.431,0,18,18,12,1,13,image/13.jpg,0,0,,R_3HGNQtHAhV6oD0K,2,2024-05-30_16h39.51.707,face trait task,2021.2.3,MacIntel,30.3030303,120486,,,,,,,
,,,,,,4.82,2.188,space,0.486,0,19,19,5,1,6,image/6.jpg,0,0,,R_3HGNQtHAhV6oD0K,2,2024-05-30_16h39.51.707,face trait task,2021.2.3,MacIntel,30.3030303,120486,,,,,,,
,,,,,,5.368292683,11.653,space,0.457,0,20,20,21,1,22,image/22.jpg,0,0,,R_3HGNQtHAhV6oD0K,2,2024-05-30_16h39.51.707,face trait task,2021.2.3,MacIntel,30.3030303,120486,,,,,,,
,,,,,,3.180487805,1.819,space,0.769,0,21,21,24,1,25,image/25.jpg,0,0,,R_3HGNQtHAhV6oD0K,2,2024-05-30_16h39.51.707,face trait task,2021.2.3,MacIntel,30.3030303,120486,,,,,,,
,,,,,,4.702439024,2.035,space,0.521,0,22,22,41,1,42,image/42.jpg,0,0,,R_3HGNQtHAhV6oD0K,2,2024-05-30_16h39.51.707,face trait task,2021.2.3,MacIntel,30.3030303,120486,,,,,,,
,,,,,,2.148780488,3.269,space,1.705,0,23,23,34,1,35,image/35.jpg,0,0,,R_3HGNQtHAhV6oD0K,2,2024-05-30_16h39.51.707,face trait task,2021.2.3,MacIntel,30.3030303,120486,,,,,,,
,,,,,,5.309756098,1.87,space,0.326,0,24,24,18,1,19,image/19.jpg,0,0,,R_3HGNQtHAhV6oD0K,2,2024-05-30_16h39.51.707,face trait task,2021.2.3,MacIntel,30.3030303,120486,,,,,,,
,,,,,,2.712195122,2.052,space,0.426,0,25,25,42,1,43,image/43.jpg,0,0,,R_3HGNQtHAhV6oD0K,2,2024-05-30_16h39.51.707,face trait task,2021.2.3,MacIntel,30.3030303,120486,,,,,,,
,,,,,,4.219512195,2.419,space,0.287,0,26,26,44,1,45,image/45.jpg,0,0,,R_3HGNQtHAhV6oD0K,2,2024-05-30_16h39.51.707,face trait task,2021.2.3,MacIntel,30.3030303,120486,,,,,,,
,,,,,,3.085365854,3.369,space,0.191,0,27,27,15,1,16,image/16.jpg,0,0,,R_3HGNQtHAhV6oD0K,2,2024-05-30_16h39.51.707,face trait task,2021.2.3,MacIntel,30.3030303,120486,,,,,,,
,,,,,,5.63902439,2.82,space,0.374,0,28,28,20,1,21,image/21.jpg,0,0,,R_3HGNQtHAhV6oD0K,2,2024-05-30_16h39.51.707,face trait task,2021.2.3,MacIntel,30.3030303,120486,,,,,,,
,,,,,,6.26097561,1.955,space,0.831,0,29,29,3,1,4,image/4.jpg,0,0,,R_3HGNQtHAhV6oD0K,2,2024-05-30_16h39.51.707,face trait task,2021.2.3,MacIntel,30.3030303,120486,,,,,,,
,,,,,,3.641463415,3.002,space,0.356,0,30,30,47,1,48,image/48.jpg,0,0,,R_3HGNQtHAhV6oD0K,2,2024-05-30_16h39.51.707,face trait task,2021.2.3,MacIntel,30.3030303,120486,,,,,,,
,,,,,,3.582926829,1.655,space,0.702,0,31,31,36,1,37,image/37.jpg,0,0,,R_3HGNQtHAhV6oD0K,2,2024-05-30_16h39.51.707,face trait task,2021.2.3,MacIntel,30.3030303,120486,,,,,,,
,,,,,,1.307317073,2.787,space,0.521,0,32,32,16,1,17,image/17.jpg,0,0,,R_3HGNQtHAhV6oD0K,2,2024-05-30_16h39.51.707,face trait task,2021.2.3,MacIntel,30.3030303,120486,,,,,,,
,,,,,,6.553658537,2.168,space,1.058,0,33,33,31,1,32,image/32.jpg,0,0,,R_3HGNQtHAhV6oD0K,2,2024-05-30_16h39.51.707,face trait task,2021.2.3,MacIntel,30.3030303,120486,,,,,,,
,,,,,,2.873170732,2.888,space,0.556,0,34,34,38,1,39,image/39.jpg,0,0,,R_3HGNQtHAhV6oD0K,2,2024-05-30_16h39.51.707,face trait task,2021.2.3,MacIntel,30.3030303,120486,,,,,,,
,,,,,,2.236585366,2.223,space,0.422,0,35,35,2,1,3,image/3.jpg,0,0,,R_3HGNQtHAhV6oD0K,2,2024-05-30_16h39.51.707,face trait task,2021.2.3,MacIntel,30.3030303,120486,,,,,,,
,,,,,,6.604878049,3.003,space,0.743,0,36,36,0,1,1,image/1.jpg,0,0,,R_3HGNQtHAhV6oD0K,2,2024-05-30_16h39.51.707,face trait task,2021.2.3,MacIntel,30.3030303,120486,,,,,,,
,,,,,,3.985365854,2.669,space,0.488,0,37,37,46,1,47,image/47.jpg,0,0,,R_3HGNQtHAhV6oD0K,2,2024-05-30_16h39.51.707,face trait task,2021.2.3,MacIntel,30.3030303,120486,,,,,,,
,,,,,,4.673170732,1.769,space,0.329,0,38,38,19,1,20,image/20.jpg,0,0,,R_3HGNQtHAhV6oD0K,2,2024-05-30_16h39.51.707,face trait task,2021.2.3,MacIntel,30.3030303,120486,,,,,,,
,,,,,,4.980487805,3.203,space,0.389,0,39,39,32,1,33,image/33.jpg,0,0,,R_3HGNQtHAhV6oD0K,2,2024-05-30_16h39.51.707,face trait task,2021.2.3,MacIntel,30.3030303,120486,,,,,,,
,,,,,,2.748780488,2.436,space,0.454,0,40,40,13,1,14,image/14.jpg,0,0,,R_3HGNQtHAhV6oD0K,2,2024-05-30_16h39.51.707,face trait task,2021.2.3,MacIntel,30.3030303,120486,,,,,,,
,,,,,,6.019512195,2.869,space,0.401,0,41,41,8,1,9,image/9.jpg,0,0,,R_3HGNQtHAhV6oD0K,2,2024-05-30_16h39.51.707,face trait task,2021.2.3,MacIntel,30.3030303,120486,,,,,,,
,,,,,,4,4.823,space,0.225,0,42,42,4,1,5,image/5.jpg,0,0,,R_3HGNQtHAhV6oD0K,2,2024-05-30_16h39.51.707,face trait task,2021.2.3,MacIntel,30.3030303,120486,,,,,,,
,,,,,,4.402439024,1.857,space,0.232,0,43,43,28,1,29,image/29.jpg,0,0,,R_3HGNQtHAhV6oD0K,2,2024-05-30_16h39.51.707,face trait task,2021.2.3,MacIntel,30.3030303,120486,,,,,,,
,,,,,,3.604878049,2.902,space,0.187,0,44,44,35,1,36,image/36.jpg,0,0,,R_3HGNQtHAhV6oD0K,2,2024-05-30_16h39.51.707,face trait task,2021.2.3,MacIntel,30.3030303,120486,,,,,,,
,,,,,,5.015006821,30.539,space,1.24,0,45,45,6,1,7,image/7.jpg,0,0,,R_3HGNQtHAhV6oD0K,2,2024-05-30_16h39.51.707,face trait task,2021.2.3,MacIntel,30.3030303,120486,,,,,,,
,,,,,,6.987721692,2.166,space,0.533,0,46,46,25,1,26,image/26.jpg,0,0,,R_3HGNQtHAhV6oD0K,2,2024-05-30_16h39.51.707,face trait task,2021.2.3,MacIntel,30.3030303,120486,,,,,,,
,,,,,,4.409276944,15.491,space,1.037,0,47,47,39,1,40,image/40.jpg,0,0,,R_3HGNQtHAhV6oD0K,2,2024-05-30_16h39.51.707,face trait task,2021.2.3,MacIntel,30.3030303,120486,,,,,,,
,,,,,,2.837653479,8.204,space,0.534,0,48,48,40,1,41,image/41.jpg,0,0,,R_3HGNQtHAhV6oD0K,2,2024-05-30_16h39.51.707,face trait task,2021.2.3,MacIntel,30.3030303,120486,,,,,,,
,,,,,,2.518417462,1.625,space,0.456,0,49,49,48,1,49,image/49.jpg,0,0,,R_3HGNQtHAhV6oD0K,2,2024-05-30_16h39.51.707,face trait task,2021.2.3,MacIntel,30.3030303,120486,,,,,,,
,,,,,,2.362892224,12.95,space,0.406,0,50,50,14,1,15,image/15.jpg,0,0,,R_3HGNQtHAhV6oD0K,2,2024-05-30_16h39.51.707,face trait task,2021.2.3,MacIntel,30.3030303,120486,,,,,,,
,,,,,,2.436562074,7.952,space,0.429,0,51,51,33,1,34,image/34.jpg,0,0,,R_3HGNQtHAhV6oD0K,2,2024-05-30_16h39.51.707,face trait task,2021.2.3,MacIntel,30.3030303,120486,,,,,,,
,,,,,,2.592087312,5.251,space,0.577,0,52,52,17,1,18,image/18.jpg,0,0,,R_3HGNQtHAhV6oD0K,2,2024-05-30_16h39.51.707,face trait task,2021.2.3,MacIntel,30.3030303,120486,,,,,,,
,,,,,,,,,,,,,,,,,,,,R_3HGNQtHAhV6oD0K,2,2024-05-30_16h39.51.707,face trait task,2021.2.3,MacIntel,30.3030303,120486,0,1,1,1,1,1,competent.png
,,,,,critical,6.78308322,4.041,space,1.522,0,0,0,28,1,29,image/29.jpg,0,0,,R_3HGNQtHAhV6oD0K,2,2024-05-30_16h39.51.707,face trait task,2021.2.3,MacIntel,30.3030303,120486,,,,,,,
,,,,,,6.914051842,1.701,space,0.639,0,1,1,25,1,26,image/26.jpg,0,0,,R_3HGNQtHAhV6oD0K,2,2024-05-30_16h39.51.707,face trait task,2021.2.3,MacIntel,30.3030303,120486,,,,,,,
,,,,,,4.2946794,2.656,space,0.293,0,2,2,4,1,5,image/5.jpg,0,0,,R_3HGNQtHAhV6oD0K,2,2024-05-30_16h39.51.707,face trait task,2021.2.3,MacIntel,30.3030303,120486,,,,,,,
,,,,,,6.34106412,1.888,space,0.357,0,3,3,37,1,38,image/38.jpg,0,0,,R_3HGNQtHAhV6oD0K,2,2024-05-30_16h39.51.707,face trait task,2021.2.3,MacIntel,30.3030303,120486,,,,,,,
,,,,,,6.332878581,1.553,space,0.357,0,4,4,22,1,23,image/23.jpg,0,0,,R_3HGNQtHAhV6oD0K,2,2024-05-30_16h39.51.707,face trait task,2021.2.3,MacIntel,30.3030303,120486,,,,,,,
,,,,,,6.987721692,2.022,space,0.637,0,5,5,50,1,57,image/fill_img.png,1,7,Please move the slider all the way to the RIGHT to show that you are paying attention.,R_3HGNQtHAhV6oD0K,2,2024-05-30_16h39.51.707,face trait task,2021.2.3,MacIntel,30.3030303,120486,,,,,,,
,,,,,,6.922237381,2.018,space,0.506,0,6,6,31,1,32,image/32.jpg,0,0,,R_3HGNQtHAhV6oD0K,2,2024-05-30_16h39.51.707,face trait task,2021.2.3,MacIntel,30.3030303,120486,,,,,,,
,,,,,,6.873124147,3.088,space,0.376,0,7,7,15,1,16,image/16.jpg,0,0,,R_3HGNQtHAhV6oD0K,2,2024-05-30_16h39.51.707,face trait task,2021.2.3,MacIntel,30.3030303,120486,,,,,,,
,,,,,,6.873124147,1.269,space,0.471,0,8,8,3,1,4,image/4.jpg,0,0,,R_3HGNQtHAhV6oD0K,2,2024-05-30_16h39.51.707,face trait task,2021.2.3,MacIntel,30.3030303,120486,,,,,,,
,,,,,,1.14324693,2.422,space,0.556,0,9,9,9,1,10,image/10.jpg,0,0,,R_3HGNQtHAhV6oD0K,2,2024-05-30_16h39.51.707,face trait task,2021.2.3,MacIntel,30.3030303,120486,,,,,,,
,,,,,,1.184174625,1.935,space,0.421,0,10,10,39,1,40,image/40.jpg,0,0,,R_3HGNQtHAhV6oD0K,2,2024-05-30_16h39.51.707,face trait task,2021.2.3,MacIntel,30.3030303,120486,,,,,,,
,,,,,,4.818553888,2.223,space,0.362,0,11,11,26,1,27,image/27.jpg,0,0,,R_3HGNQtHAhV6oD0K,2,2024-05-30_16h39.51.707,face trait task,2021.2.3,MacIntel,30.3030303,120486,,,,,,,
,,,,,,6.144611187,1.919,space,0.425,0,12,12,17,1,18,image/18.jpg,0,0,,R_3HGNQtHAhV6oD0K,2,2024-05-30_16h39.51.707,face trait task,2021.2.3,MacIntel,30.3030303,120486,,,,,,,
,,,,,,2.862210095,1.819,space,0.42,0,13,13,34,1,35,image/35.jpg,0,0,,R_3HGNQtHAhV6oD0K,2,2024-05-30_16h39.51.707,face trait task,2021.2.3,MacIntel,30.3030303,120486,,,,,,,
,,,,,,1.888130969,2.036,space,0.689,0,14,14,2,1,3,image/3.jpg,0,0,,R_3HGNQtHAhV6oD0K,2,2024-05-30_16h39.51.707,face trait task,2021.2.3,MacIntel,30.3030303,120486,,,,,,,
,,,,,,1.80627558,3.725,space,0.552,0,15,15,45,1,46,image/46.jpg,0,0,,R_3HGNQtHAhV6oD0K,2,2024-05-30_16h39.51.707,face trait task,2021.2.3,MacIntel,30.3030303,120486,,,,,,,
,,,,,,6.447476126,2.569,space,0.599,0,16,16,27,1,28,image/28.jpg,0,0,,R_3HGNQtHAhV6oD0K,2,2024-05-30_16h39.51.707,face trait task,2021.2.3,MacIntel,30.3030303,120486,,,,,,,
,,,,,,5.055934516,4.556,space,0.371,0,17,17,23,1,24,image/24.jpg,0,0,,R_3HGNQtHAhV6oD0K,2,2024-05-30_16h39.51.707,face trait task,2021.2.3,MacIntel,30.3030303,120486,,,,,,,
,,,,,,3.7053206,2.19,space,0.398,0,18,18,47,1,48,image/48.jpg,0,0,,R_3HGNQtHAhV6oD0K,2,2024-05-30_16h39.51.707,face trait task,2021.2.3,MacIntel,30.3030303,120486,,,,,,,
,,,,,,4.212824011,1.468,space,0.293,0,19,19,20,1,21,image/21.jpg,0,0,,R_3HGNQtHAhV6oD0K,2,2024-05-30_16h39.51.707,face trait task,2021.2.3,MacIntel,30.3030303,120486,,,,,,,
,,,,,,6.954979536,2.557,space,0.258,0,20,20,16,1,17,image/17.jpg,0,0,,R_3HGNQtHAhV6oD0K,2,2024-05-30_16h39.51.707,face trait task,2021.2.3,MacIntel,30.3030303,120486,,,,,,,
,,,,,,6.954979536,1.118,space,0.356,0,21,21,13,1,14,image/14.jpg,0,0,,R_3HGNQtHAhV6oD0K,2,2024-05-30_16h39.51.707,face trait task,2021.2.3,MacIntel,30.3030303,120486,,,,,,,
,,,,,,6.210095498,2.668,space,0.188,0,22,22,0,1,1,image/1.jpg,0,0,,R_3HGNQtHAhV6oD0K,2,2024-05-30_16h39.51.707,face trait task,2021.2.3,MacIntel,30.3030303,120486,,,,,,,
,,,,,,5.02319236,9.479,space,0.273,0,23,23,41,1,42,image/42.jpg,0,0,,R_3HGNQtHAhV6oD0K,2,2024-05-30_16h39.51.707,face trait task,2021.2.3,MacIntel,30.3030303,120486,,,,,,,
,,,,,,3.918144611,1.755,space,0.567,0,24,24,5,1,6,image/6.jpg,0,0,,R_3HGNQtHAhV6oD0K,2,2024-05-30_16h39.51.707,face trait task,2021.2.3,MacIntel,30.3030303,120486,,,,,,,
,,,,,,6.938608458,2.503,space,0.344,0,25,25,18,1,19,image/19.jpg,0,0,,R_3HGNQtHAhV6oD0K,2,2024-05-30_16h39.51.707,face trait task,2021.2.3,MacIntel,30.3030303,120486,,,,,,,
,,,,,,3.353342428,2.133,space,0.292,0,26,26,35,1,36,image/36.jpg,0,0,,R_3HGNQtHAhV6oD0K,2,2024-05-30_16h39.51.707,face trait task,2021.2.3,MacIntel,30.3030303,120486,,,,,,,
,,,,,,3.353342428,1.205,space,0.361,0,27,27,42,1,43,image/43.jpg,0,0,,R_3HGNQtHAhV6oD0K,2,2024-05-30_16h39.51.707,face trait task,2021.2.3,MacIntel,30.3030303,120486,,,,,,,
,,,,,,3.377899045,7.918,space,0.336,0,28,28,49,1,50,image/50.jpg,0,0,,R_3HGNQtHAhV6oD0K,2,2024-05-30_16h39.51.707,face trait task,2021.2.3,MacIntel,30.3030303,120486,,,,,,,
,,,,,,6.013642565,3.935,space,0.356,0,29,29,36,1,37,image/37.jpg,0,0,,R_3HGNQtHAhV6oD0K,2,2024-05-30_16h39.51.707,face trait task,2021.2.3,MacIntel,30.3030303,120486,,,,,,,
,,,,,,2.935879945,8.757,space,0.712,0,30,30,46,1,47,image/47.jpg,0,0,,R_3HGNQtHAhV6oD0K,2,2024-05-30_16h39.51.707,face trait task,2021.2.3,MacIntel,30.3030303,120486,,,,,,,
,,,,,,2.731241473,3.138,space,0.389,0,31,31,40,1,41,image/41.jpg,0,0,,R_3HGNQtHAhV6oD0K,2,2024-05-30_16h39.51.707,face trait task,2021.2.3,MacIntel,30.3030303,120486,,,,,,,
,,,,,,2.780354707,4.742,space,0.337,0,32,32,7,1,8,image/8.jpg,0,0,,R_3HGNQtHAhV6oD0K,2,2024-05-30_16h39.51.707,face trait task,2021.2.3,MacIntel,30.3030303,120486,,,,,,,
,,,,,,2.510231924,3.799,space,0.573,0,33,33,1,1,2,image/2.jpg,0,0,,R_3HGNQtHAhV6oD0K,2,2024-05-30_16h39.51.707,face trait task,2021.2.3,MacIntel,30.3030303,120486,,,,,,,
,,,,,,6.954979536,6.823,space,0.479,0,34,34,19,1,20,image/20.jpg,0,0,,R_3HGNQtHAhV6oD0K,2,2024-05-30_16h39.51.707,face trait task,2021.2.3,MacIntel,30.3030303,120486,,,,,,,
,,,,,,2.968622101,2.152,space,0.612,0,35,35,6,1,7,image/7.jpg,0,0,,R_3HGNQtHAhV6oD0K,2,2024-05-30_16h39.51.707,face trait task,2021.2.3,MacIntel,30.3030303,120486,,,,,,,
,,,,,,1.012278308,3.567,space,2.17,0,36,36,52,1,53,image/fill_img.png,1,1,Please move the slider all the way to the LEFT to show that you are paying attention.,R_3HGNQtHAhV6oD0K,2,2024-05-30_16h39.51.707,face trait task,2021.2.3,MacIntel,30.3030303,120486,,,,,,,
,,,,,,3.639836289,2.935,space,0.536,0,37,37,44,1,45,image/45.jpg,0,0,,R_3HGNQtHAhV6oD0K,2,2024-05-30_16h39.51.707,face trait task,2021.2.3,MacIntel,30.3030303,120486,,,,,,,
,,,,,,2.673942701,3.333,space,0.92,0,38,38,11,1,12,image/12.jpg,0,0,,R_3HGNQtHAhV6oD0K,2,2024-05-30_16h39.51.707,face trait task,2021.2.3,MacIntel,30.3030303,120486,,,,,,,
,,,,,,6.971350614,6.304,space,0.334,0,39,39,29,1,30,image/30.jpg,0,0,,R_3HGNQtHAhV6oD0K,2,2024-05-30_16h39.51.707,face trait task,2021.2.3,MacIntel,30.3030303,120486,,,,,,,
,,,,,,2.837653479,2.026,space,0.706,0,40,40,48,1,49,image/49.jpg,0,0,,R_3HGNQtHAhV6oD0K,2,2024-05-30_16h39.51.707,face trait task,2021.2.3,MacIntel,30.3030303,120486,,,,,,,
,,,,,,6.914051842,3.569,space,0.568,0,41,41,14,1,15,image/15.jpg,0,0,,R_3HGNQtHAhV6oD0K,2,2024-05-30_16h39.51.707,face trait task,2021.2.3,MacIntel,30.3030303,120486,,,,,,,
,,,,,,6.668485675,2.652,space,0.706,0,42,42,12,1,13,image/13.jpg,0,0,,R_3HGNQtHAhV6oD0K,2,2024-05-30_16h39.51.707,face trait task,2021.2.3,MacIntel,30.3030303,120486,,,,,,,
,,,,,,4.94952251,5.27,space,0.599,0,43,43,10,1,11,image/11.jpg,0,0,,R_3HGNQtHAhV6oD0K,2,2024-05-30_16h39.51.707,face trait task,2021.2.3,MacIntel,30.3030303,120486,,,,,,,
,,,,,,6.979536153,3.332,space,0.79,0,44,44,51,1,56,image/fill_img.png,1,7,Please move the slider all the way to the RIGHT to show that you are paying attention.,R_3HGNQtHAhV6oD0K,2,2024-05-30_16h39.51.707,face trait task,2021.2.3,MacIntel,30.3030303,120486,,,,,,,
,,,,,,3.034106412,4.754,space,0.456,0,45,45,24,1,25,image/25.jpg,0,0,,R_3HGNQtHAhV6oD0K,2,2024-05-30_16h39.51.707,face trait task,2021.2.3,MacIntel,30.3030303,120486,,,,,,,
,,,,,,5.702592087,2.767,space,0.405,0,46,46,33,1,34,image/34.jpg,0,0,,R_3HGNQtHAhV6oD0K,2,2024-05-30_16h39.51.707,face trait task,2021.2.3,MacIntel,30.3030303,120486,,,,,,,
,,,,,,3.901773533,2.103,space,0.537,0,47,47,32,1,33,image/33.jpg,0,0,,R_3HGNQtHAhV6oD0K,2,2024-05-30_16h39.51.707,face trait task,2021.2.3,MacIntel,30.3030303,120486,,,,,,,
,,,,,,6.971350614,2.325,space,0.36,0,48,48,30,1,31,image/31.jpg,0,0,,R_3HGNQtHAhV6oD0K,2,2024-05-30_16h39.51.707,face trait task,2021.2.3,MacIntel,30.3030303,120486,,,,,,,
,,,,,,2.362892224,2.153,space,0.301,0,49,49,8,1,9,image/9.jpg,0,0,,R_3HGNQtHAhV6oD0K,2,2024-05-30_16h39.51.707,face trait task,2021.2.3,MacIntel,30.3030303,120486,,,,,,,
,,,,,,2.362892224,1.237,space,0.343,0,50,50,38,1,39,image/39.jpg,0,0,,R_3HGNQtHAhV6oD0K,2,2024-05-30_16h39.51.707,face trait task,2021.2.3,MacIntel,30.3030303,120486,,,,,,,
,,,,,,5.587994543,1.849,space,0.244,0,51,51,21,1,22,image/22.jpg,0,0,,R_3HGNQtHAhV6oD0K,2,2024-05-30_16h39.51.707,face trait task,2021.2.3,MacIntel,30.3030303,120486,,,,,,,
,,,,,,1.920873124,1.886,space,0.243,0,52,52,43,1,44,image/44.jpg,0,0,,R_3HGNQtHAhV6oD0K,2,2024-05-30_16h39.51.707,face trait task,2021.2.3,MacIntel,30.3030303,120486,,,,,,,
,,,,,,,,,,,,,,,,,,,,R_3HGNQtHAhV6oD0K,2,2024-05-30_16h39.51.707,face trait task,2021.2.3,MacIntel,30.3030303,120486,0,2,2,0,1,0,critical.png
,,,,,trustworthy,4,2.286,space,1.588,0,0,0,38,1,39,image/39.jpg,0,0,,R_3HGNQtHAhV6oD0K,2,2024-05-30_16h39.51.707,face trait task,2021.2.3,MacIntel,30.3030303,120486,,,,,,,
,,,,,,5.89904502,2.104,space,0.261,0,1,1,43,1,44,image/44.jpg,0,0,,R_3HGNQtHAhV6oD0K,2,2024-05-30_16h39.51.707,face trait task,2021.2.3,MacIntel,30.3030303,120486,,,,,,,
,,,,,,4.499317872,1.802,space,0.257,0,2,2,29,1,30,image/30.jpg,0,0,,R_3HGNQtHAhV6oD0K,2,2024-05-30_16h39.51.707,face trait task,2021.2.3,MacIntel,30.3030303,120486,,,,,,,
,,,,,,4.507503411,1.369,space,0.587,0,3,3,42,1,43,image/43.jpg,0,0,,R_3HGNQtHAhV6oD0K,2,2024-05-30_16h39.51.707,face trait task,2021.2.3,MacIntel,30.3030303,120486,,,,,,,
,,,,,,4.507503411,1.356,space,0.338,0,4,4,6,1,7,image/7.jpg,0,0,,R_3HGNQtHAhV6oD0K,2,2024-05-30_16h39.51.707,face trait task,2021.2.3,MacIntel,30.3030303,120486,,,,,,,
,,,,,,4.507503411,1.158,space,0.339,0,5,5,33,1,34,image/34.jpg,0,0,,R_3HGNQtHAhV6oD0K,2,2024-05-30_16h39.51.707,face trait task,2021.2.3,MacIntel,30.3030303,120486,,,,,,,
,,,,,,4.507503411,1.324,space,0.34,0,6,6,20,1,21,image/21.jpg,0,0,,R_3HGNQtHAhV6oD0K,2,2024-05-30_16h39.51.707,face trait task,2021.2.3,MacIntel,30.3030303,120486,,,,,,,
,,,,,,4.507503411,1.224,space,0.553,0,7,7,37,1,38,image/38.jpg,0,0,,R_3HGNQtHAhV6oD0K,2,2024-05-30_16h39.51.707,face trait task,2021.2.3,MacIntel,30.3030303,120486,,,,,,,
,,,,,,4.507503411,1.17,space,0.392,0,8,8,24,1,25,image/25.jpg,0,0,,R_3HGNQtHAhV6oD0K,2,2024-05-30_16h39.51.707,face trait task,2021.2.3,MacIntel,30.3030303,120486,,,,,,,
,,,,,,4.507503411,1.276,space,0.317,0,9,9,2,1,3,image/3.jpg,0,0,,R_3HGNQtHAhV6oD0K,2,2024-05-30_16h39.51.707,face trait task,2021.2.3,MacIntel,30.3030303,120486,,,,,,,
,,,,,,4.507503411,1.29,space,0.527,0,10,10,44,1,45,image/45.jpg,0,0,,R_3HGNQtHAhV6oD0K,2,2024-05-30_16h39.51.707,face trait task,2021.2.3,MacIntel,30.3030303,120486,,,,,,,
,,,,,,4.507503411,1.62,space,0.396,0,11,11,45,1,46,image/46.jpg,0,0,,R_3HGNQtHAhV6oD0K,2,2024-05-30_16h39.51.707,face trait task,2021.2.3,MacIntel,30.3030303,120486,,,,,,,
,,,,,,1.004092769,3.333,space,0.825,0,12,12,52,1,53,image/fill_img.png,1,1,Please move the slider all the way to the LEFT to show that you are paying attention.,R_3HGNQtHAhV6oD0K,2,2024-05-30_16h39.51.707,face trait task,2021.2.3,MacIntel,30.3030303,120486,,,,,,,
,,,,,,4.114597544,2.017,space,0.335,0,13,13,4,1,5,image/5.jpg,0,0,,R_3HGNQtHAhV6oD0K,2,2024-05-30_16h39.51.707,face trait task,2021.2.3,MacIntel,30.3030303,120486,,,,,,,
,,,,,,4.114597544,1.188,space,0.319,0,14,14,17,1,18,image/18.jpg,0,0,,R_3HGNQtHAhV6oD0K,2,2024-05-30_16h39.51.707,face trait task,2021.2.3,MacIntel,30.3030303,120486,,,,,,,
,,,,,,4.114597544,1.102,space,0.335,0,15,15,1,1,2,image/2.jpg,0,0,,R_3HGNQtHAhV6oD0K,2,2024-05-30_16h39.51.707,face trait task,2021.2.3,MacIntel,30.3030303,120486,,,,,,,
,,,,,,4.114597544,1.185,space,0.301,0,16,16,16,1,17,image/17.jpg,0,0,,R_3HGNQtHAhV6oD0K,2,2024-05-30_16h39.51.707,face trait task,2021.2.3,MacIntel,30.3030303,120486,,,,,,,
,,,,,,4.114597544,1.302,space,0.244,0,17,17,22,1,23,image/23.jpg,0,0,,R_3HGNQtHAhV6oD0K,2,2024-05-30_16h39.51.707,face trait task,2021.2.3,MacIntel,30.3030303,120486,,,,,,,
,,,,,,4.114597544,1.136,space,0.641,0,18,18,27,1,28,image/28.jpg,0,0,,R_3HGNQtHAhV6oD0K,2,2024-05-30_16h39.51.707,face trait task,2021.2.3,MacIntel,30.3030303,120486,,,,,,,
,,,,,,4.114597544,1.317,space,0.291,0,19,19,28,1,29,image/29.jpg,0,0,,R_3HGNQtHAhV6oD0K,2,2024-05-30_16h39.51.707,face trait task,2021.2.3,MacIntel,30.3030303,120486,,,,,,,
,,,,,,4.933151432,1.718,space,0.28,0,20,20,21,1,22,image/22.jpg,0,0,,R_3HGNQtHAhV6oD0K,2,2024-05-30_16h39.51.707,face trait task,2021.2.3,MacIntel,30.3030303,120486,,,,,,,
,,,,,,4.933151432,1.339,space,0.337,0,21,21,14,1,15,image/15.jpg,0,0,,R_3HGNQtHAhV6oD0K,2,2024-05-30_16h39.51.707,face trait task,2021.2.3,MacIntel,30.3030303,120486,,,,,,,
,,,,,,4.957708049,1.069,space,0.274,0,22,22,11,1,12,image/12.jpg,0,0,,R_3HGNQtHAhV6oD0K,2,2024-05-30_16h39.51.707,face trait task,2021.2.3,MacIntel,30.3030303,120486,,,,,,,
,,,,,,6.987721692,2.515,space,0.345,0,23,23,51,1,56,image/fill_img.png,1,7,Please move the slider all the way to the RIGHT to show that you are paying attention.,R_3HGNQtHAhV6oD0K,2,2024-05-30_16h39.51.707,face trait task,2021.2.3,MacIntel,30.3030303,120486,,,,,,,
,,,,,,4.785811733,2.169,space,0.221,0,24,24,5,1,6,image/6.jpg,0,0,,R_3HGNQtHAhV6oD0K,2,2024-05-30_16h39.51.707,face trait task,2021.2.3,MacIntel,30.3030303,120486,,,,,,,
,,,,,,4.785811733,1.423,space,0.655,0,25,25,12,1,13,image/13.jpg,0,0,,R_3HGNQtHAhV6oD0K,2,2024-05-30_16h39.51.707,face trait task,2021.2.3,MacIntel,30.3030303,120486,,,,,,,
,,,,,,4.785811733,1.186,space,0.295,0,26,26,10,1,11,image/11.jpg,0,0,,R_3HGNQtHAhV6oD0K,2,2024-05-30_16h39.51.707,face trait task,2021.2.3,MacIntel,30.3030303,120486,,,,,,,
,,,,,,4.785811733,1.069,space,0.72,0,27,27,19,1,20,image/20.jpg,0,0,,R_3HGNQtHAhV6oD0K,2,2024-05-30_16h39.51.707,face trait task,2021.2.3,MacIntel,30.3030303,120486,,,,,,,
,,,,,,4.785811733,1.322,space,0.558,0,28,28,49,1,50,image/50.jpg,0,0,,R_3HGNQtHAhV6oD0K,2,2024-05-30_16h39.51.707,face trait task,2021.2.3,MacIntel,30.3030303,120486,,,,,,,
,,,,,,4.785811733,0.987,space,0.367,0,29,29,40,1,41,image/41.jpg,0,0,,R_3HGNQtHAhV6oD0K,2,2024-05-30_16h39.51.707,face trait task,2021.2.3,MacIntel,30.3030303,120486,,,,,,,
,,,,,,4.785811733,1.069,space,0.295,0,30,30,18,1,19,image/19.jpg,0,0,,R_3HGNQtHAhV6oD0K,2,2024-05-30_16h39.51.707,face trait task,2021.2.3,MacIntel,30.3030303,120486,,,,,,,
,,,,,,4.785811733,0.968,space,0.287,0,31,31,36,1,37,image/37.jpg,0,0,,R_3HGNQtHAhV6oD0K,2,2024-05-30_16h39.51.707,face trait task,2021.2.3,MacIntel,30.3030303,120486,,,,,,,
,,,,,,4.785811733,1.034,space,0.225,0,32,32,31,1,32,image/32.jpg,0,0,,R_3HGNQtHAhV6oD0K,2,2024-05-30_16h39.51.707,face trait task,2021.2.3,MacIntel,30.3030303,120486,,,,,,,
,,,,,,4.785811733,0.836,space,0.323,0,33,33,47,1,48,image/48.jpg,0,0,,R_3HGNQtHAhV6oD0K,2,2024-05-30_16h39.51.707,face trait task,2021.2.3,MacIntel,30.3030303,120486,,,,,,,
,,,,,,4.785811733,1.46,space,0.368,0,34,34,41,1,42,image/42.jpg,0,0,,R_3HGNQtHAhV6oD0K,2,2024-05-30_16h39.51.707,face trait task,2021.2.3,MacIntel,30.3030303,120486,,,,,,,
,,,,,,4.785811733,1.125,space,0.579,0,35,35,25,1,26,image/26.jpg,0,0,,R_3HGNQtHAhV6oD0K,2,2024-05-30_16h39.51.707,face trait task,2021.2.3,MacIntel,30.3030303,120486,,,,,,,
,,,,,,4.785811733,2.503,space,0.195,0,36,36,0,1,1,image/1.jpg,0,0,,R_3HGNQtHAhV6oD0K,2,2024-05-30_16h39.51.707,face trait task,2021.2.3,MacIntel,30.3030303,120486,,,,,,,
,,,,,,4.785811733,3.756,space,0.477,0,37,37,8,1,9,image/9.jpg,0,0,,R_3HGNQtHAhV6oD0K,2,2024-05-30_16h39.51.707,face trait task,2021.2.3,MacIntel,30.3030303,120486,,,,,,,
,,,,,,6.979536153,3.769,space,2.678,0,38,38,50,1,57,image/fill_img.png,1,7,Please move the slider all the way to the RIGHT to show that you are paying attention.,R_3HGNQtHAhV6oD0K,2,2024-05-30_16h39.51.707,face trait task,2021.2.3,MacIntel,30.3030303,120486,,,,,,,
,,,,,,4.2946794,1.701,space,1.671,0,39,39,13,1,14,image/14.jpg,0,0,,R_3HGNQtHAhV6oD0K,2,2024-05-30_16h39.51.707,face trait task,2021.2.3,MacIntel,30.3030303,120486,,,,,,,
,,,,,,4.2946794,0.757,space,0.435,0,40,40,23,1,24,image/24.jpg,0,0,,R_3HGNQtHAhV6oD0K,2,2024-05-30_16h39.51.707,face trait task,2021.2.3,MacIntel,30.3030303,120486,,,,,,,
,,,,,,4.2946794,1.622,space,0.655,0,41,41,30,1,31,image/31.jpg,0,0,,R_3HGNQtHAhV6oD0K,2,2024-05-30_16h39.51.707,face trait task,2021.2.3,MacIntel,30.3030303,120486,,,,,,,
,,,,,,4.2946794,2.068,space,3.36,0,42,42,9,1,10,image/10.jpg,0,0,,R_3HGNQtHAhV6oD0K,2,2024-05-30_16h39.51.707,face trait task,2021.2.3,MacIntel,30.3030303,120486,,,,,,,
,,,,,,4.2946794,1.184,space,0.308,0,43,43,15,1,16,image/16.jpg,0,0,,R_3HGNQtHAhV6oD0K,2,2024-05-30_16h39.51.707,face trait task,2021.2.3,MacIntel,30.3030303,120486,,,,,,,
,,,,,,4.2946794,0.546,space,0.64,0,44,44,35,1,36,image/36.jpg,0,0,,R_3HGNQtHAhV6oD0K,2,2024-05-30_16h39.51.707,face trait task,2021.2.3,MacIntel,30.3030303,120486,,,,,,,
,,,,,,4.2946794,0.555,space,0.437,0,45,45,34,1,35,image/35.jpg,0,0,,R_3HGNQtHAhV6oD0K,2,2024-05-30_16h39.51.707,face trait task,2021.2.3,MacIntel,30.3030303,120486,,,,,,,
,,,,,,4.2946794,1.068,space,0.363,0,46,46,3,1,4,image/4.jpg,0,0,,R_3HGNQtHAhV6oD0K,2,2024-05-30_16h39.51.707,face trait task,2021.2.3,MacIntel,30.3030303,120486,,,,,,,
,,,,,,4.2946794,0.626,space,0.394,0,47,47,7,1,8,image/8.jpg,0,0,,R_3HGNQtHAhV6oD0K,2,2024-05-30_16h39.51.707,face trait task,2021.2.3,MacIntel,30.3030303,120486,,,,,,,
,,,,,,4.2946794,1.04,space,0.256,0,48,48,46,1,47,image/47.jpg,0,0,,R_3HGNQtHAhV6oD0K,2,2024-05-30_16h39.51.707,face trait task,2021.2.3,MacIntel,30.3030303,120486,,,,,,,
,,,,,,4.2946794,0.658,space,0.388,0,49,49,26,1,27,image/27.jpg,0,0,,R_3HGNQtHAhV6oD0K,2,2024-05-30_16h39.51.707,face trait task,2021.2.3,MacIntel,30.3030303,120486,,,,,,,
,,,,,,4.2946794,0.657,space,0.432,0,50,50,32,1,33,image/33.jpg,0,0,,R_3HGNQtHAhV6oD0K,2,2024-05-30_16h39.51.707,face trait task,2021.2.3,MacIntel,30.3030303,120486,,,,,,,
,,,,,,4.2946794,0.589,space,0.321,0,51,51,48,1,49,image/49.jpg,0,0,,R_3HGNQtHAhV6oD0K,2,2024-05-30_16h39.51.707,face trait task,2021.2.3,MacIntel,30.3030303,120486,,,,,,,
,,,,,,4.2946794,1,space,0.336,0,52,52,39,1,40,image/40.jpg,0,0,,R_3HGNQtHAhV6oD0K,2,2024-05-30_16h39.51.707,face trait task,2021.2.3,MacIntel,30.3030303,120486,,,,,,,
,,,,,,,,,,,,,,,,,,,,R_3HGNQtHAhV6oD0K,2,2024-05-30_16h39.51.707,face trait task,2021.2.3,MacIntel,30.3030303,120486,0,3,3,2,1,2,trustworthy.png
