chooserow,ParID,pre_instru_resp_2.keys,pre_instru_resp_2.rt,pre_instru_resp_3.keys,pre_instru_resp_3.rt,pre_instru_resp_9.keys,pre_instru_resp_9.rt,pre_instru_resp_8.keys,pre_instru_resp_8.rt,pre_instru_resp_4.keys,pre_instru_resp_4.rt,pre_instru_resp_5.keys,pre_instru_resp_5.rt,pre_instru_resp_6.keys,pre_instru_resp_6.rt,key_resp_3.keys,key_resp_3.rt,key_resp_4.keys,key_resp_4.rt,key_resp_5.keys,key_resp_5.rt,key_resp_6.keys,key_resp_6.rt,key_resp_7.keys,key_resp_7.rt,trials_2.thisRepN,trials_2.thisTrialN,trials_2.thisN,trials_2.thisIndex,trials_2.ran,participant,session,date,expName,psychopyVersion,OS,frameRate,SONAid,pre_instru_resp.keys,pre_instru_resp.rt,clicked,judge_2.x,judge_2.y,judge_2.leftButton,judge_2.midButton,judge_2.rightButton,judge_2.clicked_name,trials.thisRepN,trials.thisTrialN,trials.thisN,trials.thisIndex,trials.ran,prac_answer,prac_dot_sti,dotlefttext,dotrighttext,prac_acc,judge.x,judge.y,judge.leftButton,judge.midButton,judge.rightButton,judge.clicked_name,clicked_guilt,slider_guilt.response,slider_guilt.rt,key_guilt.keys,key_guilt.rt,share_slider.response,share_slider.rt,key_share.keys,slider_apology.response,slider_apology.rt,key_apology.keys,slider_hide.response,slider_hide.rt,slider_forgiveness.response,slider_forgiveness.rt,key_forgiveness.keys,slider_mad.response,slider_mad.rt,trialseq.thisRepN,trialseq.thisTrialN,trialseq.thisN,trialseq.thisIndex,trialseq.ran,type_trial,stipic,DV,picture,answer,number,key_forgiveness.rt,key_apology.rt,key_share.rt
"[148,29,189,81,71,60,134,175,115,125,167,168,183,107,190,94,73,161,118,145,200,117,49,59,95,128,127,195,103,142,74,157,48,101,15,171,70,86,37,9,141,146]",R_3Hq0pKoFXUeyfKX,space,1.4656,space,3.1408,space,14.1248,space,20.7082,space,17.6242,space,6.9388,space,9.8424,3,5.7592,1,6.5544,3,5.6558,1,5.284,3,2.971,0,0,0,0,1,R_3Hq0pKoFXUeyfKX,1,2024-05-14_12h57.05.495,interaction task,2021.2.3,MacIntel,61.34969325,120829,,,,,,,,,,,,,,,,,,,,,,,,,,,,,,,,,,,,,,,,,,,,,,,,,,,,,,,,,
,,,,space,0.2282,space,1.4589,space,0.7196,space,9.8341,space,1.3368,space,1.1848,3,1.9221,1,2.6485,3,2.6326,2,1.9653,2,3.3485,1,0,1,0,1,R_3Hq0pKoFXUeyfKX,1,2024-05-14_12h57.05.495,interaction task,2021.2.3,MacIntel,61.34969325,120829,,,,,,,,,,,,,,,,,,,,,,,,,,,,,,,,,,,,,,,,,,,,,,,,,,,,,,,,,
,,,,,,,,,,,,,,,,,,,,,,,,,,,,,,,R_3Hq0pKoFXUeyfKX,1,2024-05-14_12h57.05.495,interaction task,2021.2.3,MacIntel,61.34969325,120829,space,3.6556,"[""RightButton_2""]",0.240467665,-0.327630208,1,0,0,RightButton_2,0,0,0,2,1,LeftButton_2,11dot2.png,Greater,Smaller,,,,,,,,,,,,,,,,,,,,,,,,,,,,,,,,,,,,,,,
,,,,,,,,,,,,,,,,,,,,,,,,,,,,,,,R_3Hq0pKoFXUeyfKX,1,2024-05-14_12h57.05.495,interaction task,2021.2.3,MacIntel,61.34969325,120829,,,"[""RightButton_2""]",0.302311198,-0.312265625,1,0,0,RightButton_2,0,1,1,1,1,RightButton_2,11dot2.png,Smaller,Greater,,,,,,,,,,,,,,,,,,,,,,,,,,,,,,,,,,,,,,,
,,,,,,,,,,,,,,,,,,,,,,,,,,,,,,,R_3Hq0pKoFXUeyfKX,1,2024-05-14_12h57.05.495,interaction task,2021.2.3,MacIntel,61.34969325,120829,,,"[""RightButton_2""]",0.262022569,-0.298168403,1,0,0,RightButton_2,0,2,2,0,1,LeftButton_2,9dot2.png,Smaller,Greater,,,,,,,,,,,,,,,,,,,,,,,,,,,,,,,,,,,,,,,
,,,,,,,,,,,,,,,,,,,,,,,,,,,,,,,R_3Hq0pKoFXUeyfKX,1,2024-05-14_12h57.05.495,interaction task,2021.2.3,MacIntel,61.34969325,120829,,,,,,,,,,,,,,,,,Greater,Smaller,0.2,-0.251774089,-0.525876736,1,0,0,LeftButton,"[""LeftButton""]",40,4.8862,space,3.5079,,,,,,,,,,,,,,0,0,0,0,1,3,only_sub_wrong.png,0,RandomDot12.png,No answer,20,,,
,,,,,,,,,,,,,,,,,,,,,,,,,,,,,,,R_3Hq0pKoFXUeyfKX,1,2024-05-14_12h57.05.495,interaction task,2021.2.3,MacIntel,61.34969325,120829,,,,,,,,,,,,,,,,,Greater,Smaller,,0.311376953,-0.476484375,1,0,0,RightButton,"[""RightButton""]",,,,,,,,,,,,,,,,,,0,1,1,1,1,0,both_right.png,2,RandomDot10.png,No answer,20,,,
,,,,,,,,,,,,,,,,,,,,,,,,,,,,,,,R_3Hq0pKoFXUeyfKX,1,2024-05-14_12h57.05.495,interaction task,2021.2.3,MacIntel,61.34969325,120829,,,,,,,,,,,,,,,,,Smaller,Greater,,0.293733724,-0.455355903,1,0,0,RightButton,"[""RightButton""]",,,,,,,,,,,,,38.6681485,3.8091,space,59.73493617,10.4311,0,2,2,2,1,3,only_sub_wrong.png,3,RandomDot38.png,No answer,20,4.8219,,
,,,,,,,,,,,,,,,,,,,,,,,,,,,,,,,R_3Hq0pKoFXUeyfKX,1,2024-05-14_12h57.05.495,interaction task,2021.2.3,MacIntel,61.34969325,120829,,,,,,,,,,,,,,,,,Smaller,Greater,,-0.334781901,-0.510555556,1,0,0,LeftButton,"[""LeftButton""]",,,,,,,,61,4.0333,space,20,7.1162,,,,,,0,3,3,3,1,1,both_wrong.png,2,RandomDot21.png,No answer,20,,0.4665,
,,,,,,,,,,,,,,,,,,,,,,,,,,,,,,,R_3Hq0pKoFXUeyfKX,1,2024-05-14_12h57.05.495,interaction task,2021.2.3,MacIntel,61.34969325,120829,,,,,,,,,,,,,,,,,Smaller,Greater,,0.271549479,-0.528168403,1,0,0,RightButton,"[""RightButton""]",,,,,5,8.9656,space,,,,,,,,,,,0,4,4,4,1,1,both_wrong.png,1,RandomDot14.png,No answer,20,,,8.2101
,,,,,,,,,,,,,,,,,,,,,,,,,,,,,,,R_3Hq0pKoFXUeyfKX,1,2024-05-14_12h57.05.495,interaction task,2021.2.3,MacIntel,61.34969325,120829,,,,,,,,,,,,,,,,,Greater,Smaller,,0.283620877,-0.485885417,1,0,0,RightButton,"[""RightButton""]",,,,,5,7.8331,space,,,,,,,,,,,0,5,5,5,1,1,both_wrong.png,1,RandomDot13.png,No answer,19,,,2.9701
,,,,,,,,,,,,,,,,,,,,,,,,,,,,,,,R_3Hq0pKoFXUeyfKX,1,2024-05-14_12h57.05.495,interaction task,2021.2.3,MacIntel,61.34969325,120829,,,,,,,,,,,,,,,,,Greater,Smaller,,0.306776259,-0.488472222,1,0,0,RightButton,"[""RightButton""]",,,,,,,,,,,,,100,4.9471,space,0,7.1815,0,6,6,6,1,2,only_sub_right.png,3,RandomDot22.png,No answer,20,1.2836,,
,,,,,,,,,,,,,,,,,,,,,,,,,,,,,,,R_3Hq0pKoFXUeyfKX,1,2024-05-14_12h57.05.495,interaction task,2021.2.3,MacIntel,61.34969325,120829,,,,,,,,,,,,,,,,,Smaller,Greater,,0.313926866,-0.487326389,1,0,0,RightButton,"[""RightButton""]",,,,,,,,70,7.532,space,20,20.6987,,,,,,0,7,7,7,1,3,only_sub_wrong.png,2,RandomDot17.png,No answer,19,,7.9518,
,,,,,,,,,,,,,,,,,,,,,,,,,,,,,,,R_3Hq0pKoFXUeyfKX,1,2024-05-14_12h57.05.495,interaction task,2021.2.3,MacIntel,61.34969325,120829,,,,,,,,,,,,,,,,,Smaller,Greater,,0.248714193,-0.519635417,1,0,0,RightButton,"[""RightButton""]",,,,,4.971137153,8.028,space,,,,,,,,,,,0,8,8,8,1,2,only_sub_right.png,1,RandomDot14.png,No answer,20,,,1.5236
,,,,,,,,,,,,,,,,,,,,,,,,,,,,,,,R_3Hq0pKoFXUeyfKX,1,2024-05-14_12h57.05.495,interaction task,2021.2.3,MacIntel,61.34969325,120829,,,,,,,,,,,,,,,,,Greater,Smaller,,-0.241498481,-0.495954861,1,0,0,LeftButton,"[""LeftButton""]",,,,,,,,57,2.7619,space,9,4.7831,,,,,,0,9,9,9,1,2,only_sub_right.png,2,RandomDot36.png,No answer,21,,0.6696,
,,,,,,,,,,,,,,,,,,,,,,,,,,,,,,,R_3Hq0pKoFXUeyfKX,1,2024-05-14_12h57.05.495,interaction task,2021.2.3,MacIntel,61.34969325,120829,,,,,,,,,,,,,,,,,Smaller,Greater,,-0.244965278,-0.526475694,1,0,0,LeftButton,"[""LeftButton""]",,,,,4.969753689,2.6486,space,,,,,,,,,,,0,10,10,10,1,3,only_sub_wrong.png,1,RandomDot22.png,No answer,20,,,1.083
,,,,,,,,,,,,,,,,,,,,,,,,,,,,,,,R_3Hq0pKoFXUeyfKX,1,2024-05-14_12h57.05.495,interaction task,2021.2.3,MacIntel,61.34969325,120829,,,,,,,,,,,,,,,,,Greater,Smaller,,-0.273665365,-0.53359375,1,0,0,LeftButton,"[""LeftButton""]",,,,,,,,60,4.1993,space,11,6.2014,,,,,,0,11,11,11,1,3,only_sub_wrong.png,2,RandomDot13.png,No answer,21,,0.5181,
,,,,,,,,,,,,,,,,,,,,,,,,,,,,,,,R_3Hq0pKoFXUeyfKX,1,2024-05-14_12h57.05.495,interaction task,2021.2.3,MacIntel,61.34969325,120829,,,,,,,,,,,,,,,,,Greater,Smaller,,-0.241878255,-0.508975694,1,0,0,LeftButton,"[""LeftButton""]",,,,,,,,,,,,,49.79394641,4.0992,space,20.73819795,6.2318,0,12,12,12,1,3,only_sub_wrong.png,3,RandomDot17.png,No answer,19,0.5503,,
,,,,,,,,,,,,,,,,,,,,,,,,,,,,,,,R_3Hq0pKoFXUeyfKX,1,2024-05-14_12h57.05.495,interaction task,2021.2.3,MacIntel,61.34969325,120829,,,,,,,,,,,,,,,,,Smaller,Greater,,0.324126519,-0.471302083,1,0,0,RightButton,"[""RightButton""]",59,3.3457,space,0.6377,,,,,,,,,,,,,,0,13,13,13,1,2,only_sub_right.png,0,RandomDot37.png,No answer,21,,,
,,,,,,,,,,,,,,,,,,,,,,,,,,,,,,,R_3Hq0pKoFXUeyfKX,1,2024-05-14_12h57.05.495,interaction task,2021.2.3,MacIntel,61.34969325,120829,,,,,,,,,,,,,,,,,Smaller,Greater,,0.302338325,-0.474435764,1,0,0,RightButton,"[""RightButton""]",,,,,,,,,,,,,40.1719013,5.1622,space,69.96746984,6.3134,0,14,14,14,1,3,only_sub_wrong.png,3,RandomDot7.png,No answer,19,0.6474,,
,,,,,,,,,,,,,,,,,,,,,,,,,,,,,,,R_3Hq0pKoFXUeyfKX,1,2024-05-14_12h57.05.495,interaction task,2021.2.3,MacIntel,61.34969325,120829,,,,,,,,,,,,,,,,,Smaller,Greater,,-0.284266493,-0.499279514,1,0,0,LeftButton,"[""LeftButton""]",,,,,,,,,,,,,49.6278979,1.3842,space,39.63429872,4.7121,0,15,15,15,1,1,both_wrong.png,3,RandomDot25.png,No answer,21,0.7856,,
,,,,,,,,,,,,,,,,,,,,,,,,,,,,,,,R_3Hq0pKoFXUeyfKX,1,2024-05-14_12h57.05.495,interaction task,2021.2.3,MacIntel,61.34969325,120829,,,,,,,,,,,,,,,,,Greater,Smaller,,0.269151476,-0.500980903,1,0,0,RightButton,"[""RightButton""]",,,,,,,,70,2.8186,space,10,5.3672,,,,,,0,16,16,16,1,1,both_wrong.png,2,RandomDot24.png,No answer,19,,1.0559,
,,,,,,,,,,,,,,,,,,,,,,,,,,,,,,,R_3Hq0pKoFXUeyfKX,1,2024-05-14_12h57.05.495,interaction task,2021.2.3,MacIntel,61.34969325,120829,,,,,,,,,,,,,,,,,Greater,Smaller,,0.306374783,-0.520824653,1,0,0,RightButton,"[""RightButton""]",,,,,4.977945964,1.9015,space,,,,,,,,,,,0,17,17,17,1,3,only_sub_wrong.png,1,RandomDot36.png,No answer,19,,,0.8888
,,,,,,,,,,,,,,,,,,,,,,,,,,,,,,,R_3Hq0pKoFXUeyfKX,1,2024-05-14_12h57.05.495,interaction task,2021.2.3,MacIntel,61.34969325,120829,,,,,,,,,,,,,,,,,Smaller,Greater,,0.27726237,-0.481927083,1,0,0,RightButton,"[""RightButton""]",,,,,4.999674479,1.8004,space,,,,,,,,,,,0,18,18,18,1,2,only_sub_right.png,1,RandomDot34.png,No answer,19,,,0.8839
,,,,,,,,,,,,,,,,,,,,,,,,,,,,,,,R_3Hq0pKoFXUeyfKX,1,2024-05-14_12h57.05.495,interaction task,2021.2.3,MacIntel,61.34969325,120829,,,,,,,,,,,,,,,,,Greater,Smaller,,-0.300168186,-0.540911458,1,0,0,LeftButton,"[""LeftButton""]",69,4.0363,space,1.3072,,,,,,,,,,,,,,0,19,19,19,1,3,only_sub_wrong.png,0,RandomDot15.png,No answer,20,,,
,,,,,,,,,,,,,,,,,,,,,,,,,,,,,,,R_3Hq0pKoFXUeyfKX,1,2024-05-14_12h57.05.495,interaction task,2021.2.3,MacIntel,61.34969325,120829,,,,,,,,,,,,,,,,,Greater,Smaller,,0.258870443,-0.494340278,1,0,0,RightButton,"[""RightButton""]",,,,,,,,,,,,,,,,,,0,20,20,20,1,5,both_right.png,10,RandomDot42.png,RightButton,20,,,
,,,,,,,,,,,,,,,,,,,,,,,,,,,,,,,R_3Hq0pKoFXUeyfKX,1,2024-05-14_12h57.05.495,interaction task,2021.2.3,MacIntel,61.34969325,120829,,,,,,,,,,,,,,,,,Smaller,Greater,,0.235432943,-0.543359375,1,0,0,RightButton,"[""RightButton""]",,,,,4.985839844,2.7118,space,,,,,,,,,,,0,21,21,21,1,2,only_sub_right.png,1,RandomDot27.png,No answer,21,,,0.8511
,,,,,,,,,,,,,,,,,,,,,,,,,,,,,,,R_3Hq0pKoFXUeyfKX,1,2024-05-14_12h57.05.495,interaction task,2021.2.3,MacIntel,61.34969325,120829,,,,,,,,,,,,,,,,,Greater,Smaller,,0.258713108,-0.516493056,1,0,0,RightButton,"[""RightButton""]",60,1.7015,space,0.5669,,,,,,,,,,,,,,0,22,22,22,1,1,both_wrong.png,0,RandomDot16.png,No answer,19,,,
,,,,,,,,,,,,,,,,,,,,,,,,,,,,,,,R_3Hq0pKoFXUeyfKX,1,2024-05-14_12h57.05.495,interaction task,2021.2.3,MacIntel,61.34969325,120829,,,,,,,,,,,,,,,,,Smaller,Greater,,0.262928602,-0.498125,1,0,0,RightButton,"[""RightButton""]",70,2.0019,space,0.5011,,,,,,,,,,,,,,0,23,23,23,1,1,both_wrong.png,0,RandomDot14.png,No answer,21,,,
,,,,,,,,,,,,,,,,,,,,,,,,,,,,,,,R_3Hq0pKoFXUeyfKX,1,2024-05-14_12h57.05.495,interaction task,2021.2.3,MacIntel,61.34969325,120829,,,,,,,,,,,,,,,,,Smaller,Greater,,0.209179687,-0.50734375,1,0,0,RightButton,"[""RightButton""]",,,,,,,,,,,,,80.28713787,3.5921,space,50.58692393,6.0643,0,24,24,24,1,1,both_wrong.png,3,RandomDot12.png,No answer,19,0.4052,,
,,,,,,,,,,,,,,,,,,,,,,,,,,,,,,,R_3Hq0pKoFXUeyfKX,1,2024-05-14_12h57.05.495,interaction task,2021.2.3,MacIntel,61.34969325,120829,,,,,,,,,,,,,,,,,Smaller,Greater,,0.250227865,-0.471163194,1,0,0,RightButton,"[""RightButton""]",,,,,,,,79,3.3802,space,20,5.084,,,,,,0,25,25,25,1,2,only_sub_right.png,2,RandomDot22.png,No answer,20,,0.305,
,,,,,,,,,,,,,,,,,,,,,,,,,,,,,,,R_3Hq0pKoFXUeyfKX,1,2024-05-14_12h57.05.495,interaction task,2021.2.3,MacIntel,61.34969325,120829,,,,,,,,,,,,,,,,,Smaller,Greater,,0.266796875,-0.49984375,1,0,0,RightButton,"[""RightButton""]",,,,,,,,19,3.482,space,30,6.2337,,,,,,0,26,26,26,1,2,only_sub_right.png,2,RandomDot22.png,No answer,19,,0.821,
,,,,,,,,,,,,,,,,,,,,,,,,,,,,,,,R_3Hq0pKoFXUeyfKX,1,2024-05-14_12h57.05.495,interaction task,2021.2.3,MacIntel,61.34969325,120829,,,,,,,,,,,,,,,,,Smaller,Greater,,0.290700955,-0.504418403,1,0,0,RightButton,"[""RightButton""]",,,,,,,,,,,,,,,,,,0,27,27,27,1,4,both_right.png,10,RandomDot41.png,RightButton,5,,,
,,,,,,,,,,,,,,,,,,,,,,,,,,,,,,,R_3Hq0pKoFXUeyfKX,1,2024-05-14_12h57.05.495,interaction task,2021.2.3,MacIntel,61.34969325,120829,,,,,,,,,,,,,,,,,Smaller,Greater,,-0.30851237,-0.5103125,1,0,0,LeftButton,"[""LeftButton""]",19,2.786,space,0.7507,,,,,,,,,,,,,,0,28,28,28,1,2,only_sub_right.png,0,RandomDot21.png,No answer,21,,,
,,,,,,,,,,,,,,,,,,,,,,,,,,,,,,,R_3Hq0pKoFXUeyfKX,1,2024-05-14_12h57.05.495,interaction task,2021.2.3,MacIntel,61.34969325,120829,,,,,,,,,,,,,,,,,Smaller,Greater,,0.359195964,-0.493385417,1,0,0,RightButton,"[""RightButton""]",,,,,,,,,,,,,78.82448618,3.4408,space,9.586643343,5.9635,0,29,29,29,1,2,only_sub_right.png,3,RandomDot18.png,No answer,20,0.2794,,
,,,,,,,,,,,,,,,,,,,,,,,,,,,,,,,R_3Hq0pKoFXUeyfKX,1,2024-05-14_12h57.05.495,interaction task,2021.2.3,MacIntel,61.34969325,120829,,,,,,,,,,,,,,,,,Greater,Smaller,,0.323996311,-0.544322917,1,0,0,RightButton,"[""RightButton""]",,,,,,,,30,4.7155,space,4,5.9996,,,,,,0,30,30,30,1,1,both_wrong.png,2,RandomDot16.png,No answer,20,,0.1844,
,,,,,,,,,,,,,,,,,,,,,,,,,,,,,,,R_3Hq0pKoFXUeyfKX,1,2024-05-14_12h57.05.495,interaction task,2021.2.3,MacIntel,61.34969325,120829,,,,,,,,,,,,,,,,,Greater,Smaller,,0.311686198,-0.512977431,1,0,0,RightButton,"[""RightButton""]",,,,,4.988335503,1.7341,space,,,,,,,,,,,0,31,31,31,1,3,only_sub_wrong.png,1,RandomDot8.png,No answer,21,,,0.6833
,,,,,,,,,,,,,,,,,,,,,,,,,,,,,,,R_3Hq0pKoFXUeyfKX,1,2024-05-14_12h57.05.495,interaction task,2021.2.3,MacIntel,61.34969325,120829,,,,,,,,,,,,,,,,,Greater,Smaller,,0.301437717,-0.513541667,1,0,0,RightButton,"[""RightButton""]",10,3.3613,space,0.4673,,,,,,,,,,,,,,0,32,32,32,1,1,both_wrong.png,0,RandomDot24.png,No answer,21,,,
,,,,,,,,,,,,,,,,,,,,,,,,,,,,,,,R_3Hq0pKoFXUeyfKX,1,2024-05-14_12h57.05.495,interaction task,2021.2.3,MacIntel,61.34969325,120829,,,,,,,,,,,,,,,,,Greater,Smaller,,-0.278385417,-0.490772569,1,0,0,LeftButton,"[""LeftButton""]",4,0.9553,space,0.6658,,,,,,,,,,,,,,0,33,33,33,1,2,only_sub_right.png,0,RandomDot18.png,No answer,21,,,
,,,,,,,,,,,,,,,,,,,,,,,,,,,,,,,R_3Hq0pKoFXUeyfKX,1,2024-05-14_12h57.05.495,interaction task,2021.2.3,MacIntel,61.34969325,120829,,,,,,,,,,,,,,,,,Greater,Smaller,,0.254465061,-0.513454861,1,0,0,RightButton,"[""RightButton""]",,,,,,,,,,,,,,,,,,0,34,34,34,1,0,both_right.png,1,RandomDot35.png,No answer,21,,,
,,,,,,,,,,,,,,,,,,,,,,,,,,,,,,,R_3Hq0pKoFXUeyfKX,1,2024-05-14_12h57.05.495,interaction task,2021.2.3,MacIntel,61.34969325,120829,,,,,,,,,,,,,,,,,Greater,Smaller,,-0.297645399,-0.488029514,1,0,0,LeftButton,"[""LeftButton""]",,,,,,,,81,1.8733,space,8,3.1006,,,,,,0,35,35,35,1,3,only_sub_wrong.png,2,RandomDot23.png,No answer,20,,0.3516,
,,,,,,,,,,,,,,,,,,,,,,,,,,,,,,,R_3Hq0pKoFXUeyfKX,1,2024-05-14_12h57.05.495,interaction task,2021.2.3,MacIntel,61.34969325,120829,,,,,,,,,,,,,,,,,Smaller,Greater,,0.253656684,-0.523993056,1,0,0,RightButton,"[""RightButton""]",,,,,4.947021484,2.9519,space,,,,,,,,,,,0,36,36,36,1,1,both_wrong.png,1,RandomDot29.png,No answer,19,,,1.3553
,,,,,,,,,,,,,,,,,,,,,,,,,,,,,,,R_3Hq0pKoFXUeyfKX,1,2024-05-14_12h57.05.495,interaction task,2021.2.3,MacIntel,61.34969325,120829,,,,,,,,,,,,,,,,,Greater,Smaller,,0.244232856,-0.494600694,1,0,0,RightButton,"[""RightButton""]",,,,,,,,,,,,,81.95091102,3.1142,space,15.63782355,4.3313,0,37,37,37,1,1,both_wrong.png,3,RandomDot13.png,No answer,21,0.1846,,
,,,,,,,,,,,,,,,,,,,,,,,,,,,,,,,R_3Hq0pKoFXUeyfKX,1,2024-05-14_12h57.05.495,interaction task,2021.2.3,MacIntel,61.34969325,120829,,,,,,,,,,,,,,,,,Greater,Smaller,,-0.275444878,-0.502230903,1,0,0,LeftButton,"[""LeftButton""]",,,,,,,,,,,,,,,,,,0,38,38,38,1,0,both_right.png,3,RandomDot27.png,No answer,20,,,
,,,,,,,,,,,,,,,,,,,,,,,,,,,,,,,R_3Hq0pKoFXUeyfKX,1,2024-05-14_12h57.05.495,interaction task,2021.2.3,MacIntel,61.34969325,120829,,,,,,,,,,,,,,,,,Smaller,Greater,,-0.29031033,-0.524296875,1,0,0,LeftButton,"[""LeftButton""]",,,,,,,,,,,,,,,,,,0,39,39,39,1,0,both_right.png,0,RandomDot5.png,No answer,21,,,
,,,,,,,,,,,,,,,,,,,,,,,,,,,,,,,R_3Hq0pKoFXUeyfKX,1,2024-05-14_12h57.05.495,interaction task,2021.2.3,MacIntel,61.34969325,120829,,,,,,,,,,,,,,,,,Smaller,Greater,,0.26867947,-0.507439236,1,0,0,RightButton,"[""RightButton""]",,,,,,,,,,,,,19.05469627,0.8163,space,17.66821864,2.2155,0,40,40,40,1,2,only_sub_right.png,3,RandomDot7.png,No answer,20,0.8015,,
,,,,,,,,,,,,,,,,,,,,,,,,,,,,,,,R_3Hq0pKoFXUeyfKX,1,2024-05-14_12h57.05.495,interaction task,2021.2.3,MacIntel,61.34969325,120829,,,,,,,,,,,,,,,,,Greater,Smaller,,-0.310975477,-0.534296875,1,0,0,LeftButton,"[""LeftButton""]",70,2.1864,space,1.6174,,,,,,,,,,,,,,0,41,41,41,1,3,only_sub_wrong.png,0,RandomDot38.png,No answer,21,,,
