chooserow,ParID,pre_instru_resp_2.keys,pre_instru_resp_2.rt,pre_instru_resp_3.keys,pre_instru_resp_3.rt,pre_instru_resp_9.keys,pre_instru_resp_9.rt,pre_instru_resp_8.keys,pre_instru_resp_8.rt,pre_instru_resp_4.keys,pre_instru_resp_4.rt,pre_instru_resp_5.keys,pre_instru_resp_5.rt,pre_instru_resp_6.keys,pre_instru_resp_6.rt,key_resp_3.keys,key_resp_3.rt,key_resp_4.keys,key_resp_4.rt,key_resp_5.keys,key_resp_5.rt,key_resp_6.keys,key_resp_6.rt,key_resp_7.keys,key_resp_7.rt,trials_2.thisRepN,trials_2.thisTrialN,trials_2.thisN,trials_2.thisIndex,trials_2.ran,participant,session,date,expName,psychopyVersion,OS,frameRate,SONAid,pre_instru_resp.keys,pre_instru_resp.rt,clicked,judge_2.x,judge_2.y,judge_2.leftButton,judge_2.midButton,judge_2.rightButton,judge_2.clicked_name,trials.thisRepN,trials.thisTrialN,trials.thisN,trials.thisIndex,trials.ran,prac_answer,prac_dot_sti,dotlefttext,dotrighttext,prac_acc,judge.x,judge.y,judge.leftButton,judge.midButton,judge.rightButton,judge.clicked_name,clicked_guilt,slider_guilt.response,slider_guilt.rt,key_guilt.keys,share_slider.response,share_slider.rt,key_share.keys,slider_apology.response,slider_apology.rt,key_apology.keys,slider_hide.response,slider_hide.rt,slider_forgiveness.response,slider_forgiveness.rt,key_forgiveness.keys,key_forgiveness.rt,slider_mad.response,slider_mad.rt,trialseq.thisRepN,trialseq.thisTrialN,trialseq.thisN,trialseq.thisIndex,trialseq.ran,type_trial,stipic,DV,picture,answer,number,key_share.rt,key_apology.rt,key_guilt.rt
"[91,183,164,78,64,49,199,108,23,176,107,133,74,45,116,146,96,118,9,172,182,53,120,122,141,152,26,193,137,131,171,84,82,157,148,66,102,70,50,181,165,89]",R_3I4v4hVO3BKl5to,space,5.6461,space,2.1541,space,4.839,space,2.8173,space,8.4593,space,10.8544,space,1.0795,3,6.499,1,5.5134,3,4.9362,2,3.389,2,3.4936,0,0,0,0,1,R_3I4v4hVO3BKl5to,1,2024-05-28_10h32.08.936,interaction task,2021.2.3,MacIntel,63.69426752,120750,,,,,,,,,,,,,,,,,,,,,,,,,,,,,,,,,,,,,,,,,,,,,,,,,,,,,,,,,
,,,,,,,,,,,,,,,,,,,,,,,,,,,,,,,R_3I4v4hVO3BKl5to,1,2024-05-28_10h32.08.936,interaction task,2021.2.3,MacIntel,63.69426752,120750,space,4.1,"[""LeftButton_2""]",-0.288061052,-0.329326147,1,0,0,LeftButton_2,0,0,0,1,1,RightButton_2,11dot2.png,Smaller,Greater,,,,,,,,,,,,,,,,,,,,,,,,,,,,,,,,,,,,,,,
,,,,,,,,,,,,,,,,,,,,,,,,,,,,,,,R_3I4v4hVO3BKl5to,1,2024-05-28_10h32.08.936,interaction task,2021.2.3,MacIntel,63.69426752,120750,,,"[""RightButton_2""]",0.337131998,-0.340681525,1,0,0,RightButton_2,0,1,1,2,1,RightButton_2,9dot2.png,Greater,Smaller,,,,,,,,,,,,,,,,,,,,,,,,,,,,,,,,,,,,,,,
,,,,,,,,,,,,,,,,,,,,,,,,,,,,,,,R_3I4v4hVO3BKl5to,1,2024-05-28_10h32.08.936,interaction task,2021.2.3,MacIntel,63.69426752,120750,,,"[""RightButton_2""]",0.336359797,-0.340681525,1,0,0,RightButton_2,0,2,2,0,1,RightButton_2,11dot1.png,Smaller,Greater,,,,,,,,,,,,,,,,,,,,,,,,,,,,,,,,,,,,,,,
,,,,,,,,,,,,,,,,,,,,,,,,,,,,,,,R_3I4v4hVO3BKl5to,1,2024-05-28_10h32.08.936,interaction task,2021.2.3,MacIntel,63.69426752,120750,,,,,,,,,,,,,,,,,Smaller,Greater,0.4,0.284562017,-0.545633479,1,0,0,RightButton,"[""RightButton""]",,,,,,,,,,,,89.08535159,2.5196,space,1.2598,34.29578117,4.1357,0,0,0,0,1,1,both_wrong.png,3,RandomDot23.png,No answer,20,,,
,,,,,,,,,,,,,,,,,,,,,,,,,,,,,,,R_3I4v4hVO3BKl5to,1,2024-05-28_10h32.08.936,interaction task,2021.2.3,MacIntel,63.69426752,120750,,,,,,,,,,,,,,,,,Greater,Smaller,,-0.286359797,-0.521196705,1,0,0,LeftButton,"[""LeftButton""]",,,,,,,,,,,,64.90837428,2.1675,space,0.4236,42.07446082,2.9677,0,1,1,1,1,3,only_sub_wrong.png,3,RandomDot17.png,No answer,19,,,
,,,,,,,,,,,,,,,,,,,,,,,,,,,,,,,R_3I4v4hVO3BKl5to,1,2024-05-28_10h32.08.936,interaction task,2021.2.3,MacIntel,63.69426752,120750,,,,,,,,,,,,,,,,,Smaller,Greater,,0.271537162,-0.521903262,1,0,0,RightButton,"[""RightButton""]",,,,0.0234375,2.4182,space,,,,,,,,,,,,0,2,2,2,1,3,only_sub_wrong.png,1,RandomDot40.png,No answer,19,0.4744,,
,,,,,,,,,,,,,,,,,,,,,,,,,,,,,,,R_3I4v4hVO3BKl5to,1,2024-05-28_10h32.08.936,interaction task,2021.2.3,MacIntel,63.69426752,120750,,,,,,,,,,,,,,,,,Smaller,Greater,,0.296814672,-0.505924984,1,0,0,RightButton,"[""RightButton""]",,,,,,,0,4.4857,space,64,5.6192,,,,,,,0,3,3,3,1,1,both_wrong.png,2,RandomDot19.png,No answer,19,,0.4111,
,,,,,,,,,,,,,,,,,,,,,,,,,,,,,,,R_3I4v4hVO3BKl5to,1,2024-05-28_10h32.08.936,interaction task,2021.2.3,MacIntel,63.69426752,120750,,,,,,,,,,,,,,,,,Greater,Smaller,,-0.27816723,-0.509033834,1,0,0,LeftButton,"[""LeftButton""]",,,,0.024372587,4.3463,space,,,,,,,,,,,,0,4,4,4,1,1,both_wrong.png,1,RandomDot6.png,No answer,20,0.7169,,
,,,,,,,,,,,,,,,,,,,,,,,,,,,,,,,R_3I4v4hVO3BKl5to,1,2024-05-28_10h32.08.936,interaction task,2021.2.3,MacIntel,63.69426752,120750,,,,,,,,,,,,,,,,,Greater,Smaller,,-0.259821429,-0.512384932,1,0,0,LeftButton,"[""LeftButton""]",0,1.6551,space,,,,,,,,,,,,,,,0,5,5,5,1,1,both_wrong.png,0,RandomDot16.png,No answer,19,,,0.4543
,,,,,,,,,,,,,,,,,,,,,,,,,,,,,,,R_3I4v4hVO3BKl5to,1,2024-05-28_10h32.08.936,interaction task,2021.2.3,MacIntel,63.69426752,120750,,,,,,,,,,,,,,,,,Greater,Smaller,,0.32144667,-0.537720042,1,0,0,RightButton,"[""RightButton""]",,,,,,,,,,,,,,,,,,0,6,6,6,1,5,both_right.png,10,RandomDot42.png,RightButton,19,,,
,,,,,,,,,,,,,,,,,,,,,,,,,,,,,,,R_3I4v4hVO3BKl5to,1,2024-05-28_10h32.08.936,interaction task,2021.2.3,MacIntel,63.69426752,120750,,,,,,,,,,,,,,,,,Greater,Smaller,,-0.353408542,-0.504996366,1,0,0,LeftButton,"[""LeftButton""]",,,,0.005851834,1.4531,space,,,,,,,,,,,,0,7,7,7,1,2,only_sub_right.png,1,RandomDot3.png,No answer,20,0.6515,,
,,,,,,,,,,,,,,,,,,,,,,,,,,,,,,,R_3I4v4hVO3BKl5to,1,2024-05-28_10h32.08.936,interaction task,2021.2.3,MacIntel,63.69426752,120750,,,,,,,,,,,,,,,,,Smaller,Greater,,0.282287645,-0.514010013,1,0,0,RightButton,"[""RightButton""]",,,,,,,,,,,,,,,,,,0,8,8,8,1,0,both_right.png,1,RandomDot3.png,No answer,19,,,
,,,,,,,,,,,,,,,,,,,,,,,,,,,,,,,R_3I4v4hVO3BKl5to,1,2024-05-28_10h32.08.936,interaction task,2021.2.3,MacIntel,63.69426752,120750,,,,,,,,,,,,,,,,,Smaller,Greater,,0.283059846,-0.515302003,1,0,0,RightButton,"[""RightButton""]",,,,,,,0,2.5354,space,74,3.6853,,,,,,,0,9,9,9,1,3,only_sub_wrong.png,2,RandomDot40.png,No answer,20,,0.4018,
,,,,,,,,,,,,,,,,,,,,,,,,,,,,,,,R_3I4v4hVO3BKl5to,1,2024-05-28_10h32.08.936,interaction task,2021.2.3,MacIntel,63.69426752,120750,,,,,,,,,,,,,,,,,Smaller,Greater,,-0.252744932,-0.492540778,1,0,0,LeftButton,"[""LeftButton""]",0,6.3302,space,,,,,,,,,,,,,,,0,10,10,10,1,2,only_sub_right.png,0,RandomDot37.png,No answer,21,,,0.2768
,,,,,,,,,,,,,,,,,,,,,,,,,,,,,,,R_3I4v4hVO3BKl5to,1,2024-05-28_10h32.08.936,interaction task,2021.2.3,MacIntel,63.69426752,120750,,,,,,,,,,,,,,,,,Greater,Smaller,,-0.353589527,-0.499777939,1,0,0,LeftButton,"[""LeftButton""]",,,,,,,,,,,,99.87861238,2.617,space,0.5772,6.531409656,4.1836,0,11,11,11,1,2,only_sub_right.png,3,RandomDot36.png,No answer,20,,,
,,,,,,,,,,,,,,,,,,,,,,,,,,,,,,,R_3I4v4hVO3BKl5to,1,2024-05-28_10h32.08.936,interaction task,2021.2.3,MacIntel,63.69426752,120750,,,,,,,,,,,,,,,,,Greater,Smaller,,-0.290522442,-0.512697836,1,0,0,LeftButton,"[""LeftButton""]",,,,,,,0,1.7696,space,75,2.7366,,,,,,,0,12,12,12,1,1,both_wrong.png,2,RandomDot16.png,No answer,20,,0.4518,
,,,,,,,,,,,,,,,,,,,,,,,,,,,,,,,R_3I4v4hVO3BKl5to,1,2024-05-28_10h32.08.936,interaction task,2021.2.3,MacIntel,63.69426752,120750,,,,,,,,,,,,,,,,,Smaller,Greater,,-0.243297539,-0.528464147,1,0,0,LeftButton,"[""LeftButton""]",,,,,,,,,,,,,,,,,,0,13,13,13,1,0,both_right.png,3,RandomDot13.png,No answer,20,,,
,,,,,,,,,,,,,,,,,,,,,,,,,,,,,,,R_3I4v4hVO3BKl5to,1,2024-05-28_10h32.08.936,interaction task,2021.2.3,MacIntel,63.69426752,120750,,,,,,,,,,,,,,,,,Smaller,Greater,,-0.244492037,-0.528464147,1,0,0,LeftButton,"[""LeftButton""]",,,,0.037554295,3.2116,space,,,,,,,,,,,,0,14,14,14,1,2,only_sub_right.png,1,RandomDot25.png,No answer,19,0.6175,,
,,,,,,,,,,,,,,,,,,,,,,,,,,,,,,,R_3I4v4hVO3BKl5to,1,2024-05-28_10h32.08.936,interaction task,2021.2.3,MacIntel,63.69426752,120750,,,,,,,,,,,,,,,,,Greater,Smaller,,0.281026786,-0.48828125,1,0,0,RightButton,"[""RightButton""]",0,6.7461,space,,,,,,,,,,,,,,,0,15,15,15,1,3,only_sub_wrong.png,0,RandomDot38.png,No answer,21,,,0.1761
,,,,,,,,,,,,,,,,,,,,,,,,,,,,,,,R_3I4v4hVO3BKl5to,1,2024-05-28_10h32.08.936,interaction task,2021.2.3,MacIntel,63.69426752,120750,,,,,,,,,,,,,,,,,Greater,Smaller,,-0.24554778,-0.476966247,1,0,0,LeftButton,"[""LeftButton""]",0,7.0461,space,,,,,,,,,,,,,,,0,16,16,16,1,2,only_sub_right.png,0,RandomDot26.png,No answer,19,,,0.1802
,,,,,,,,,,,,,,,,,,,,,,,,,,,,,,,R_3I4v4hVO3BKl5to,1,2024-05-28_10h32.08.936,interaction task,2021.2.3,MacIntel,63.69426752,120750,,,,,,,,,,,,,,,,,Smaller,Greater,,-0.293924952,-0.525789325,1,0,0,LeftButton,"[""LeftButton""]",,,,0.028836873,2.2202,space,,,,,,,,,,,,0,17,17,17,1,2,only_sub_right.png,1,RandomDot34.png,No answer,19,0.292,,
,,,,,,,,,,,,,,,,,,,,,,,,,,,,,,,R_3I4v4hVO3BKl5to,1,2024-05-28_10h32.08.936,interaction task,2021.2.3,MacIntel,63.69426752,120750,,,,,,,,,,,,,,,,,Smaller,Greater,,-0.292591699,-0.490794574,1,0,0,LeftButton,"[""LeftButton""]",,,,,,,,,,,,,,,,,,0,18,18,18,1,0,both_right.png,0,RandomDot5.png,No answer,21,,,
,,,,,,,,,,,,,,,,,,,,,,,,,,,,,,,R_3I4v4hVO3BKl5to,1,2024-05-28_10h32.08.936,interaction task,2021.2.3,MacIntel,63.69426752,120750,,,,,,,,,,,,,,,,,Greater,Smaller,,-0.292591699,-0.490794574,1,0,0,LeftButton,"[""LeftButton""]",,,,,,,1,14.7789,space,87,16.1705,,,,,,,0,19,19,19,1,3,only_sub_wrong.png,2,RandomDot38.png,No answer,21,,0.2668,
,,,,,,,,,,,,,,,,,,,,,,,,,,,,,,,R_3I4v4hVO3BKl5to,1,2024-05-28_10h32.08.936,interaction task,2021.2.3,MacIntel,63.69426752,120750,,,,,,,,,,,,,,,,,Greater,Smaller,,0.336178813,-0.531865714,1,0,0,RightButton,"[""RightButton""]",,,,,,,,,,,,73.68460181,2.0518,space,0.2938,28.24102512,2.8518,0,20,20,20,1,3,only_sub_wrong.png,3,RandomDot8.png,No answer,21,,,
,,,,,,,,,,,,,,,,,,,,,,,,,,,,,,,R_3I4v4hVO3BKl5to,1,2024-05-28_10h32.08.936,interaction task,2021.2.3,MacIntel,63.69426752,120750,,,,,,,,,,,,,,,,,Greater,Smaller,,-0.329482384,-0.516240714,1,0,0,LeftButton,"[""LeftButton""]",0,4.3782,space,,,,,,,,,,,,,,,0,21,21,21,1,1,both_wrong.png,0,RandomDot32.png,No answer,19,,,1.2656
,,,,,,,,,,,,,,,,,,,,,,,,,,,,,,,R_3I4v4hVO3BKl5to,1,2024-05-28_10h32.08.936,interaction task,2021.2.3,MacIntel,63.69426752,120750,,,,,,,,,,,,,,,,,Greater,Smaller,,0.31879223,-0.518521883,1,0,0,RightButton,"[""RightButton""]",,,,,,,0,3.7445,space,68,5.0364,,,,,,,0,22,22,22,1,2,only_sub_right.png,2,RandomDot21.png,No answer,21,,3.0053,
,,,,,,,,,,,,,,,,,,,,,,,,,,,,,,,R_3I4v4hVO3BKl5to,1,2024-05-28_10h32.08.936,interaction task,2021.2.3,MacIntel,63.69426752,120750,,,,,,,,,,,,,,,,,Greater,Smaller,,-0.26500362,-0.510850694,1,0,0,LeftButton,"[""LeftButton""]",,,,,,,0,3.311,space,92,5.1197,,,,,,,0,23,23,23,1,2,only_sub_right.png,2,RandomDot33.png,No answer,20,,0.2669,
,,,,,,,,,,,,,,,,,,,,,,,,,,,,,,,R_3I4v4hVO3BKl5to,1,2024-05-28_10h32.08.936,interaction task,2021.2.3,MacIntel,63.69426752,120750,,,,,,,,,,,,,,,,,Smaller,Greater,,-0.241650579,-0.512536337,1,0,0,LeftButton,"[""LeftButton""]",,,,,,,,,,,,86.64845852,2.4282,space,0.3772,11.73060236,3.6687,0,24,24,24,1,2,only_sub_right.png,3,RandomDot7.png,No answer,20,,,
,,,,,,,,,,,,,,,,,,,,,,,,,,,,,,,R_3I4v4hVO3BKl5to,1,2024-05-28_10h32.08.936,interaction task,2021.2.3,MacIntel,63.69426752,120750,,,,,,,,,,,,,,,,,Smaller,Greater,,-0.276960666,-0.477915052,1,0,0,LeftButton,"[""LeftButton""]",0,3.088,space,,,,,,,,,,,,,,,0,25,25,25,1,3,only_sub_wrong.png,0,RandomDot9.png,No answer,19,,,0.2441
,,,,,,,,,,,,,,,,,,,,,,,,,,,,,,,R_3I4v4hVO3BKl5to,1,2024-05-28_10h32.08.936,interaction task,2021.2.3,MacIntel,63.69426752,120750,,,,,,,,,,,,,,,,,Greater,Smaller,,-0.267887307,-0.541777697,1,0,0,LeftButton,"[""LeftButton""]",,,,,,,,,,,,,,,,,,0,26,26,26,1,0,both_right.png,2,RandomDot36.png,No answer,19,,,
,,,,,,,,,,,,,,,,,,,,,,,,,,,,,,,R_3I4v4hVO3BKl5to,1,2024-05-28_10h32.08.936,interaction task,2021.2.3,MacIntel,63.69426752,120750,,,,,,,,,,,,,,,,,Greater,Smaller,,0.22457167,-0.49889979,1,0,0,RightButton,"[""RightButton""]",,,,,,,,,,,,,,,,,,0,27,27,27,1,4,both_right.png,10,RandomDot41.png,LeftButton,5,,,
,,,,,,,,,,,,,,,,,,,,,,,,,,,,,,,R_3I4v4hVO3BKl5to,1,2024-05-28_10h32.08.936,interaction task,2021.2.3,MacIntel,63.69426752,120750,,,,,,,,,,,,,,,,,Greater,Smaller,,0.278698118,-0.500514777,1,0,0,RightButton,"[""RightButton""]",,,,,,,,,,,,76.26652627,1.7005,space,0.5853,3.726453726,2.4172,0,28,28,28,1,2,only_sub_right.png,3,RandomDot23.png,No answer,20,,,
,,,,,,,,,,,,,,,,,,,,,,,,,,,,,,,R_3I4v4hVO3BKl5to,1,2024-05-28_10h32.08.936,interaction task,2021.2.3,MacIntel,63.69426752,120750,,,,,,,,,,,,,,,,,Smaller,Greater,,-0.259634411,-0.506177326,1,0,0,LeftButton,"[""LeftButton""]",,,,,,,10,5.2147,space,74,6.1646,,,,,,,0,29,29,29,1,2,only_sub_right.png,2,RandomDot5.png,No answer,21,,3.1694,
,,,,,,,,,,,,,,,,,,,,,,,,,,,,,,,R_3I4v4hVO3BKl5to,1,2024-05-28_10h32.08.936,interaction task,2021.2.3,MacIntel,63.69426752,120750,,,,,,,,,,,,,,,,,Greater,Smaller,,-0.312596525,-0.495336725,1,0,0,LeftButton,"[""LeftButton""]",,,,,,,0,3.529,space,63,4.7208,,,,,,,0,30,30,30,1,3,only_sub_wrong.png,2,RandomDot23.png,No answer,20,,0.4892,
,,,,,,,,,,,,,,,,,,,,,,,,,,,,,,,R_3I4v4hVO3BKl5to,1,2024-05-28_10h32.08.936,interaction task,2021.2.3,MacIntel,63.69426752,120750,,,,,,,,,,,,,,,,,Greater,Smaller,,-0.327401062,-0.514787225,1,0,0,LeftButton,"[""LeftButton""]",,,,,,,,,,,,78.86673199,6.2937,space,0.423,8.105426855,7.4353,0,31,31,31,1,1,both_wrong.png,3,RandomDot6.png,No answer,20,,,
,,,,,,,,,,,,,,,,,,,,,,,,,,,,,,,R_3I4v4hVO3BKl5to,1,2024-05-28_10h32.08.936,interaction task,2021.2.3,MacIntel,63.69426752,120750,,,,,,,,,,,,,,,,,Smaller,Greater,,-0.288694498,-0.494246609,1,0,0,LeftButton,"[""LeftButton""]",,,,,,,0,4.0616,space,85,5.037,,,,,,,0,32,32,32,1,1,both_wrong.png,2,RandomDot7.png,No answer,21,,0.335,
,,,,,,,,,,,,,,,,,,,,,,,,,,,,,,,R_3I4v4hVO3BKl5to,1,2024-05-28_10h32.08.936,interaction task,2021.2.3,MacIntel,63.69426752,120750,,,,,,,,,,,,,,,,,Greater,Smaller,,0.319558398,-0.513222707,1,0,0,RightButton,"[""RightButton""]",,,,0.033421815,3.7787,space,,,,,,,,,,,,0,33,33,33,1,3,only_sub_wrong.png,1,RandomDot8.png,No answer,21,0.6826,,
,,,,,,,,,,,,,,,,,,,,,,,,,,,,,,,R_3I4v4hVO3BKl5to,1,2024-05-28_10h32.08.936,interaction task,2021.2.3,MacIntel,63.69426752,120750,,,,,,,,,,,,,,,,,Greater,Smaller,,-0.312741313,-0.510245074,1,0,0,LeftButton,"[""LeftButton""]",0,2.6379,space,,,,,,,,,,,,,,,0,34,34,34,1,3,only_sub_wrong.png,0,RandomDot12.png,No answer,20,,,0.5196
,,,,,,,,,,,,,,,,,,,,,,,,,,,,,,,R_3I4v4hVO3BKl5to,1,2024-05-28_10h32.08.936,interaction task,2021.2.3,MacIntel,63.69426752,120750,,,,,,,,,,,,,,,,,Smaller,Greater,,-0.303861004,-0.529120236,1,0,0,LeftButton,"[""LeftButton""]",,,,0.09308639,7.4627,space,,,,,,,,,,,,0,35,35,35,1,1,both_wrong.png,1,RandomDot10.png,No answer,19,0.654,,
,,,,,,,,,,,,,,,,,,,,,,,,,,,,,,,R_3I4v4hVO3BKl5to,1,2024-05-28_10h32.08.936,interaction task,2021.2.3,MacIntel,63.69426752,120750,,,,,,,,,,,,,,,,,Smaller,Greater,,0.267814913,-0.498304264,1,0,0,RightButton,"[""RightButton""]",0,3.6129,space,,,,,,,,,,,,,,,0,36,36,36,1,2,only_sub_right.png,0,RandomDot16.png,No answer,21,,,0.3892
,,,,,,,,,,,,,,,,,,,,,,,,,,,,,,,R_3I4v4hVO3BKl5to,1,2024-05-28_10h32.08.936,interaction task,2021.2.3,MacIntel,63.69426752,120750,,,,,,,,,,,,,,,,,Smaller,Greater,,0.331117278,-0.521650921,1,0,0,RightButton,"[""RightButton""]",,,,0.024191602,2.1032,space,,,,,,,,,,,,0,37,37,37,1,1,both_wrong.png,1,RandomDot29.png,No answer,19,0.4851,,
,,,,,,,,,,,,,,,,,,,,,,,,,,,,,,,R_3I4v4hVO3BKl5to,1,2024-05-28_10h32.08.936,interaction task,2021.2.3,MacIntel,63.69426752,120750,,,,,,,,,,,,,,,,,Greater,Smaller,,-0.301876207,-0.509306363,1,0,0,LeftButton,"[""LeftButton""]",0,3.9295,space,,,,,,,,,,,,,,,0,38,38,38,1,1,both_wrong.png,0,RandomDot12.png,No answer,21,,,0.3334
,,,,,,,,,,,,,,,,,,,,,,,,,,,,,,,R_3I4v4hVO3BKl5to,1,2024-05-28_10h32.08.936,interaction task,2021.2.3,MacIntel,63.69426752,120750,,,,,,,,,,,,,,,,,Greater,Smaller,,-0.290401786,-0.493449209,1,0,0,LeftButton,"[""LeftButton""]",,,,,,,,,,,,71.03564604,2.1848,space,0.9077,4.043938419,3.3012,0,39,39,39,1,3,only_sub_wrong.png,3,RandomDot3.png,No answer,19,,,
,,,,,,,,,,,,,,,,,,,,,,,,,,,,,,,R_3I4v4hVO3BKl5to,1,2024-05-28_10h32.08.936,interaction task,2021.2.3,MacIntel,63.69426752,120750,,,,,,,,,,,,,,,,,Smaller,Greater,,0.25875362,-0.511971092,1,0,0,RightButton,"[""RightButton""]",,,,0.032607384,2.7199,space,,,,,,,,,,,,0,40,40,40,1,3,only_sub_wrong.png,1,RandomDot6.png,No answer,21,0.273,,
,,,,,,,,,,,,,,,,,,,,,,,,,,,,,,,R_3I4v4hVO3BKl5to,1,2024-05-28_10h32.08.936,interaction task,2021.2.3,MacIntel,63.69426752,120750,,,,,,,,,,,,,,,,,Greater,Smaller,,0.346500965,-0.528534803,1,0,0,RightButton,"[""RightButton""]",,,,,,,,,,,,76.04897917,5.2432,space,0.2276,5.188955189,6.0686,0,41,41,41,1,1,both_wrong.png,3,RandomDot6.png,No answer,21,,,
