chooserow,ParID,pre_instru_resp_2.keys,pre_instru_resp_2.rt,pre_instru_resp_3.keys,pre_instru_resp_3.rt,pre_instru_resp_9.keys,pre_instru_resp_9.rt,pre_instru_resp_8.keys,pre_instru_resp_8.rt,pre_instru_resp_4.keys,pre_instru_resp_4.rt,pre_instru_resp_5.keys,pre_instru_resp_5.rt,pre_instru_resp_6.keys,pre_instru_resp_6.rt,key_resp_3.keys,key_resp_3.rt,key_resp_4.keys,key_resp_4.rt,key_resp_5.keys,key_resp_5.rt,key_resp_6.keys,key_resp_6.rt,key_resp_7.keys,key_resp_7.rt,trials_2.thisRepN,trials_2.thisTrialN,trials_2.thisN,trials_2.thisIndex,trials_2.ran,participant,session,date,expName,psychopyVersion,OS,frameRate,SONAid,pre_instru_resp.keys,pre_instru_resp.rt,clicked,judge_2.x,judge_2.y,judge_2.leftButton,judge_2.midButton,judge_2.rightButton,judge_2.clicked_name,trials.thisRepN,trials.thisTrialN,trials.thisN,trials.thisIndex,trials.ran,prac_answer,prac_dot_sti,dotlefttext,dotrighttext,prac_acc,judge.x,judge.y,judge.leftButton,judge.midButton,judge.rightButton,judge.clicked_name,clicked_guilt,slider_guilt.response,slider_guilt.rt,key_guilt.keys,share_slider.response,share_slider.rt,key_share.keys,key_share.rt,slider_apology.response,slider_apology.rt,key_apology.keys,slider_hide.response,slider_hide.rt,slider_forgiveness.response,slider_forgiveness.rt,key_forgiveness.keys,slider_mad.response,slider_mad.rt,trialseq.thisRepN,trialseq.thisTrialN,trialseq.thisN,trialseq.thisIndex,trialseq.ran,type_trial,stipic,DV,picture,answer,number,key_guilt.rt,key_forgiveness.rt,key_apology.rt
"[109,5,56,157,92,138,147,83,124,117,105,199,71,116,182,184,75,151,158,41,73,167,101,176,68,125,60,132,120,195,90,170,103,133,49,190,14,48,175,88,24,146]",R_3JqODn0dO2tMalP,space,2.3582,space,5.1459,space,20.9479,space,30.0822,space,40.5313,space,9.157,space,6.9257,3,8.4287,1,18.3128,3,18.3852,1,9.2352,2,21.2504,0,0,0,0,1,R_3JqODn0dO2tMalP,1,2024-05-20_11h33.47.613,interaction task,2021.2.3,Win32,59.52380952,120638,,,,,,,,,,,,,,,,,,,,,,,,,,,,,,,,,,,,,,,,,,,,,,,,,,,,,,,,,
,,,,space,2.0656,space,5.1749,space,1.3094,space,22.1409,space,2.3023,space,0.6499,3,3.6291,1,6.9517,3,5.8107,2,3.1636,2,3.0556,1,0,1,0,1,R_3JqODn0dO2tMalP,1,2024-05-20_11h33.47.613,interaction task,2021.2.3,Win32,59.52380952,120638,,,,,,,,,,,,,,,,,,,,,,,,,,,,,,,,,,,,,,,,,,,,,,,,,,,,,,,,,
,,,,,,,,,,,,,,,,,,,,,,,,,,,,,,,R_3JqODn0dO2tMalP,1,2024-05-20_11h33.47.613,interaction task,2021.2.3,Win32,59.52380952,120638,space,5.4552,"[""LeftButton_2""]",-0.244509517,-0.3515625,1,0,0,LeftButton_2,0,0,0,1,1,RightButton_2,11dot2.png,Smaller,Greater,,,,,,,,,,,,,,,,,,,,,,,,,,,,,,,,,,,,,,,
,,,,,,,,,,,,,,,,,,,,,,,,,,,,,,,R_3JqODn0dO2tMalP,1,2024-05-20_11h33.47.613,interaction task,2021.2.3,Win32,59.52380952,120638,,,"[""LeftButton_2""]",-0.276720351,-0.3515625,1,0,0,LeftButton_2,0,1,1,2,1,LeftButton_2,9dot1.png,Smaller,Greater,,,,,,,,,,,,,,,,,,,,,,,,,,,,,,,,,,,,,,,
,,,,,,,,,,,,,,,,,,,,,,,,,,,,,,,R_3JqODn0dO2tMalP,1,2024-05-20_11h33.47.613,interaction task,2021.2.3,Win32,59.52380952,120638,,,"[""RightButton_2""]",0.273792094,-0.283854167,1,0,0,RightButton_2,0,2,2,0,1,LeftButton_2,9dot2.png,Smaller,Greater,,,,,,,,,,,,,,,,,,,,,,,,,,,,,,,,,,,,,,,
,,,,,,,,,,,,,,,,,,,,,,,,,,,,,,,R_3JqODn0dO2tMalP,1,2024-05-20_11h33.47.613,interaction task,2021.2.3,Win32,59.52380952,120638,,,,,,,,,,,,,,,,,Greater,Smaller,0.2,-0.298682284,-0.536458333,1,0,0,LeftButton,"[""LeftButton""]",,,,3.019765739,15.2007,space,5.6927,,,,,,,,,,,0,0,0,0,1,2,only_sub_right.png,1,RandomDot3.png,No answer,19,,,
,,,,,,,,,,,,,,,,,,,,,,,,,,,,,,,R_3JqODn0dO2tMalP,1,2024-05-20_11h33.47.613,interaction task,2021.2.3,Win32,59.52380952,120638,,,,,,,,,,,,,,,,,Greater,Smaller,,-0.247437775,-0.510416667,1,0,0,LeftButton,"[""LeftButton""]",,,,,,,,,,,,,,,,,,0,1,1,1,1,0,both_right.png,0,RandomDot2.png,No answer,19,,,
,,,,,,,,,,,,,,,,,,,,,,,,,,,,,,,R_3JqODn0dO2tMalP,1,2024-05-20_11h33.47.613,interaction task,2021.2.3,Win32,59.52380952,120638,,,,,,,,,,,,,,,,,Smaller,Greater,,-0.247437775,-0.510416667,1,0,0,LeftButton,"[""LeftButton""]",70,9.2008,space,,,,,,,,,,,,,,,0,2,2,2,1,1,both_wrong.png,0,RandomDot39.png,No answer,21,1.4994,,
,,,,,,,,,,,,,,,,,,,,,,,,,,,,,,,R_3JqODn0dO2tMalP,1,2024-05-20_11h33.47.613,interaction task,2021.2.3,Win32,59.52380952,120638,,,,,,,,,,,,,,,,,Greater,Smaller,,0.325036603,-0.526041667,1,0,0,RightButton,"[""RightButton""]",,,,4.981698389,9.0443,space,0.8804,,,,,,,,,,,0,3,3,3,1,3,only_sub_wrong.png,1,RandomDot8.png,No answer,21,,,
,,,,,,,,,,,,,,,,,,,,,,,,,,,,,,,R_3JqODn0dO2tMalP,1,2024-05-20_11h33.47.613,interaction task,2021.2.3,Win32,59.52380952,120638,,,,,,,,,,,,,,,,,Smaller,Greater,,-0.25329429,-0.520833333,1,0,0,LeftButton,"[""LeftButton""]",,,,,,,,,,,,,40.38703285,10.3739,space,60.05664256,22.5031,0,4,4,4,1,1,both_wrong.png,3,RandomDot7.png,No answer,21,,0.6329,
,,,,,,,,,,,,,,,,,,,,,,,,,,,,,,,R_3JqODn0dO2tMalP,1,2024-05-20_11h33.47.613,interaction task,2021.2.3,Win32,59.52380952,120638,,,,,,,,,,,,,,,,,Smaller,Greater,,0.332357247,-0.53125,1,0,0,RightButton,"[""RightButton""]",,,,,,,,,,,,,100,4.0748,space,0,9.0511,0,5,5,5,1,2,only_sub_right.png,3,RandomDot25.png,No answer,21,,0.9568,
,,,,,,,,,,,,,,,,,,,,,,,,,,,,,,,R_3JqODn0dO2tMalP,1,2024-05-20_11h33.47.613,interaction task,2021.2.3,Win32,59.52380952,120638,,,,,,,,,,,,,,,,,Greater,Smaller,,-0.273792094,-0.520833333,1,0,0,LeftButton,"[""LeftButton""]",90,4.2518,space,,,,,,,,,,,,,,,0,6,6,6,1,3,only_sub_wrong.png,0,RandomDot5.png,No answer,20,2.0639,,
,,,,,,,,,,,,,,,,,,,,,,,,,,,,,,,R_3JqODn0dO2tMalP,1,2024-05-20_11h33.47.613,interaction task,2021.2.3,Win32,59.52380952,120638,,,,,,,,,,,,,,,,,Smaller,Greater,,-0.270863836,-0.528645833,1,0,0,LeftButton,"[""LeftButton""]",,,,,,,,90,6.5289,space,70,14.3123,,,,,,0,7,7,7,1,1,both_wrong.png,2,RandomDot8.png,No answer,20,,,1.3664
,,,,,,,,,,,,,,,,,,,,,,,,,,,,,,,R_3JqODn0dO2tMalP,1,2024-05-20_11h33.47.613,interaction task,2021.2.3,Win32,59.52380952,120638,,,,,,,,,,,,,,,,,Greater,Smaller,,-0.267935578,-0.4921875,1,0,0,LeftButton,"[""LeftButton""]",,,,,,,,20,6.1517,space,10,12.1831,,,,,,0,8,8,8,1,2,only_sub_right.png,2,RandomDot20.png,No answer,20,,,0.6839
,,,,,,,,,,,,,,,,,,,,,,,,,,,,,,,R_3JqODn0dO2tMalP,1,2024-05-20_11h33.47.613,interaction task,2021.2.3,Win32,59.52380952,120638,,,,,,,,,,,,,,,,,Smaller,Greater,,0.322108346,-0.520833333,1,0,0,RightButton,"[""RightButton""]",,,,3.986090776,7.9297,space,1.0445,,,,,,,,,,,0,9,9,9,1,2,only_sub_right.png,1,RandomDot27.png,No answer,21,,,
,,,,,,,,,,,,,,,,,,,,,,,,,,,,,,,R_3JqODn0dO2tMalP,1,2024-05-20_11h33.47.613,interaction task,2021.2.3,Win32,59.52380952,120638,,,,,,,,,,,,,,,,,Smaller,Greater,,0.294289898,-0.541666667,1,0,0,RightButton,"[""RightButton""]",30,6.2162,space,,,,,,,,,,,,,,,0,10,10,10,1,2,only_sub_right.png,0,RandomDot17.png,No answer,20,0.5178,,
,,,,,,,,,,,,,,,,,,,,,,,,,,,,,,,R_3JqODn0dO2tMalP,1,2024-05-20_11h33.47.613,interaction task,2021.2.3,Win32,59.52380952,120638,,,,,,,,,,,,,,,,,Greater,Smaller,,0.310395315,-0.505208333,1,0,0,RightButton,"[""RightButton""]",,,,,,,,,,,,,,,,,,0,11,11,11,1,5,both_right.png,10,RandomDot42.png,RightButton,19,,,
,,,,,,,,,,,,,,,,,,,,,,,,,,,,,,,R_3JqODn0dO2tMalP,1,2024-05-20_11h33.47.613,interaction task,2021.2.3,Win32,59.52380952,120638,,,,,,,,,,,,,,,,,Smaller,Greater,,-0.244509517,-0.520833333,1,0,0,LeftButton,"[""LeftButton""]",,,,4.996339678,3.9692,space,0.7009,,,,,,,,,,,0,12,12,12,1,1,both_wrong.png,1,RandomDot14.png,No answer,20,,,
,,,,,,,,,,,,,,,,,,,,,,,,,,,,,,,R_3JqODn0dO2tMalP,1,2024-05-20_11h33.47.613,interaction task,2021.2.3,Win32,59.52380952,120638,,,,,,,,,,,,,,,,,Smaller,Greater,,0.279648609,-0.515625,1,0,0,RightButton,"[""RightButton""]",,,,1.987554905,4.7153,space,0.6396,,,,,,,,,,,0,13,13,13,1,2,only_sub_right.png,1,RandomDot25.png,No answer,19,,,
,,,,,,,,,,,,,,,,,,,,,,,,,,,,,,,R_3JqODn0dO2tMalP,1,2024-05-20_11h33.47.613,interaction task,2021.2.3,Win32,59.52380952,120638,,,,,,,,,,,,,,,,,Greater,Smaller,,-0.281112738,-0.502604167,1,0,0,LeftButton,"[""LeftButton""]",,,,,,,,,,,,,30.03460668,8.1566,space,49.40843279,13.6725,0,14,14,14,1,3,only_sub_wrong.png,3,RandomDot8.png,No answer,21,,0.327,
,,,,,,,,,,,,,,,,,,,,,,,,,,,,,,,R_3JqODn0dO2tMalP,1,2024-05-20_11h33.47.613,interaction task,2021.2.3,Win32,59.52380952,120638,,,,,,,,,,,,,,,,,Greater,Smaller,,0.301610542,-0.5078125,1,0,0,RightButton,"[""RightButton""]",,,,,,,,,,,,,19.68218052,3.5437,space,59.61296715,9.4103,0,15,15,15,1,3,only_sub_wrong.png,3,RandomDot20.png,No answer,20,,2.0843,
,,,,,,,,,,,,,,,,,,,,,,,,,,,,,,,R_3JqODn0dO2tMalP,1,2024-05-20_11h33.47.613,interaction task,2021.2.3,Win32,59.52380952,120638,,,,,,,,,,,,,,,,,Greater,Smaller,,0.282576867,-0.541666667,1,0,0,RightButton,"[""RightButton""]",,,,,,,,50,10.9285,space,60,20.9551,,,,,,0,16,16,16,1,1,both_wrong.png,2,RandomDot10.png,No answer,20,,,0.4178
,,,,,,,,,,,,,,,,,,,,,,,,,,,,,,,R_3JqODn0dO2tMalP,1,2024-05-20_11h33.47.613,interaction task,2021.2.3,Win32,59.52380952,120638,,,,,,,,,,,,,,,,,Smaller,Greater,,0.326500732,-0.515625,1,0,0,RightButton,"[""RightButton""]",100,8.1699,space,,,,,,,,,,,,,,,0,17,17,17,1,3,only_sub_wrong.png,0,RandomDot26.png,No answer,19,5.6181,,
,,,,,,,,,,,,,,,,,,,,,,,,,,,,,,,R_3JqODn0dO2tMalP,1,2024-05-20_11h33.47.613,interaction task,2021.2.3,Win32,59.52380952,120638,,,,,,,,,,,,,,,,,Greater,Smaller,,-0.275256223,-0.4921875,1,0,0,LeftButton,"[""LeftButton""]",,,,4.981698389,4.8797,space,0.5875,,,,,,,,,,,0,18,18,18,1,3,only_sub_wrong.png,1,RandomDot1.png,No answer,19,,,
,,,,,,,,,,,,,,,,,,,,,,,,,,,,,,,R_3JqODn0dO2tMalP,1,2024-05-20_11h33.47.613,interaction task,2021.2.3,Win32,59.52380952,120638,,,,,,,,,,,,,,,,,Greater,Smaller,,-0.323572474,-0.520833333,1,0,0,LeftButton,"[""LeftButton""]",,,,,,,,,,,,,,,,,,0,19,19,19,1,0,both_right.png,3,RandomDot30.png,No answer,19,,,
,,,,,,,,,,,,,,,,,,,,,,,,,,,,,,,R_3JqODn0dO2tMalP,1,2024-05-20_11h33.47.613,interaction task,2021.2.3,Win32,59.52380952,120638,,,,,,,,,,,,,,,,,Greater,Smaller,,0.265007321,-0.502604167,1,0,0,RightButton,"[""RightButton""]",,,,,,,,60,2.545,space,81,5.5808,,,,,,0,20,20,20,1,1,both_wrong.png,2,RandomDot24.png,No answer,19,,,1.0581
,,,,,,,,,,,,,,,,,,,,,,,,,,,,,,,R_3JqODn0dO2tMalP,1,2024-05-20_11h33.47.613,interaction task,2021.2.3,Win32,59.52380952,120638,,,,,,,,,,,,,,,,,Smaller,Greater,,-0.36749634,-0.505208333,1,0,0,LeftButton,"[""LeftButton""]",,,,4.974377745,4.7621,space,0.5677,,,,,,,,,,,0,21,21,21,1,3,only_sub_wrong.png,1,RandomDot22.png,No answer,20,,,
,,,,,,,,,,,,,,,,,,,,,,,,,,,,,,,R_3JqODn0dO2tMalP,1,2024-05-20_11h33.47.613,interaction task,2021.2.3,Win32,59.52380952,120638,,,,,,,,,,,,,,,,,Greater,Smaller,,0.323572474,-0.5234375,1,0,0,RightButton,"[""RightButton""]",30,4.9508,space,,,,,,,,,,,,,,,0,22,22,22,1,2,only_sub_right.png,0,RandomDot18.png,No answer,21,0.5841,,
,,,,,,,,,,,,,,,,,,,,,,,,,,,,,,,R_3JqODn0dO2tMalP,1,2024-05-20_11h33.47.613,interaction task,2021.2.3,Win32,59.52380952,120638,,,,,,,,,,,,,,,,,Smaller,Greater,,0.308931186,-0.515625,1,0,0,RightButton,"[""RightButton""]",,,,,,,,90,3.3809,space,90,5.405,,,,,,0,23,23,23,1,3,only_sub_wrong.png,2,RandomDot40.png,No answer,20,,,0.3677
,,,,,,,,,,,,,,,,,,,,,,,,,,,,,,,R_3JqODn0dO2tMalP,1,2024-05-20_11h33.47.613,interaction task,2021.2.3,Win32,59.52380952,120638,,,,,,,,,,,,,,,,,Smaller,Greater,,0.295754026,-0.518229167,1,0,0,RightButton,"[""RightButton""]",,,,2.514641288,5.6142,space,1.0507,,,,,,,,,,,0,24,24,24,1,1,both_wrong.png,1,RandomDot8.png,No answer,21,,,
,,,,,,,,,,,,,,,,,,,,,,,,,,,,,,,R_3JqODn0dO2tMalP,1,2024-05-20_11h33.47.613,interaction task,2021.2.3,Win32,59.52380952,120638,,,,,,,,,,,,,,,,,Greater,Smaller,,0.304538799,-0.505208333,1,0,0,RightButton,"[""RightButton""]",,,,,,,,71,1.9779,space,82,4.4759,,,,,,0,25,25,25,1,2,only_sub_right.png,2,RandomDot36.png,No answer,21,,,0.7385
,,,,,,,,,,,,,,,,,,,,,,,,,,,,,,,R_3JqODn0dO2tMalP,1,2024-05-20_11h33.47.613,interaction task,2021.2.3,Win32,59.52380952,120638,,,,,,,,,,,,,,,,,Greater,Smaller,,-0.297218155,-0.5,1,0,0,LeftButton,"[""LeftButton""]",,,,2.983162518,6.7669,space,3.1509,,,,,,,,,,,0,26,26,26,1,1,both_wrong.png,1,RandomDot13.png,No answer,19,,,
,,,,,,,,,,,,,,,,,,,,,,,,,,,,,,,R_3JqODn0dO2tMalP,1,2024-05-20_11h33.47.613,interaction task,2021.2.3,Win32,59.52380952,120638,,,,,,,,,,,,,,,,,Greater,Smaller,,0.308931186,-0.486979167,1,0,0,RightButton,"[""RightButton""]",,,,,,,,,,,,,90.52235385,6.7701,space,40.09124924,12.3696,0,27,27,27,1,2,only_sub_right.png,3,RandomDot20.png,No answer,21,,0.3504,
,,,,,,,,,,,,,,,,,,,,,,,,,,,,,,,R_3JqODn0dO2tMalP,1,2024-05-20_11h33.47.613,interaction task,2021.2.3,Win32,59.52380952,120638,,,,,,,,,,,,,,,,,Greater,Smaller,,-0.327964861,-0.502604167,1,0,0,LeftButton,"[""LeftButton""]",,,,,,,,81,6.8131,space,90,12.3064,,,,,,0,28,28,28,1,2,only_sub_right.png,2,RandomDot21.png,No answer,21,,,0.6505
,,,,,,,,,,,,,,,,,,,,,,,,,,,,,,,R_3JqODn0dO2tMalP,1,2024-05-20_11h33.47.613,interaction task,2021.2.3,Win32,59.52380952,120638,,,,,,,,,,,,,,,,,Smaller,Greater,,0.298682284,-0.518229167,1,0,0,RightButton,"[""RightButton""]",,,,,,,,,,,,,,,,,,0,29,29,29,1,4,both_right.png,10,RandomDot41.png,RightButton,5,,,
,,,,,,,,,,,,,,,,,,,,,,,,,,,,,,,R_3JqODn0dO2tMalP,1,2024-05-20_11h33.47.613,interaction task,2021.2.3,Win32,59.52380952,120638,,,,,,,,,,,,,,,,,Smaller,Greater,,-0.313323572,-0.502604167,1,0,0,LeftButton,"[""LeftButton""]",,,,,,,,,,,,,61.09188518,2.7197,space,66.85966547,6.9361,0,30,30,30,1,1,both_wrong.png,3,RandomDot29.png,No answer,19,,0.384,
,,,,,,,,,,,,,,,,,,,,,,,,,,,,,,,R_3JqODn0dO2tMalP,1,2024-05-20_11h33.47.613,interaction task,2021.2.3,Win32,59.52380952,120638,,,,,,,,,,,,,,,,,Greater,Smaller,,-0.292825769,-0.520833333,1,0,0,LeftButton,"[""LeftButton""]",,,,,,,,100,4.3457,space,89,9.8291,,,,,,0,31,31,31,1,3,only_sub_wrong.png,2,RandomDot39.png,No answer,20,,,0.7346
,,,,,,,,,,,,,,,,,,,,,,,,,,,,,,,R_3JqODn0dO2tMalP,1,2024-05-20_11h33.47.613,interaction task,2021.2.3,Win32,59.52380952,120638,,,,,,,,,,,,,,,,,Smaller,Greater,,-0.34114202,-0.515625,1,0,0,LeftButton,"[""LeftButton""]",66,3.0862,space,,,,,,,,,,,,,,,0,32,32,32,1,2,only_sub_right.png,0,RandomDot21.png,No answer,21,0.5507,,
,,,,,,,,,,,,,,,,,,,,,,,,,,,,,,,R_3JqODn0dO2tMalP,1,2024-05-20_11h33.47.613,interaction task,2021.2.3,Win32,59.52380952,120638,,,,,,,,,,,,,,,,,Greater,Smaller,,-0.303074671,-0.484375,1,0,0,LeftButton,"[""LeftButton""]",,,,,,,,,,,,,69.66960971,7.2734,space,40.68281645,8.7227,0,33,33,33,1,2,only_sub_right.png,3,RandomDot36.png,No answer,20,,0.6178,
,,,,,,,,,,,,,,,,,,,,,,,,,,,,,,,R_3JqODn0dO2tMalP,1,2024-05-20_11h33.47.613,interaction task,2021.2.3,Win32,59.52380952,120638,,,,,,,,,,,,,,,,,Greater,Smaller,,0.294289898,-0.5078125,1,0,0,RightButton,"[""RightButton""]",81,2.0345,space,,,,,,,,,,,,,,,0,34,34,34,1,1,both_wrong.png,0,RandomDot16.png,No answer,19,0.5676,,
,,,,,,,,,,,,,,,,,,,,,,,,,,,,,,,R_3JqODn0dO2tMalP,1,2024-05-20_11h33.47.613,interaction task,2021.2.3,Win32,59.52380952,120638,,,,,,,,,,,,,,,,,Smaller,Greater,,0.276720351,-0.5,1,0,0,RightButton,"[""RightButton""]",,,,,,,,,,,,,42.16173448,8.7923,space,72.47955396,12.1248,0,35,35,35,1,3,only_sub_wrong.png,3,RandomDot7.png,No answer,19,,0.517,
,,,,,,,,,,,,,,,,,,,,,,,,,,,,,,,R_3JqODn0dO2tMalP,1,2024-05-20_11h33.47.613,interaction task,2021.2.3,Win32,59.52380952,120638,,,,,,,,,,,,,,,,,Greater,Smaller,,-0.281112738,-0.497395833,1,0,0,LeftButton,"[""LeftButton""]",,,,,,,,,,,,,,,,,,0,36,36,36,1,0,both_right.png,1,RandomDot29.png,No answer,21,,,
,,,,,,,,,,,,,,,,,,,,,,,,,,,,,,,R_3JqODn0dO2tMalP,1,2024-05-20_11h33.47.613,interaction task,2021.2.3,Win32,59.52380952,120638,,,,,,,,,,,,,,,,,Greater,Smaller,,0.281112738,-0.489583333,1,0,0,RightButton,"[""RightButton""]",73,3.0995,space,,,,,,,,,,,,,,,0,37,37,37,1,1,both_wrong.png,0,RandomDot24.png,No answer,21,0.5722,,
,,,,,,,,,,,,,,,,,,,,,,,,,,,,,,,R_3JqODn0dO2tMalP,1,2024-05-20_11h33.47.613,interaction task,2021.2.3,Win32,59.52380952,120638,,,,,,,,,,,,,,,,,Smaller,Greater,,0.31625183,-0.53125,1,0,0,RightButton,"[""RightButton""]",,,,,,,,100,4.7251,space,91,6.8629,,,,,,0,38,38,38,1,3,only_sub_wrong.png,2,RandomDot17.png,No answer,19,,,0.5982
,,,,,,,,,,,,,,,,,,,,,,,,,,,,,,,R_3JqODn0dO2tMalP,1,2024-05-20_11h33.47.613,interaction task,2021.2.3,Win32,59.52380952,120638,,,,,,,,,,,,,,,,,Greater,Smaller,,-0.308931186,-0.505208333,1,0,0,LeftButton,"[""LeftButton""]",,,,,,,,,,,,,70.26117692,4.2357,space,65.67653105,6.8356,0,39,39,39,1,1,both_wrong.png,3,RandomDot30.png,No answer,20,,0.3279,
,,,,,,,,,,,,,,,,,,,,,,,,,,,,,,,R_3JqODn0dO2tMalP,1,2024-05-20_11h33.47.613,interaction task,2021.2.3,Win32,59.52380952,120638,,,,,,,,,,,,,,,,,Greater,Smaller,,0.276720351,-0.497395833,1,0,0,RightButton,"[""RightButton""]",,,,,,,,,,,,,,,,,,0,40,40,40,1,0,both_right.png,2,RandomDot25.png,No answer,19,,,
,,,,,,,,,,,,,,,,,,,,,,,,,,,,,,,R_3JqODn0dO2tMalP,1,2024-05-20_11h33.47.613,interaction task,2021.2.3,Win32,59.52380952,120638,,,,,,,,,,,,,,,,,Greater,Smaller,,-0.270863836,-0.481770833,1,0,0,LeftButton,"[""LeftButton""]",100,3.5,space,,,,,,,,,,,,,,,0,41,41,41,1,3,only_sub_wrong.png,0,RandomDot38.png,No answer,21,0.3174,,
