choose_trial,key_resp.keys,key_resp.rt,key_resp_4.keys,key_resp_4.rt,session_trait,slider_face_judge.response,slider_face_judge.rt,key_resp_3.keys,key_resp_3.rt,face_loop.thisRepN,face_loop.thisTrialN,face_loop.thisN,face_loop.thisIndex,face_loop.ran,face_serial,image_name,isCheck,answer,check_question,participant,session,date,expName,psychopyVersion,OS,frameRate,SONAid,session.thisRepN,session.thisTrialN,session.thisN,session.thisIndex,session.ran,session_serial,slider_judge_img
"[0,1,2,3,4,5,6,7,8,9,10,11,12,13,14,15,16,17,18,19,20,21,22,23,24,25,26,27,28,29,30,31,32,33,34,35,36,37,38,39,40,41,42,43,44,45,46,47,48,49,60,54,55]",space,9.1419,space,30.648,critical,4.96875,4.8466,space,0.7665,0,0,0,33,1,34,image/34.jpg,0,0,,R_3JqODn0dO2tMalP,2,2024-05-20_11h53.30.574,face trait task,2021.2.3,Win32,59.88023952,120638,,,,,,,
,,,,,,7,13.5996,space,2.4611,0,1,1,50,1,61,image/fill_img.png,1,7,Please move the slider all the way to the RIGHT to show that you are paying attention.,R_3JqODn0dO2tMalP,2,2024-05-20_11h53.30.574,face trait task,2021.2.3,Win32,59.88023952,120638,,,,,,,
,,,,,,4.140625,6.1635,space,1.2178,0,2,2,49,1,50,image/50.jpg,0,0,,R_3JqODn0dO2tMalP,2,2024-05-20_11h53.30.574,face trait task,2021.2.3,Win32,59.88023952,120638,,,,,,,
,,,,,,6.0078125,2.3216,space,0.3009,0,3,3,27,1,28,image/28.jpg,0,0,,R_3JqODn0dO2tMalP,2,2024-05-20_11h53.30.574,face trait task,2021.2.3,Win32,59.88023952,120638,,,,,,,
,,,,,,6.7734375,1.783,space,0.5507,0,4,4,30,1,31,image/31.jpg,0,0,,R_3JqODn0dO2tMalP,2,2024-05-20_11h53.30.574,face trait task,2021.2.3,Win32,59.88023952,120638,,,,,,,
,,,,,,4.71875,1.8639,space,0.5843,0,5,5,44,1,45,image/45.jpg,0,0,,R_3JqODn0dO2tMalP,2,2024-05-20_11h53.30.574,face trait task,2021.2.3,Win32,59.88023952,120638,,,,,,,
,,,,,,4.9375,2.8325,space,0.0717,0,6,6,25,1,26,image/26.jpg,0,0,,R_3JqODn0dO2tMalP,2,2024-05-20_11h53.30.574,face trait task,2021.2.3,Win32,59.88023952,120638,,,,,,,
,,,,,,4.390625,13.268,space,0.5302,0,7,7,8,1,9,image/9.jpg,0,0,,R_3JqODn0dO2tMalP,2,2024-05-20_11h53.30.574,face trait task,2021.2.3,Win32,59.88023952,120638,,,,,,,
,,,,,,3.671875,9.6991,space,1.2635,0,8,8,20,1,21,image/21.jpg,0,0,,R_3JqODn0dO2tMalP,2,2024-05-20_11h53.30.574,face trait task,2021.2.3,Win32,59.88023952,120638,,,,,,,
,,,,,,4.21875,27.4001,space,0.4203,0,9,9,34,1,35,image/35.jpg,0,0,,R_3JqODn0dO2tMalP,2,2024-05-20_11h53.30.574,face trait task,2021.2.3,Win32,59.88023952,120638,,,,,,,
,,,,,,5.0859375,7.0384,space,1.8607,0,10,10,42,1,43,image/43.jpg,0,0,,R_3JqODn0dO2tMalP,2,2024-05-20_11h53.30.574,face trait task,2021.2.3,Win32,59.88023952,120638,,,,,,,
,,,,,,4.7265625,5.2535,space,0.8508,0,11,11,12,1,13,image/13.jpg,0,0,,R_3JqODn0dO2tMalP,2,2024-05-20_11h53.30.574,face trait task,2021.2.3,Win32,59.88023952,120638,,,,,,,
,,,,,,3.765625,5.5492,space,1.32,0,12,12,9,1,10,image/10.jpg,0,0,,R_3JqODn0dO2tMalP,2,2024-05-20_11h53.30.574,face trait task,2021.2.3,Win32,59.88023952,120638,,,,,,,
,,,,,,5.2109375,3.2521,space,2.8175,0,13,13,45,1,46,image/46.jpg,0,0,,R_3JqODn0dO2tMalP,2,2024-05-20_11h53.30.574,face trait task,2021.2.3,Win32,59.88023952,120638,,,,,,,
,,,,,,3.5234375,5.75,space,2.4623,0,14,14,7,1,8,image/8.jpg,0,0,,R_3JqODn0dO2tMalP,2,2024-05-20_11h53.30.574,face trait task,2021.2.3,Win32,59.88023952,120638,,,,,,,
,,,,,,5.3125,2.7534,space,3.1549,0,15,15,39,1,40,image/40.jpg,0,0,,R_3JqODn0dO2tMalP,2,2024-05-20_11h53.30.574,face trait task,2021.2.3,Win32,59.88023952,120638,,,,,,,
,,,,,,4.25,10.2718,space,0.6001,0,16,16,6,1,7,image/7.jpg,0,0,,R_3JqODn0dO2tMalP,2,2024-05-20_11h53.30.574,face trait task,2021.2.3,Win32,59.88023952,120638,,,,,,,
,,,,,,3.7265625,5.4872,space,2.3176,0,17,17,36,1,37,image/37.jpg,0,0,,R_3JqODn0dO2tMalP,2,2024-05-20_11h53.30.574,face trait task,2021.2.3,Win32,59.88023952,120638,,,,,,,
,,,,,,4.2109375,4.9327,space,1.6308,0,18,18,0,1,1,image/1.jpg,0,0,,R_3JqODn0dO2tMalP,2,2024-05-20_11h53.30.574,face trait task,2021.2.3,Win32,59.88023952,120638,,,,,,,
,,,,,,3.4765625,8.9004,space,1.2807,0,19,19,3,1,4,image/4.jpg,0,0,,R_3JqODn0dO2tMalP,2,2024-05-20_11h53.30.574,face trait task,2021.2.3,Win32,59.88023952,120638,,,,,,,
,,,,,,4.546875,8.9675,space,0.3315,0,20,20,15,1,16,image/16.jpg,0,0,,R_3JqODn0dO2tMalP,2,2024-05-20_11h53.30.574,face trait task,2021.2.3,Win32,59.88023952,120638,,,,,,,
,,,,,,4.59375,4.5791,space,2.7098,0,21,21,1,1,2,image/2.jpg,0,0,,R_3JqODn0dO2tMalP,2,2024-05-20_11h53.30.574,face trait task,2021.2.3,Win32,59.88023952,120638,,,,,,,
,,,,,,4.859375,5.1245,space,1.1509,0,22,22,13,1,14,image/14.jpg,0,0,,R_3JqODn0dO2tMalP,2,2024-05-20_11h53.30.574,face trait task,2021.2.3,Win32,59.88023952,120638,,,,,,,
,,,,,,3.265625,8.2683,space,3.6798,0,23,23,32,1,33,image/33.jpg,0,0,,R_3JqODn0dO2tMalP,2,2024-05-20_11h53.30.574,face trait task,2021.2.3,Win32,59.88023952,120638,,,,,,,
,,,,,,2.8515625,8.9274,space,2.1842,0,24,24,43,1,44,image/44.jpg,0,0,,R_3JqODn0dO2tMalP,2,2024-05-20_11h53.30.574,face trait task,2021.2.3,Win32,59.88023952,120638,,,,,,,
,,,,,,2.5,6.604,space,1.7678,0,25,25,17,1,18,image/18.jpg,0,0,,R_3JqODn0dO2tMalP,2,2024-05-20_11h53.30.574,face trait task,2021.2.3,Win32,59.88023952,120638,,,,,,,
,,,,,,4.9921875,11.2851,space,4.6173,0,26,26,24,1,25,image/25.jpg,0,0,,R_3JqODn0dO2tMalP,2,2024-05-20_11h53.30.574,face trait task,2021.2.3,Win32,59.88023952,120638,,,,,,,
,,,,,,5.625,4.0485,space,1.734,0,27,27,29,1,30,image/30.jpg,0,0,,R_3JqODn0dO2tMalP,2,2024-05-20_11h53.30.574,face trait task,2021.2.3,Win32,59.88023952,120638,,,,,,,
,,,,,,4.5078125,7.2699,space,0.5005,0,28,28,10,1,11,image/11.jpg,0,0,,R_3JqODn0dO2tMalP,2,2024-05-20_11h53.30.574,face trait task,2021.2.3,Win32,59.88023952,120638,,,,,,,
,,,,,,4.8984375,2.449,space,3.3012,0,29,29,16,1,17,image/17.jpg,0,0,,R_3JqODn0dO2tMalP,2,2024-05-20_11h53.30.574,face trait task,2021.2.3,Win32,59.88023952,120638,,,,,,,
,,,,,,3.7421875,9.6687,space,0.7349,0,30,30,46,1,47,image/47.jpg,0,0,,R_3JqODn0dO2tMalP,2,2024-05-20_11h53.30.574,face trait task,2021.2.3,Win32,59.88023952,120638,,,,,,,
,,,,,,5.2578125,7.7482,space,0.3974,0,31,31,19,1,20,image/20.jpg,0,0,,R_3JqODn0dO2tMalP,2,2024-05-20_11h53.30.574,face trait task,2021.2.3,Win32,59.88023952,120638,,,,,,,
,,,,,,4.0703125,11.1529,space,1.2279,0,32,32,23,1,24,image/24.jpg,0,0,,R_3JqODn0dO2tMalP,2,2024-05-20_11h53.30.574,face trait task,2021.2.3,Win32,59.88023952,120638,,,,,,,
,,,,,,3.6484375,17.5995,space,0.4301,0,33,33,5,1,6,image/6.jpg,0,0,,R_3JqODn0dO2tMalP,2,2024-05-20_11h53.30.574,face trait task,2021.2.3,Win32,59.88023952,120638,,,,,,,
,,,,,,1,4.1137,space,1.4995,0,34,34,51,1,55,image/fill_img.png,1,1,Please move the slider all the way to the LEFT to show that you are paying attention.,R_3JqODn0dO2tMalP,2,2024-05-20_11h53.30.574,face trait task,2021.2.3,Win32,59.88023952,120638,,,,,,,
,,,,,,4.9375,5.5145,space,1.9132,0,35,35,38,1,39,image/39.jpg,0,0,,R_3JqODn0dO2tMalP,2,2024-05-20_11h53.30.574,face trait task,2021.2.3,Win32,59.88023952,120638,,,,,,,
,,,,,,5.5234375,5.2957,space,2.1604,0,36,36,28,1,29,image/29.jpg,0,0,,R_3JqODn0dO2tMalP,2,2024-05-20_11h53.30.574,face trait task,2021.2.3,Win32,59.88023952,120638,,,,,,,
,,,,,,5.1875,7.8176,space,0.323,0,37,37,47,1,48,image/48.jpg,0,0,,R_3JqODn0dO2tMalP,2,2024-05-20_11h53.30.574,face trait task,2021.2.3,Win32,59.88023952,120638,,,,,,,
,,,,,,4.5859375,4.8318,space,1.5181,0,38,38,18,1,19,image/19.jpg,0,0,,R_3JqODn0dO2tMalP,2,2024-05-20_11h53.30.574,face trait task,2021.2.3,Win32,59.88023952,120638,,,,,,,
,,,,,,5.1015625,8.2409,space,0.5323,0,39,39,21,1,22,image/22.jpg,0,0,,R_3JqODn0dO2tMalP,2,2024-05-20_11h53.30.574,face trait task,2021.2.3,Win32,59.88023952,120638,,,,,,,
,,,,,,4.4140625,17.9126,space,1.2675,0,40,40,35,1,36,image/36.jpg,0,0,,R_3JqODn0dO2tMalP,2,2024-05-20_11h53.30.574,face trait task,2021.2.3,Win32,59.88023952,120638,,,,,,,
,,,,,,3.6171875,7.4345,space,0.4625,0,41,41,4,1,5,image/5.jpg,0,0,,R_3JqODn0dO2tMalP,2,2024-05-20_11h53.30.574,face trait task,2021.2.3,Win32,59.88023952,120638,,,,,,,
,,,,,,2.5,4.5284,space,2.7085,0,42,42,11,1,12,image/12.jpg,0,0,,R_3JqODn0dO2tMalP,2,2024-05-20_11h53.30.574,face trait task,2021.2.3,Win32,59.88023952,120638,,,,,,,
,,,,,,3.265625,7.1672,space,2.1463,0,43,43,26,1,27,image/27.jpg,0,0,,R_3JqODn0dO2tMalP,2,2024-05-20_11h53.30.574,face trait task,2021.2.3,Win32,59.88023952,120638,,,,,,,
,,,,,,3.1484375,6.2037,space,2.9699,0,44,44,48,1,49,image/49.jpg,0,0,,R_3JqODn0dO2tMalP,2,2024-05-20_11h53.30.574,face trait task,2021.2.3,Win32,59.88023952,120638,,,,,,,
,,,,,,2.9921875,5.6309,space,4.0638,0,45,45,37,1,38,image/38.jpg,0,0,,R_3JqODn0dO2tMalP,2,2024-05-20_11h53.30.574,face trait task,2021.2.3,Win32,59.88023952,120638,,,,,,,
,,,,,,7,6.0823,space,1.6019,0,46,46,52,1,56,image/fill_img.png,1,7,Please move the slider all the way to the RIGHT to show that you are paying attention.,R_3JqODn0dO2tMalP,2,2024-05-20_11h53.30.574,face trait task,2021.2.3,Win32,59.88023952,120638,,,,,,,
,,,,,,4.2578125,6.6472,space,0.463,0,47,47,40,1,41,image/41.jpg,0,0,,R_3JqODn0dO2tMalP,2,2024-05-20_11h53.30.574,face trait task,2021.2.3,Win32,59.88023952,120638,,,,,,,
,,,,,,4.46875,5.7264,space,0.3764,0,48,48,2,1,3,image/3.jpg,0,0,,R_3JqODn0dO2tMalP,2,2024-05-20_11h53.30.574,face trait task,2021.2.3,Win32,59.88023952,120638,,,,,,,
,,,,,,5.3203125,4.0985,space,0.6654,0,49,49,14,1,15,image/15.jpg,0,0,,R_3JqODn0dO2tMalP,2,2024-05-20_11h53.30.574,face trait task,2021.2.3,Win32,59.88023952,120638,,,,,,,
,,,,,,4.671875,3.8718,space,0.3672,0,50,50,41,1,42,image/42.jpg,0,0,,R_3JqODn0dO2tMalP,2,2024-05-20_11h53.30.574,face trait task,2021.2.3,Win32,59.88023952,120638,,,,,,,
,,,,,,4.3046875,4.3535,space,0.5673,0,51,51,22,1,23,image/23.jpg,0,0,,R_3JqODn0dO2tMalP,2,2024-05-20_11h53.30.574,face trait task,2021.2.3,Win32,59.88023952,120638,,,,,,,
,,,,,,5.265625,3.3342,space,0.7043,0,52,52,31,1,32,image/32.jpg,0,0,,R_3JqODn0dO2tMalP,2,2024-05-20_11h53.30.574,face trait task,2021.2.3,Win32,59.88023952,120638,,,,,,,
,,,,,,,,,,,,,,,,,,,,R_3JqODn0dO2tMalP,2,2024-05-20_11h53.30.574,face trait task,2021.2.3,Win32,59.88023952,120638,0,0,0,0,1,0,critical.png
,,,,,competent,4.4296875,6.3626,space,0.4318,0,0,0,29,1,30,image/30.jpg,0,0,,R_3JqODn0dO2tMalP,2,2024-05-20_11h53.30.574,face trait task,2021.2.3,Win32,59.88023952,120638,,,,,,,
,,,,,,7,4.2106,space,0.9841,0,1,1,50,1,61,image/fill_img.png,1,7,Please move the slider all the way to the RIGHT to show that you are paying attention.,R_3JqODn0dO2tMalP,2,2024-05-20_11h53.30.574,face trait task,2021.2.3,Win32,59.88023952,120638,,,,,,,
,,,,,,3.8359375,3.1466,space,0.3968,0,2,2,48,1,49,image/49.jpg,0,0,,R_3JqODn0dO2tMalP,2,2024-05-20_11h53.30.574,face trait task,2021.2.3,Win32,59.88023952,120638,,,,,,,
,,,,,,5.265625,2.349,space,1.1919,0,3,3,4,1,5,image/5.jpg,0,0,,R_3JqODn0dO2tMalP,2,2024-05-20_11h53.30.574,face trait task,2021.2.3,Win32,59.88023952,120638,,,,,,,
,,,,,,5.3984375,4.9166,space,0.3977,0,4,4,24,1,25,image/25.jpg,0,0,,R_3JqODn0dO2tMalP,2,2024-05-20_11h53.30.574,face trait task,2021.2.3,Win32,59.88023952,120638,,,,,,,
,,,,,,4.375,3.4313,space,0.3969,0,5,5,46,1,47,image/47.jpg,0,0,,R_3JqODn0dO2tMalP,2,2024-05-20_11h53.30.574,face trait task,2021.2.3,Win32,59.88023952,120638,,,,,,,
,,,,,,4.21875,2.6655,space,0.6171,0,6,6,38,1,39,image/39.jpg,0,0,,R_3JqODn0dO2tMalP,2,2024-05-20_11h53.30.574,face trait task,2021.2.3,Win32,59.88023952,120638,,,,,,,
,,,,,,4.625,5.583,space,0.4312,0,7,7,42,1,43,image/43.jpg,0,0,,R_3JqODn0dO2tMalP,2,2024-05-20_11h53.30.574,face trait task,2021.2.3,Win32,59.88023952,120638,,,,,,,
,,,,,,5.75,3.1096,space,1.2387,0,8,8,5,1,6,image/6.jpg,0,0,,R_3JqODn0dO2tMalP,2,2024-05-20_11h53.30.574,face trait task,2021.2.3,Win32,59.88023952,120638,,,,,,,
,,,,,,5.640625,2.3884,space,1.0877,0,9,9,6,1,7,image/7.jpg,0,0,,R_3JqODn0dO2tMalP,2,2024-05-20_11h53.30.574,face trait task,2021.2.3,Win32,59.88023952,120638,,,,,,,
,,,,,,5.2578125,6.1231,space,0.4492,0,10,10,16,1,17,image/17.jpg,0,0,,R_3JqODn0dO2tMalP,2,2024-05-20_11h53.30.574,face trait task,2021.2.3,Win32,59.88023952,120638,,,,,,,
,,,,,,4.75,2.7659,space,1.0171,0,11,11,36,1,37,image/37.jpg,0,0,,R_3JqODn0dO2tMalP,2,2024-05-20_11h53.30.574,face trait task,2021.2.3,Win32,59.88023952,120638,,,,,,,
,,,,,,4.7578125,2.8392,space,0.6218,0,12,12,45,1,46,image/46.jpg,0,0,,R_3JqODn0dO2tMalP,2,2024-05-20_11h53.30.574,face trait task,2021.2.3,Win32,59.88023952,120638,,,,,,,
,,,,,,5.4140625,3.9835,space,0.447,0,13,13,21,1,22,image/22.jpg,0,0,,R_3JqODn0dO2tMalP,2,2024-05-20_11h53.30.574,face trait task,2021.2.3,Win32,59.88023952,120638,,,,,,,
,,,,,,6.1796875,2.654,space,1.8464,0,14,14,25,1,26,image/26.jpg,0,0,,R_3JqODn0dO2tMalP,2,2024-05-20_11h53.30.574,face trait task,2021.2.3,Win32,59.88023952,120638,,,,,,,
,,,,,,5.7734375,2.7235,space,1.9672,0,15,15,49,1,50,image/50.jpg,0,0,,R_3JqODn0dO2tMalP,2,2024-05-20_11h53.30.574,face trait task,2021.2.3,Win32,59.88023952,120638,,,,,,,
,,,,,,5.7734375,1.8505,space,0.8557,0,16,16,35,1,36,image/36.jpg,0,0,,R_3JqODn0dO2tMalP,2,2024-05-20_11h53.30.574,face trait task,2021.2.3,Win32,59.88023952,120638,,,,,,,
,,,,,,5.4375,2.4035,space,1.8042,0,17,17,15,1,16,image/16.jpg,0,0,,R_3JqODn0dO2tMalP,2,2024-05-20_11h53.30.574,face trait task,2021.2.3,Win32,59.88023952,120638,,,,,,,
,,,,,,4.2578125,2.8344,space,0.805,0,18,18,30,1,31,image/31.jpg,0,0,,R_3JqODn0dO2tMalP,2,2024-05-20_11h53.30.574,face trait task,2021.2.3,Win32,59.88023952,120638,,,,,,,
,,,,,,4.4609375,2.0503,space,0.3846,0,19,19,7,1,8,image/8.jpg,0,0,,R_3JqODn0dO2tMalP,2,2024-05-20_11h53.30.574,face trait task,2021.2.3,Win32,59.88023952,120638,,,,,,,
,,,,,,4.59375,2.0939,space,0.3676,0,20,20,31,1,32,image/32.jpg,0,0,,R_3JqODn0dO2tMalP,2,2024-05-20_11h53.30.574,face trait task,2021.2.3,Win32,59.88023952,120638,,,,,,,
,,,,,,4.1796875,3.9162,space,2.5842,0,21,21,14,1,15,image/15.jpg,0,0,,R_3JqODn0dO2tMalP,2,2024-05-20_11h53.30.574,face trait task,2021.2.3,Win32,59.88023952,120638,,,,,,,
,,,,,,4.5859375,1.9911,space,0.451,0,22,22,1,1,2,image/2.jpg,0,0,,R_3JqODn0dO2tMalP,2,2024-05-20_11h53.30.574,face trait task,2021.2.3,Win32,59.88023952,120638,,,,,,,
,,,,,,4.8984375,6.5313,space,0.457,0,23,23,18,1,19,image/19.jpg,0,0,,R_3JqODn0dO2tMalP,2,2024-05-20_11h53.30.574,face trait task,2021.2.3,Win32,59.88023952,120638,,,,,,,
,,,,,,4.453125,4.0661,space,2.5588,0,24,24,43,1,44,image/44.jpg,0,0,,R_3JqODn0dO2tMalP,2,2024-05-20_11h53.30.574,face trait task,2021.2.3,Win32,59.88023952,120638,,,,,,,
,,,,,,4.2265625,3.1167,space,0.8171,0,25,25,40,1,41,image/41.jpg,0,0,,R_3JqODn0dO2tMalP,2,2024-05-20_11h53.30.574,face trait task,2021.2.3,Win32,59.88023952,120638,,,,,,,
,,,,,,4.625,3.0339,space,0.384,0,26,26,3,1,4,image/4.jpg,0,0,,R_3JqODn0dO2tMalP,2,2024-05-20_11h53.30.574,face trait task,2021.2.3,Win32,59.88023952,120638,,,,,,,
,,,,,,5.0703125,3.7493,space,0.3556,0,27,27,23,1,24,image/24.jpg,0,0,,R_3JqODn0dO2tMalP,2,2024-05-20_11h53.30.574,face trait task,2021.2.3,Win32,59.88023952,120638,,,,,,,
,,,,,,4.2578125,2.6842,space,0.6174,0,28,28,32,1,33,image/33.jpg,0,0,,R_3JqODn0dO2tMalP,2,2024-05-20_11h53.30.574,face trait task,2021.2.3,Win32,59.88023952,120638,,,,,,,
,,,,,,5.828125,4.4176,space,2.2845,0,29,29,0,1,1,image/1.jpg,0,0,,R_3JqODn0dO2tMalP,2,2024-05-20_11h53.30.574,face trait task,2021.2.3,Win32,59.88023952,120638,,,,,,,
,,,,,,5.359375,5.5932,space,0.384,0,30,30,37,1,38,image/38.jpg,0,0,,R_3JqODn0dO2tMalP,2,2024-05-20_11h53.30.574,face trait task,2021.2.3,Win32,59.88023952,120638,,,,,,,
,,,,,,6.2109375,4.3989,space,0.8007,0,31,31,12,1,13,image/13.jpg,0,0,,R_3JqODn0dO2tMalP,2,2024-05-20_11h53.30.574,face trait task,2021.2.3,Win32,59.88023952,120638,,,,,,,
,,,,,,5.3046875,3.028,space,0.9007,0,32,32,41,1,42,image/42.jpg,0,0,,R_3JqODn0dO2tMalP,2,2024-05-20_11h53.30.574,face trait task,2021.2.3,Win32,59.88023952,120638,,,,,,,
,,,,,,5.515625,2.6659,space,0.5056,0,33,33,26,1,27,image/27.jpg,0,0,,R_3JqODn0dO2tMalP,2,2024-05-20_11h53.30.574,face trait task,2021.2.3,Win32,59.88023952,120638,,,,,,,
,,,,,,4.703125,2.4671,space,0.4506,0,34,34,9,1,10,image/10.jpg,0,0,,R_3JqODn0dO2tMalP,2,2024-05-20_11h53.30.574,face trait task,2021.2.3,Win32,59.88023952,120638,,,,,,,
,,,,,,3.4453125,1.99,space,1.1006,0,35,35,28,1,29,image/29.jpg,0,0,,R_3JqODn0dO2tMalP,2,2024-05-20_11h53.30.574,face trait task,2021.2.3,Win32,59.88023952,120638,,,,,,,
,,,,,,5.6640625,7.0092,space,0.2672,0,36,36,19,1,20,image/20.jpg,0,0,,R_3JqODn0dO2tMalP,2,2024-05-20_11h53.30.574,face trait task,2021.2.3,Win32,59.88023952,120638,,,,,,,
,,,,,,5.1953125,2.4005,space,0.3508,0,37,37,22,1,23,image/23.jpg,0,0,,R_3JqODn0dO2tMalP,2,2024-05-20_11h53.30.574,face trait task,2021.2.3,Win32,59.88023952,120638,,,,,,,
,,,,,,1,3.2689,space,0.9175,0,38,38,51,1,55,image/fill_img.png,1,1,Please move the slider all the way to the LEFT to show that you are paying attention.,R_3JqODn0dO2tMalP,2,2024-05-20_11h53.30.574,face trait task,2021.2.3,Win32,59.88023952,120638,,,,,,,
,,,,,,6.2734375,2.7647,space,0.4342,0,39,39,20,1,21,image/21.jpg,0,0,,R_3JqODn0dO2tMalP,2,2024-05-20_11h53.30.574,face trait task,2021.2.3,Win32,59.88023952,120638,,,,,,,
,,,,,,3.5234375,1.8701,space,0.8006,0,40,40,47,1,48,image/48.jpg,0,0,,R_3JqODn0dO2tMalP,2,2024-05-20_11h53.30.574,face trait task,2021.2.3,Win32,59.88023952,120638,,,,,,,
,,,,,,5.7109375,2.6939,space,0.324,0,41,41,2,1,3,image/3.jpg,0,0,,R_3JqODn0dO2tMalP,2,2024-05-20_11h53.30.574,face trait task,2021.2.3,Win32,59.88023952,120638,,,,,,,
,,,,,,3.40625,2.3372,space,0.8176,0,42,42,27,1,28,image/28.jpg,0,0,,R_3JqODn0dO2tMalP,2,2024-05-20_11h53.30.574,face trait task,2021.2.3,Win32,59.88023952,120638,,,,,,,
,,,,,,3.8203125,3.443,space,0.3338,0,43,43,13,1,14,image/14.jpg,0,0,,R_3JqODn0dO2tMalP,2,2024-05-20_11h53.30.574,face trait task,2021.2.3,Win32,59.88023952,120638,,,,,,,
,,,,,,3.4921875,1.9709,space,0.3591,0,44,44,34,1,35,image/35.jpg,0,0,,R_3JqODn0dO2tMalP,2,2024-05-20_11h53.30.574,face trait task,2021.2.3,Win32,59.88023952,120638,,,,,,,
,,,,,,5.421875,2.3789,space,0.347,0,45,45,10,1,11,image/11.jpg,0,0,,R_3JqODn0dO2tMalP,2,2024-05-20_11h53.30.574,face trait task,2021.2.3,Win32,59.88023952,120638,,,,,,,
,,,,,,4.6953125,2.6684,space,0.885,0,46,46,44,1,45,image/45.jpg,0,0,,R_3JqODn0dO2tMalP,2,2024-05-20_11h53.30.574,face trait task,2021.2.3,Win32,59.88023952,120638,,,,,,,
,,,,,,5.109375,2.7862,space,1.4236,0,47,47,8,1,9,image/9.jpg,0,0,,R_3JqODn0dO2tMalP,2,2024-05-20_11h53.30.574,face trait task,2021.2.3,Win32,59.88023952,120638,,,,,,,
,,,,,,4.9375,4.1625,space,0.3022,0,48,48,33,1,34,image/34.jpg,0,0,,R_3JqODn0dO2tMalP,2,2024-05-20_11h53.30.574,face trait task,2021.2.3,Win32,59.88023952,120638,,,,,,,
,,,,,,7,3.9013,space,0.9659,0,49,49,52,1,56,image/fill_img.png,1,7,Please move the slider all the way to the RIGHT to show that you are paying attention.,R_3JqODn0dO2tMalP,2,2024-05-20_11h53.30.574,face trait task,2021.2.3,Win32,59.88023952,120638,,,,,,,
,,,,,,5.4765625,5.004,space,0.4013,0,50,50,11,1,12,image/12.jpg,0,0,,R_3JqODn0dO2tMalP,2,2024-05-20_11h53.30.574,face trait task,2021.2.3,Win32,59.88023952,120638,,,,,,,
,,,,,,3.546875,2.8678,space,1.134,0,51,51,39,1,40,image/40.jpg,0,0,,R_3JqODn0dO2tMalP,2,2024-05-20_11h53.30.574,face trait task,2021.2.3,Win32,59.88023952,120638,,,,,,,
,,,,,,6.046875,5.0997,space,0.2672,0,52,52,17,1,18,image/18.jpg,0,0,,R_3JqODn0dO2tMalP,2,2024-05-20_11h53.30.574,face trait task,2021.2.3,Win32,59.88023952,120638,,,,,,,
,,,,,,,,,,,,,,,,,,,,R_3JqODn0dO2tMalP,2,2024-05-20_11h53.30.574,face trait task,2021.2.3,Win32,59.88023952,120638,0,1,1,1,1,1,competent.png
,,,,,friendly,4.953125,4.1383,space,0.3339,0,0,0,22,1,23,image/23.jpg,0,0,,R_3JqODn0dO2tMalP,2,2024-05-20_11h53.30.574,face trait task,2021.2.3,Win32,59.88023952,120638,,,,,,,
,,,,,,4.4765625,3.4664,space,0.146,0,1,1,18,1,19,image/19.jpg,0,0,,R_3JqODn0dO2tMalP,2,2024-05-20_11h53.30.574,face trait task,2021.2.3,Win32,59.88023952,120638,,,,,,,
,,,,,,2.8046875,7.4832,space,0.4363,0,2,2,42,1,43,image/43.jpg,0,0,,R_3JqODn0dO2tMalP,2,2024-05-20_11h53.30.574,face trait task,2021.2.3,Win32,59.88023952,120638,,,,,,,
,,,,,,3.6875,4.6425,space,2.4472,0,3,3,7,1,8,image/8.jpg,0,0,,R_3JqODn0dO2tMalP,2,2024-05-20_11h53.30.574,face trait task,2021.2.3,Win32,59.88023952,120638,,,,,,,
,,,,,,3.34375,4.4828,space,4.831,0,4,4,41,1,42,image/42.jpg,0,0,,R_3JqODn0dO2tMalP,2,2024-05-20_11h53.30.574,face trait task,2021.2.3,Win32,59.88023952,120638,,,,,,,
,,,,,,3.8046875,2.9855,space,1.5673,0,5,5,19,1,20,image/20.jpg,0,0,,R_3JqODn0dO2tMalP,2,2024-05-20_11h53.30.574,face trait task,2021.2.3,Win32,59.88023952,120638,,,,,,,
,,,,,,4.7421875,7.065,space,4.4476,0,6,6,23,1,24,image/24.jpg,0,0,,R_3JqODn0dO2tMalP,2,2024-05-20_11h53.30.574,face trait task,2021.2.3,Win32,59.88023952,120638,,,,,,,
,,,,,,4.3984375,13.1287,space,0.3673,0,7,7,43,1,44,image/44.jpg,0,0,,R_3JqODn0dO2tMalP,2,2024-05-20_11h53.30.574,face trait task,2021.2.3,Win32,59.88023952,120638,,,,,,,
,,,,,,2.390625,7.1274,space,0.295,0,8,8,39,1,40,image/40.jpg,0,0,,R_3JqODn0dO2tMalP,2,2024-05-20_11h53.30.574,face trait task,2021.2.3,Win32,59.88023952,120638,,,,,,,
,,,,,,6.15625,2.2208,space,2.561,0,9,9,2,1,3,image/3.jpg,0,0,,R_3JqODn0dO2tMalP,2,2024-05-20_11h53.30.574,face trait task,2021.2.3,Win32,59.88023952,120638,,,,,,,
,,,,,,1.0546875,1.8018,space,2.1007,0,10,10,30,1,31,image/31.jpg,0,0,,R_3JqODn0dO2tMalP,2,2024-05-20_11h53.30.574,face trait task,2021.2.3,Win32,59.88023952,120638,,,,,,,
,,,,,,2.9921875,8.8546,space,0.2958,0,11,11,46,1,47,image/47.jpg,0,0,,R_3JqODn0dO2tMalP,2,2024-05-20_11h53.30.574,face trait task,2021.2.3,Win32,59.88023952,120638,,,,,,,
,,,,,,5.5625,4.5898,space,2.5673,0,12,12,17,1,18,image/18.jpg,0,0,,R_3JqODn0dO2tMalP,2,2024-05-20_11h53.30.574,face trait task,2021.2.3,Win32,59.88023952,120638,,,,,,,
,,,,,,5.8046875,3.859,space,4.151,0,13,13,4,1,5,image/5.jpg,0,0,,R_3JqODn0dO2tMalP,2,2024-05-20_11h53.30.574,face trait task,2021.2.3,Win32,59.88023952,120638,,,,,,,
,,,,,,4.4140625,3.3666,space,1.9673,0,14,14,35,1,36,image/36.jpg,0,0,,R_3JqODn0dO2tMalP,2,2024-05-20_11h53.30.574,face trait task,2021.2.3,Win32,59.88023952,120638,,,,,,,
,,,,,,3.6796875,2.5155,space,3.5672,0,15,15,49,1,50,image/50.jpg,0,0,,R_3JqODn0dO2tMalP,2,2024-05-20_11h53.30.574,face trait task,2021.2.3,Win32,59.88023952,120638,,,,,,,
,,,,,,2.390625,5.7346,space,4.2508,0,16,16,40,1,41,image/41.jpg,0,0,,R_3JqODn0dO2tMalP,2,2024-05-20_11h53.30.574,face trait task,2021.2.3,Win32,59.88023952,120638,,,,,,,
,,,,,,1,3.0821,space,1.4345,0,17,17,51,1,55,image/fill_img.png,1,1,Please move the slider all the way to the LEFT to show that you are paying attention.,R_3JqODn0dO2tMalP,2,2024-05-20_11h53.30.574,face trait task,2021.2.3,Win32,59.88023952,120638,,,,,,,
,,,,,,4.65625,3.7848,space,2.3015,0,18,18,6,1,7,image/7.jpg,0,0,,R_3JqODn0dO2tMalP,2,2024-05-20_11h53.30.574,face trait task,2021.2.3,Win32,59.88023952,120638,,,,,,,
,,,,,,2.34375,2.017,space,6.5179,0,19,19,47,1,48,image/48.jpg,0,0,,R_3JqODn0dO2tMalP,2,2024-05-20_11h53.30.574,face trait task,2021.2.3,Win32,59.88023952,120638,,,,,,,
,,,,,,2.25,2.9912,space,6.5841,0,20,20,16,1,17,image/17.jpg,0,0,,R_3JqODn0dO2tMalP,2,2024-05-20_11h53.30.574,face trait task,2021.2.3,Win32,59.88023952,120638,,,,,,,
,,,,,,2.2421875,6.2073,space,0.3337,0,21,21,44,1,45,image/45.jpg,0,0,,R_3JqODn0dO2tMalP,2,2024-05-20_11h53.30.574,face trait task,2021.2.3,Win32,59.88023952,120638,,,,,,,
,,,,,,3.6484375,4.4513,space,0.3389,0,22,22,3,1,4,image/4.jpg,0,0,,R_3JqODn0dO2tMalP,2,2024-05-20_11h53.30.574,face trait task,2021.2.3,Win32,59.88023952,120638,,,,,,,
,,,,,,2.3203125,6.9519,space,0.3078,0,23,23,45,1,46,image/46.jpg,0,0,,R_3JqODn0dO2tMalP,2,2024-05-20_11h53.30.574,face trait task,2021.2.3,Win32,59.88023952,120638,,,,,,,
,,,,,,1.765625,3.1172,space,1.8176,0,24,24,29,1,30,image/30.jpg,0,0,,R_3JqODn0dO2tMalP,2,2024-05-20_11h53.30.574,face trait task,2021.2.3,Win32,59.88023952,120638,,,,,,,
,,,,,,3.8203125,3.0362,space,0.6595,0,25,25,33,1,34,image/34.jpg,0,0,,R_3JqODn0dO2tMalP,2,2024-05-20_11h53.30.574,face trait task,2021.2.3,Win32,59.88023952,120638,,,,,,,
,,,,,,3.984375,5.1644,space,0.4794,0,26,26,37,1,38,image/38.jpg,0,0,,R_3JqODn0dO2tMalP,2,2024-05-20_11h53.30.574,face trait task,2021.2.3,Win32,59.88023952,120638,,,,,,,
,,,,,,4.4765625,5.3231,space,0.6509,0,27,27,25,1,26,image/26.jpg,0,0,,R_3JqODn0dO2tMalP,2,2024-05-20_11h53.30.574,face trait task,2021.2.3,Win32,59.88023952,120638,,,,,,,
,,,,,,3.2578125,3.1659,space,1.8969,0,28,28,9,1,10,image/10.jpg,0,0,,R_3JqODn0dO2tMalP,2,2024-05-20_11h53.30.574,face trait task,2021.2.3,Win32,59.88023952,120638,,,,,,,
,,,,,,2.34375,4.2581,space,1.3341,0,29,29,28,1,29,image/29.jpg,0,0,,R_3JqODn0dO2tMalP,2,2024-05-20_11h53.30.574,face trait task,2021.2.3,Win32,59.88023952,120638,,,,,,,
,,,,,,5.3125,4.3562,space,2.0177,0,30,30,12,1,13,image/13.jpg,0,0,,R_3JqODn0dO2tMalP,2,2024-05-20_11h53.30.574,face trait task,2021.2.3,Win32,59.88023952,120638,,,,,,,
,,,,,,4.796875,4.5675,space,1.0308,0,31,31,14,1,15,image/15.jpg,0,0,,R_3JqODn0dO2tMalP,2,2024-05-20_11h53.30.574,face trait task,2021.2.3,Win32,59.88023952,120638,,,,,,,
,,,,,,2.734375,4.4831,space,1.1639,0,32,32,13,1,14,image/14.jpg,0,0,,R_3JqODn0dO2tMalP,2,2024-05-20_11h53.30.574,face trait task,2021.2.3,Win32,59.88023952,120638,,,,,,,
,,,,,,1.90625,3.2352,space,2.4687,0,33,33,38,1,39,image/39.jpg,0,0,,R_3JqODn0dO2tMalP,2,2024-05-20_11h53.30.574,face trait task,2021.2.3,Win32,59.88023952,120638,,,,,,,
,,,,,,1.2578125,2.3736,space,2.899,0,34,34,27,1,28,image/28.jpg,0,0,,R_3JqODn0dO2tMalP,2,2024-05-20_11h53.30.574,face trait task,2021.2.3,Win32,59.88023952,120638,,,,,,,
,,,,,,7,3.6118,space,0.985,0,35,35,50,1,61,image/fill_img.png,1,7,Please move the slider all the way to the RIGHT to show that you are paying attention.,R_3JqODn0dO2tMalP,2,2024-05-20_11h53.30.574,face trait task,2021.2.3,Win32,59.88023952,120638,,,,,,,
,,,,,,5.8203125,7.0464,space,1.9029,0,36,36,20,1,21,image/21.jpg,0,0,,R_3JqODn0dO2tMalP,2,2024-05-20_11h53.30.574,face trait task,2021.2.3,Win32,59.88023952,120638,,,,,,,
,,,,,,1.671875,4.6,space,2.9228,0,37,37,15,1,16,image/16.jpg,0,0,,R_3JqODn0dO2tMalP,2,2024-05-20_11h53.30.574,face trait task,2021.2.3,Win32,59.88023952,120638,,,,,,,
,,,,,,3.4453125,4.7828,space,2.3199,0,38,38,32,1,33,image/33.jpg,0,0,,R_3JqODn0dO2tMalP,2,2024-05-20_11h53.30.574,face trait task,2021.2.3,Win32,59.88023952,120638,,,,,,,
,,,,,,4,14.8011,space,2.0542,0,39,39,36,1,37,image/37.jpg,0,0,,R_3JqODn0dO2tMalP,2,2024-05-20_11h53.30.574,face trait task,2021.2.3,Win32,59.88023952,120638,,,,,,,
,,,,,,7,5.0362,space,4.1009,0,40,40,52,1,56,image/fill_img.png,1,7,Please move the slider all the way to the RIGHT to show that you are paying attention.,R_3JqODn0dO2tMalP,2,2024-05-20_11h53.30.574,face trait task,2021.2.3,Win32,59.88023952,120638,,,,,,,
,,,,,,1.3671875,5.9737,space,0.8677,0,41,41,8,1,9,image/9.jpg,0,0,,R_3JqODn0dO2tMalP,2,2024-05-20_11h53.30.574,face trait task,2021.2.3,Win32,59.88023952,120638,,,,,,,
,,,,,,3.515625,10.117,space,0.6438,0,42,42,5,1,6,image/6.jpg,0,0,,R_3JqODn0dO2tMalP,2,2024-05-20_11h53.30.574,face trait task,2021.2.3,Win32,59.88023952,120638,,,,,,,
,,,,,,5.9609375,7.2481,space,5.408,0,43,43,11,1,12,image/12.jpg,0,0,,R_3JqODn0dO2tMalP,2,2024-05-20_11h53.30.574,face trait task,2021.2.3,Win32,59.88023952,120638,,,,,,,
,,,,,,2.703125,5.6049,space,1.2176,0,44,44,21,1,22,image/22.jpg,0,0,,R_3JqODn0dO2tMalP,2,2024-05-20_11h53.30.574,face trait task,2021.2.3,Win32,59.88023952,120638,,,,,,,
,,,,,,4,4.3843,space,1.6658,0,45,45,26,1,27,image/27.jpg,0,0,,R_3JqODn0dO2tMalP,2,2024-05-20_11h53.30.574,face trait task,2021.2.3,Win32,59.88023952,120638,,,,,,,
,,,,,,3.7265625,7.5267,space,0.7179,0,46,46,31,1,32,image/32.jpg,0,0,,R_3JqODn0dO2tMalP,2,2024-05-20_11h53.30.574,face trait task,2021.2.3,Win32,59.88023952,120638,,,,,,,
,,,,,,3.3046875,3.5645,space,0.9771,0,47,47,24,1,25,image/25.jpg,0,0,,R_3JqODn0dO2tMalP,2,2024-05-20_11h53.30.574,face trait task,2021.2.3,Win32,59.88023952,120638,,,,,,,
,,,,,,4.28125,8.1077,space,5.4154,0,48,48,48,1,49,image/49.jpg,0,0,,R_3JqODn0dO2tMalP,2,2024-05-20_11h53.30.574,face trait task,2021.2.3,Win32,59.88023952,120638,,,,,,,
,,,,,,3.6796875,4.9879,space,3.3388,0,49,49,1,1,2,image/2.jpg,0,0,,R_3JqODn0dO2tMalP,2,2024-05-20_11h53.30.574,face trait task,2021.2.3,Win32,59.88023952,120638,,,,,,,
,,,,,,3.7421875,5.6819,space,0.2801,0,50,50,34,1,35,image/35.jpg,0,0,,R_3JqODn0dO2tMalP,2,2024-05-20_11h53.30.574,face trait task,2021.2.3,Win32,59.88023952,120638,,,,,,,
,,,,,,4.3046875,4.2352,space,7.2844,0,51,51,10,1,11,image/11.jpg,0,0,,R_3JqODn0dO2tMalP,2,2024-05-20_11h53.30.574,face trait task,2021.2.3,Win32,59.88023952,120638,,,,,,,
,,,,,,2.828125,6.6586,space,0.2876,0,52,52,0,1,1,image/1.jpg,0,0,,R_3JqODn0dO2tMalP,2,2024-05-20_11h53.30.574,face trait task,2021.2.3,Win32,59.88023952,120638,,,,,,,
,,,,,,,,,,,,,,,,,,,,R_3JqODn0dO2tMalP,2,2024-05-20_11h53.30.574,face trait task,2021.2.3,Win32,59.88023952,120638,0,2,2,3,1,3,friendly.png
,,,,,trustworthy,2.5625,5.3769,space,0.3554,0,0,0,35,1,36,image/36.jpg,0,0,,R_3JqODn0dO2tMalP,2,2024-05-20_11h53.30.574,face trait task,2021.2.3,Win32,59.88023952,120638,,,,,,,
,,,,,,2.2578125,2.683,space,0.6879,0,1,1,2,1,3,image/3.jpg,0,0,,R_3JqODn0dO2tMalP,2,2024-05-20_11h53.30.574,face trait task,2021.2.3,Win32,59.88023952,120638,,,,,,,
,,,,,,2.15625,1.8559,space,0.7588,0,2,2,34,1,35,image/35.jpg,0,0,,R_3JqODn0dO2tMalP,2,2024-05-20_11h53.30.574,face trait task,2021.2.3,Win32,59.88023952,120638,,,,,,,
,,,,,,2.7109375,2.7027,space,0.8185,0,3,3,17,1,18,image/18.jpg,0,0,,R_3JqODn0dO2tMalP,2,2024-05-20_11h53.30.574,face trait task,2021.2.3,Win32,59.88023952,120638,,,,,,,
,,,,,,1.53125,4.7325,space,2.4095,0,4,4,39,1,40,image/40.jpg,0,0,,R_3JqODn0dO2tMalP,2,2024-05-20_11h53.30.574,face trait task,2021.2.3,Win32,59.88023952,120638,,,,,,,
,,,,,,1.8984375,2.8744,space,1.0163,0,5,5,37,1,38,image/38.jpg,0,0,,R_3JqODn0dO2tMalP,2,2024-05-20_11h53.30.574,face trait task,2021.2.3,Win32,59.88023952,120638,,,,,,,
,,,,,,2.0625,8.2062,space,1.1679,0,6,6,48,1,49,image/49.jpg,0,0,,R_3JqODn0dO2tMalP,2,2024-05-20_11h53.30.574,face trait task,2021.2.3,Win32,59.88023952,120638,,,,,,,
,,,,,,1.7421875,4.3988,space,0.6141,0,7,7,38,1,39,image/39.jpg,0,0,,R_3JqODn0dO2tMalP,2,2024-05-20_11h53.30.574,face trait task,2021.2.3,Win32,59.88023952,120638,,,,,,,
,,,,,,1.53125,2.3223,space,1.0511,0,8,8,16,1,17,image/17.jpg,0,0,,R_3JqODn0dO2tMalP,2,2024-05-20_11h53.30.574,face trait task,2021.2.3,Win32,59.88023952,120638,,,,,,,
,,,,,,1.609375,2.2593,space,0.4673,0,9,9,22,1,23,image/23.jpg,0,0,,R_3JqODn0dO2tMalP,2,2024-05-20_11h53.30.574,face trait task,2021.2.3,Win32,59.88023952,120638,,,,,,,
,,,,,,1.4296875,1.6763,space,0.7173,0,10,10,44,1,45,image/45.jpg,0,0,,R_3JqODn0dO2tMalP,2,2024-05-20_11h53.30.574,face trait task,2021.2.3,Win32,59.88023952,120638,,,,,,,
,,,,,,1.4609375,3.0659,space,0.6339,0,11,11,29,1,30,image/30.jpg,0,0,,R_3JqODn0dO2tMalP,2,2024-05-20_11h53.30.574,face trait task,2021.2.3,Win32,59.88023952,120638,,,,,,,
,,,,,,1.7734375,1.7655,space,1.434,0,12,12,33,1,34,image/34.jpg,0,0,,R_3JqODn0dO2tMalP,2,2024-05-20_11h53.30.574,face trait task,2021.2.3,Win32,59.88023952,120638,,,,,,,
,,,,,,1.875,2.3172,space,1.8013,0,13,13,49,1,50,image/50.jpg,0,0,,R_3JqODn0dO2tMalP,2,2024-05-20_11h53.30.574,face trait task,2021.2.3,Win32,59.88023952,120638,,,,,,,
,,,,,,1,2.7016,space,0.867,0,14,14,51,1,55,image/fill_img.png,1,1,Please move the slider all the way to the LEFT to show that you are paying attention.,R_3JqODn0dO2tMalP,2,2024-05-20_11h53.30.574,face trait task,2021.2.3,Win32,59.88023952,120638,,,,,,,
,,,,,,7,2.9015,space,1.0672,0,15,15,52,1,56,image/fill_img.png,1,7,Please move the slider all the way to the RIGHT to show that you are paying attention.,R_3JqODn0dO2tMalP,2,2024-05-20_11h53.30.574,face trait task,2021.2.3,Win32,59.88023952,120638,,,,,,,
,,,,,,2,3.8,space,0.6306,0,16,16,12,1,13,image/13.jpg,0,0,,R_3JqODn0dO2tMalP,2,2024-05-20_11h53.30.574,face trait task,2021.2.3,Win32,59.88023952,120638,,,,,,,
,,,,,,1.890625,3.833,space,0.8821,0,17,17,9,1,10,image/10.jpg,0,0,,R_3JqODn0dO2tMalP,2,2024-05-20_11h53.30.574,face trait task,2021.2.3,Win32,59.88023952,120638,,,,,,,
,,,,,,1.828125,6.7814,space,1.6535,0,18,18,7,1,8,image/8.jpg,0,0,,R_3JqODn0dO2tMalP,2,2024-05-20_11h53.30.574,face trait task,2021.2.3,Win32,59.88023952,120638,,,,,,,
,,,,,,1.828125,3.8499,space,0.7797,0,19,19,10,1,11,image/11.jpg,0,0,,R_3JqODn0dO2tMalP,2,2024-05-20_11h53.30.574,face trait task,2021.2.3,Win32,59.88023952,120638,,,,,,,
,,,,,,1.4375,4.466,space,0.3385,0,20,20,14,1,15,image/15.jpg,0,0,,R_3JqODn0dO2tMalP,2,2024-05-20_11h53.30.574,face trait task,2021.2.3,Win32,59.88023952,120638,,,,,,,
,,,,,,1.3125,3.8668,space,0.2477,0,21,21,8,1,9,image/9.jpg,0,0,,R_3JqODn0dO2tMalP,2,2024-05-20_11h53.30.574,face trait task,2021.2.3,Win32,59.88023952,120638,,,,,,,
,,,,,,1.21875,2.4823,space,1.7838,0,22,22,27,1,28,image/28.jpg,0,0,,R_3JqODn0dO2tMalP,2,2024-05-20_11h53.30.574,face trait task,2021.2.3,Win32,59.88023952,120638,,,,,,,
,,,,,,1.09375,2.979,space,0.4091,0,23,23,47,1,48,image/48.jpg,0,0,,R_3JqODn0dO2tMalP,2,2024-05-20_11h53.30.574,face trait task,2021.2.3,Win32,59.88023952,120638,,,,,,,
,,,,,,1.25,2.9161,space,0.5504,0,24,24,24,1,25,image/25.jpg,0,0,,R_3JqODn0dO2tMalP,2,2024-05-20_11h53.30.574,face trait task,2021.2.3,Win32,59.88023952,120638,,,,,,,
,,,,,,1.1171875,1.9277,space,2.9849,0,25,25,41,1,42,image/42.jpg,0,0,,R_3JqODn0dO2tMalP,2,2024-05-20_11h53.30.574,face trait task,2021.2.3,Win32,59.88023952,120638,,,,,,,
,,,,,,1.7734375,3.9089,space,0.434,0,26,26,20,1,21,image/21.jpg,0,0,,R_3JqODn0dO2tMalP,2,2024-05-20_11h53.30.574,face trait task,2021.2.3,Win32,59.88023952,120638,,,,,,,
,,,,,,7,2.8493,space,0.9672,0,27,27,50,1,61,image/fill_img.png,1,7,Please move the slider all the way to the RIGHT to show that you are paying attention.,R_3JqODn0dO2tMalP,2,2024-05-20_11h53.30.574,face trait task,2021.2.3,Win32,59.88023952,120638,,,,,,,
,,,,,,1.4140625,3.2997,space,0.484,0,28,28,21,1,22,image/22.jpg,0,0,,R_3JqODn0dO2tMalP,2,2024-05-20_11h53.30.574,face trait task,2021.2.3,Win32,59.88023952,120638,,,,,,,
,,,,,,1.40625,6.4817,space,0.4635,0,29,29,36,1,37,image/37.jpg,0,0,,R_3JqODn0dO2tMalP,2,2024-05-20_11h53.30.574,face trait task,2021.2.3,Win32,59.88023952,120638,,,,,,,
,,,,,,1.5625,2.0483,space,0.9338,0,30,30,18,1,19,image/19.jpg,0,0,,R_3JqODn0dO2tMalP,2,2024-05-20_11h53.30.574,face trait task,2021.2.3,Win32,59.88023952,120638,,,,,,,
,,,,,,1.890625,2.237,space,2.051,0,31,31,4,1,5,image/5.jpg,0,0,,R_3JqODn0dO2tMalP,2,2024-05-20_11h53.30.574,face trait task,2021.2.3,Win32,59.88023952,120638,,,,,,,
,,,,,,1.65625,4.3192,space,1.4512,0,32,32,31,1,32,image/32.jpg,0,0,,R_3JqODn0dO2tMalP,2,2024-05-20_11h53.30.574,face trait task,2021.2.3,Win32,59.88023952,120638,,,,,,,
,,,,,,1.5,2.8043,space,0.5775,0,33,33,32,1,33,image/33.jpg,0,0,,R_3JqODn0dO2tMalP,2,2024-05-20_11h53.30.574,face trait task,2021.2.3,Win32,59.88023952,120638,,,,,,,
,,,,,,1.078125,2.4271,space,1.3178,0,34,34,45,1,46,image/46.jpg,0,0,,R_3JqODn0dO2tMalP,2,2024-05-20_11h53.30.574,face trait task,2021.2.3,Win32,59.88023952,120638,,,,,,,
,,,,,,1.4375,2.3177,space,0.5675,0,35,35,6,1,7,image/7.jpg,0,0,,R_3JqODn0dO2tMalP,2,2024-05-20_11h53.30.574,face trait task,2021.2.3,Win32,59.88023952,120638,,,,,,,
,,,,,,1.8359375,2.1655,space,0.3676,0,36,36,11,1,12,image/12.jpg,0,0,,R_3JqODn0dO2tMalP,2,2024-05-20_11h53.30.574,face trait task,2021.2.3,Win32,59.88023952,120638,,,,,,,
,,,,,,1.21875,2.2258,space,0.3004,0,37,37,42,1,43,image/43.jpg,0,0,,R_3JqODn0dO2tMalP,2,2024-05-20_11h53.30.574,face trait task,2021.2.3,Win32,59.88023952,120638,,,,,,,
,,,,,,1.5234375,2.3829,space,0.7173,0,38,38,13,1,14,image/14.jpg,0,0,,R_3JqODn0dO2tMalP,2,2024-05-20_11h53.30.574,face trait task,2021.2.3,Win32,59.88023952,120638,,,,,,,
,,,,,,1.828125,1.8991,space,0.3171,0,39,39,25,1,26,image/26.jpg,0,0,,R_3JqODn0dO2tMalP,2,2024-05-20_11h53.30.574,face trait task,2021.2.3,Win32,59.88023952,120638,,,,,,,
,,,,,,1.15625,1.9174,space,0.5176,0,40,40,30,1,31,image/31.jpg,0,0,,R_3JqODn0dO2tMalP,2,2024-05-20_11h53.30.574,face trait task,2021.2.3,Win32,59.88023952,120638,,,,,,,
,,,,,,1.2109375,3.0001,space,1.7672,0,41,41,43,1,44,image/44.jpg,0,0,,R_3JqODn0dO2tMalP,2,2024-05-20_11h53.30.574,face trait task,2021.2.3,Win32,59.88023952,120638,,,,,,,
,,,,,,1.359375,1.4184,space,0.5009,0,42,42,1,1,2,image/2.jpg,0,0,,R_3JqODn0dO2tMalP,2,2024-05-20_11h53.30.574,face trait task,2021.2.3,Win32,59.88023952,120638,,,,,,,
,,,,,,1.9375,2.4694,space,0.7174,0,43,43,19,1,20,image/20.jpg,0,0,,R_3JqODn0dO2tMalP,2,2024-05-20_11h53.30.574,face trait task,2021.2.3,Win32,59.88023952,120638,,,,,,,
,,,,,,1.6328125,1.9672,space,0.3007,0,44,44,15,1,16,image/16.jpg,0,0,,R_3JqODn0dO2tMalP,2,2024-05-20_11h53.30.574,face trait task,2021.2.3,Win32,59.88023952,120638,,,,,,,
,,,,,,1.296875,3.7834,space,2.1377,0,45,45,26,1,27,image/27.jpg,0,0,,R_3JqODn0dO2tMalP,2,2024-05-20_11h53.30.574,face trait task,2021.2.3,Win32,59.88023952,120638,,,,,,,
,,,,,,1.6015625,2.8757,space,0.5338,0,46,46,5,1,6,image/6.jpg,0,0,,R_3JqODn0dO2tMalP,2,2024-05-20_11h53.30.574,face trait task,2021.2.3,Win32,59.88023952,120638,,,,,,,
,,,,,,1.2734375,1.4442,space,0.6242,0,47,47,28,1,29,image/29.jpg,0,0,,R_3JqODn0dO2tMalP,2,2024-05-20_11h53.30.574,face trait task,2021.2.3,Win32,59.88023952,120638,,,,,,,
,,,,,,1.59375,1.8825,space,0.4292,0,48,48,23,1,24,image/24.jpg,0,0,,R_3JqODn0dO2tMalP,2,2024-05-20_11h53.30.574,face trait task,2021.2.3,Win32,59.88023952,120638,,,,,,,
,,,,,,1.1640625,1.8657,space,0.3673,0,49,49,40,1,41,image/41.jpg,0,0,,R_3JqODn0dO2tMalP,2,2024-05-20_11h53.30.574,face trait task,2021.2.3,Win32,59.88023952,120638,,,,,,,
,,,,,,1.5546875,1.8177,space,1.5763,0,50,50,3,1,4,image/4.jpg,0,0,,R_3JqODn0dO2tMalP,2,2024-05-20_11h53.30.574,face trait task,2021.2.3,Win32,59.88023952,120638,,,,,,,
,,,,,,1.1640625,1.4006,space,0.6343,0,51,51,46,1,47,image/47.jpg,0,0,,R_3JqODn0dO2tMalP,2,2024-05-20_11h53.30.574,face trait task,2021.2.3,Win32,59.88023952,120638,,,,,,,
,,,,,,1.609375,4.6878,space,0.6,0,52,52,0,1,1,image/1.jpg,0,0,,R_3JqODn0dO2tMalP,2,2024-05-20_11h53.30.574,face trait task,2021.2.3,Win32,59.88023952,120638,,,,,,,
,,,,,,,,,,,,,,,,,,,,R_3JqODn0dO2tMalP,2,2024-05-20_11h53.30.574,face trait task,2021.2.3,Win32,59.88023952,120638,0,3,3,2,1,2,trustworthy.png
