chooserow,ParID,pre_instru_resp_2.keys,pre_instru_resp_2.rt,pre_instru_resp_3.keys,pre_instru_resp_3.rt,pre_instru_resp_9.keys,pre_instru_resp_9.rt,pre_instru_resp_8.keys,pre_instru_resp_8.rt,pre_instru_resp_4.keys,pre_instru_resp_4.rt,pre_instru_resp_5.keys,pre_instru_resp_5.rt,pre_instru_resp_6.keys,pre_instru_resp_6.rt,key_resp_3.keys,key_resp_3.rt,key_resp_4.keys,key_resp_4.rt,key_resp_5.keys,key_resp_5.rt,key_resp_6.keys,key_resp_6.rt,key_resp_7.keys,key_resp_7.rt,trials_2.thisRepN,trials_2.thisTrialN,trials_2.thisN,trials_2.thisIndex,trials_2.ran,participant,session,date,expName,psychopyVersion,OS,frameRate,SONAid,pre_instru_resp.keys,pre_instru_resp.rt,clicked,judge_2.x,judge_2.y,judge_2.leftButton,judge_2.midButton,judge_2.rightButton,trials.thisRepN,trials.thisTrialN,trials.thisN,trials.thisIndex,trials.ran,prac_answer,prac_dot_sti,dotlefttext,dotrighttext,judge_2.clicked_name,prac_acc,judge.x,judge.y,judge.leftButton,judge.midButton,judge.rightButton,judge.clicked_name,clicked_guilt,slider_guilt.response,slider_guilt.rt,key_guilt.keys,share_slider.response,share_slider.rt,key_share.keys,slider_apology.response,slider_apology.rt,key_apology.keys,slider_hide.response,slider_hide.rt,slider_forgiveness.response,slider_forgiveness.rt,key_forgiveness.keys,slider_mad.response,slider_mad.rt,trialseq.thisRepN,trialseq.thisTrialN,trialseq.thisN,trialseq.thisIndex,trialseq.ran,type_trial,stipic,DV,picture,answer,number,key_apology.rt,key_share.rt,key_guilt.rt,key_forgiveness.rt
"[24,130,70,51,170,41,110,132,169,62,190,84,72,106,112,97,165,141,129,49,16,98,142,128,197,166,61,146,187,82,73,154,54,90,203,9,111,183,179,94,163,152]",R_3kN6FWJDmiyDkpx,space,1.4146,space,1.1409,space,4.507,space,0.645,space,2.3812,space,3.0399,space,2.2654,1,9.6401,2,8.0901,2,10.683,2,6.3083,1,5.0632,0,0,0,0,1,R_3kN6FWJDmiyDkpx,1,2024-05-29_10h06.39.831,interaction task,2021.2.3,MacIntel,30.03003003,120788,,,,,,,,,,,,,,,,,,,,,,,,,,,,,,,,,,,,,,,,,,,,,,,,,,,,,,,,,
,,,,space,1.1995,space,10.3521,space,7,space,0.9118,space,2.5063,space,0.9106,3,1.3989,1,4.8661,3,2.1404,2,1.9979,3,1.3992,1,0,1,0,1,R_3kN6FWJDmiyDkpx,1,2024-05-29_10h06.39.831,interaction task,2021.2.3,MacIntel,30.03003003,120788,,,,,,,,,,,,,,,,,,,,,,,,,,,,,,,,,,,,,,,,,,,,,,,,,,,,,,,,,
,,,,space,25.4559,space,0.5315,space,0.5659,space,8.2065,space,0.7985,space,0.5784,3,1.3647,1,3.5315,3,6.9988,3,10.9473,2,3.9165,2,0,2,0,1,R_3kN6FWJDmiyDkpx,1,2024-05-29_10h06.39.831,interaction task,2021.2.3,MacIntel,30.03003003,120788,,,,,,,,,,,,,,,,,,,,,,,,,,,,,,,,,,,,,,,,,,,,,,,,,,,,,,,,,
,,,,space,1.8576,space,0.3347,space,0.2472,space,4.2094,space,0.7673,space,0.1817,3,1.076,1,0.8987,3,4.1406,3,6.369,2,4.2655,3,0,3,0,1,R_3kN6FWJDmiyDkpx,1,2024-05-29_10h06.39.831,interaction task,2021.2.3,MacIntel,30.03003003,120788,,,,,,,,,,,,,,,,,,,,,,,,,,,,,,,,,,,,,,,,,,,,,,,,,,,,,,,,,
,,,,space,0.5706,space,0.1387,space,0.8657,space,6.131,space,1.278,space,0.3454,3,1.1849,1,0.9785,3,3.7801,2,2.4136,2,3.9488,4,0,4,0,1,R_3kN6FWJDmiyDkpx,1,2024-05-29_10h06.39.831,interaction task,2021.2.3,MacIntel,30.03003003,120788,,,,,,,,,,,,,,,,,,,,,,,,,,,,,,,,,,,,,,,,,,,,,,,,,,,,,,,,,
,,,,,,,,,,,,,,,,,,,,,,,,,,,,,,,R_3kN6FWJDmiyDkpx,1,2024-05-29_10h06.39.831,interaction task,2021.2.3,MacIntel,30.03003003,120788,space,1.6944,[],0.999981399,1,0,0,0,0,0,0,1,1,LeftButton_2,9dot2.png,Smaller,Greater,,,,,,,,,,,,,,,,,,,,,,,,,,,,,,,,,,,,,,,,
,,,,,,,,,,,,,,,,,,,,,,,,,,,,,,,R_3kN6FWJDmiyDkpx,1,2024-05-29_10h06.39.831,interaction task,2021.2.3,MacIntel,30.03003003,120788,,,"[""RightButton_2""]",0.266910371,-0.27765067,1,0,0,0,1,1,0,1,LeftButton_2,11dot1.png,Greater,Smaller,RightButton_2,,,,,,,,,,,,,,,,,,,,,,,,,,,,,,,,,,,,,,,
,,,,,,,,,,,,,,,,,,,,,,,,,,,,,,,R_3kN6FWJDmiyDkpx,1,2024-05-29_10h06.39.831,interaction task,2021.2.3,MacIntel,30.03003003,120788,,,"[""RightButton_2""]",0.269405256,-0.350398182,1,0,0,0,2,2,2,1,RightButton_2,9dot1.png,Greater,Smaller,RightButton_2,,,,,,,,,,,,,,,,,,,,,,,,,,,,,,,,,,,,,,,
,,,,,,,,,,,,,,,,,,,,,,,,,,,,,,,R_3kN6FWJDmiyDkpx,1,2024-05-29_10h06.39.831,interaction task,2021.2.3,MacIntel,30.03003003,120788,,,,,,,,,,,,,,,,Greater,Smaller,,0.2,0.314244298,-0.520208915,1,0,0,RightButton,"[""RightButton""]",,,,,,,,,,,,,,,,,0,0,0,0,1,0,both_right.png,2,RandomDot25.png,No answer,19,,,,
,,,,,,,,,,,,,,,,,,,,,,,,,,,,,,,R_3kN6FWJDmiyDkpx,1,2024-05-29_10h06.39.831,interaction task,2021.2.3,MacIntel,30.03003003,120788,,,,,,,,,,,,,,,,Smaller,Greater,,,-0.282105727,-0.493322289,1,0,0,LeftButton,"[""LeftButton""]",,,,,,,40,3.6844,space,59,10.753,,,,,,0,1,1,1,1,2,only_sub_right.png,2,RandomDot8.png,No answer,21,1.1375,,,
,,,,,,,,,,,,,,,,,,,,,,,,,,,,,,,R_3kN6FWJDmiyDkpx,1,2024-05-29_10h06.39.831,interaction task,2021.2.3,MacIntel,30.03003003,120788,,,,,,,,,,,,,,,,Smaller,Greater,,,-0.28641866,-0.545242281,1,0,0,LeftButton,"[""LeftButton""]",,,,2.007819766,6.7768,space,,,,,,,,,,,0,2,2,2,1,1,both_wrong.png,1,RandomDot29.png,No answer,19,,1.5848,,
,,,,,,,,,,,,,,,,,,,,,,,,,,,,,,,R_3kN6FWJDmiyDkpx,1,2024-05-29_10h06.39.831,interaction task,2021.2.3,MacIntel,30.03003003,120788,,,,,,,,,,,,,,,,Greater,Smaller,,,0.299517096,-0.504705171,1,0,0,RightButton,"[""RightButton""]",20,2.4767,space,,,,,,,,,,,,,,0,3,3,3,1,1,both_wrong.png,0,RandomDot14.png,No answer,19,,,0.9363,
,,,,,,,,,,,,,,,,,,,,,,,,,,,,,,,R_3kN6FWJDmiyDkpx,1,2024-05-29_10h06.39.831,interaction task,2021.2.3,MacIntel,30.03003003,120788,,,,,,,,,,,,,,,,Greater,Smaller,,,0.289601208,-0.541395089,1,0,0,RightButton,"[""RightButton""]",,,,,,,30,2.9652,space,59,6.1825,,,,,,0,4,4,4,1,3,only_sub_wrong.png,2,RandomDot39.png,No answer,20,0.8988,,,
,,,,,,,,,,,,,,,,,,,,,,,,,,,,,,,R_3kN6FWJDmiyDkpx,1,2024-05-29_10h06.39.831,interaction task,2021.2.3,MacIntel,30.03003003,120788,,,,,,,,,,,,,,,,Greater,Smaller,,,-0.293176197,-0.538666062,1,0,0,LeftButton,"[""LeftButton""]",,,,,,,,,,,,,,,,,0,5,5,5,1,0,both_right.png,3,RandomDot30.png,No answer,19,,,,
,,,,,,,,,,,,,,,,,,,,,,,,,,,,,,,R_3kN6FWJDmiyDkpx,1,2024-05-29_10h06.39.831,interaction task,2021.2.3,MacIntel,30.03003003,120788,,,,,,,,,,,,,,,,Greater,Smaller,,,-0.38464835,-0.489306873,1,0,0,LeftButton,"[""LeftButton""]",,,,2.000381106,7.9101,space,,,,,,,,,,,0,6,6,6,1,2,only_sub_right.png,1,RandomDot6.png,No answer,21,,0.7169,,
,,,,,,,,,,,,,,,,,,,,,,,,,,,,,,,R_3kN6FWJDmiyDkpx,1,2024-05-29_10h06.39.831,interaction task,2021.2.3,MacIntel,30.03003003,120788,,,,,,,,,,,,,,,,Greater,Smaller,,,0.27219093,-0.508851376,1,0,0,RightButton,"[""RightButton""]",,,,,,,,,,,,74.79471754,4.5744,space,23.93569836,7.7314,0,7,7,7,1,2,only_sub_right.png,3,RandomDot20.png,No answer,21,,,,0.5733
,,,,,,,,,,,,,,,,,,,,,,,,,,,,,,,R_3kN6FWJDmiyDkpx,1,2024-05-29_10h06.39.831,interaction task,2021.2.3,MacIntel,30.03003003,120788,,,,,,,,,,,,,,,,Greater,Smaller,,,0.313015166,-0.523804757,1,0,0,RightButton,"[""RightButton""]",,,,,,,37,3.7407,space,50,6.3412,,,,,,0,8,8,8,1,3,only_sub_wrong.png,2,RandomDot1.png,No answer,20,1.0364,,,
,,,,,,,,,,,,,,,,,,,,,,,,,,,,,,,R_3kN6FWJDmiyDkpx,1,2024-05-29_10h06.39.831,interaction task,2021.2.3,MacIntel,30.03003003,120788,,,,,,,,,,,,,,,,Greater,Smaller,,,-0.342555164,-0.480019648,1,0,0,LeftButton,"[""LeftButton""]",,,,1.995417277,2.6779,space,,,,,,,,,,,0,9,9,9,1,1,both_wrong.png,1,RandomDot28.png,No answer,21,,0.4413,,
,,,,,,,,,,,,,,,,,,,,,,,,,,,,,,,R_3kN6FWJDmiyDkpx,1,2024-05-29_10h06.39.831,interaction task,2021.2.3,MacIntel,30.03003003,120788,,,,,,,,,,,,,,,,Smaller,Greater,,,0.360267566,-0.50023856,1,0,0,RightButton,"[""RightButton""]",,,,,,,,,,,,45.15863357,3.072,space,35.97393614,5.1053,0,10,10,10,1,3,only_sub_wrong.png,3,RandomDot7.png,No answer,19,,,,0.3834
,,,,,,,,,,,,,,,,,,,,,,,,,,,,,,,R_3kN6FWJDmiyDkpx,1,2024-05-29_10h06.39.831,interaction task,2021.2.3,MacIntel,30.03003003,120788,,,,,,,,,,,,,,,,Greater,Smaller,,,0.255815778,-0.518425525,1,0,0,RightButton,"[""RightButton""]",,,,,,,,,,,,64.2144244,4.3168,space,34.98255522,6.2065,0,11,11,11,1,1,both_wrong.png,3,RandomDot6.png,No answer,20,,,,0.2785
,,,,,,,,,,,,,,,,,,,,,,,,,,,,,,,R_3kN6FWJDmiyDkpx,1,2024-05-29_10h06.39.831,interaction task,2021.2.3,MacIntel,30.03003003,120788,,,,,,,,,,,,,,,,Greater,Smaller,,,0.311528378,-0.465516532,1,0,0,RightButton,"[""RightButton""]",,,,,,,45,2.2784,space,55,5.135,,,,,,0,12,12,12,1,1,both_wrong.png,2,RandomDot1.png,No answer,21,0.338,,,
,,,,,,,,,,,,,,,,,,,,,,,,,,,,,,,R_3kN6FWJDmiyDkpx,1,2024-05-29_10h06.39.831,interaction task,2021.2.3,MacIntel,30.03003003,120788,,,,,,,,,,,,,,,,Smaller,Greater,,,0.285960025,-0.511672131,1,0,0,RightButton,"[""RightButton""]",35,1.911,space,,,,,,,,,,,,,,0,13,13,13,1,2,only_sub_right.png,0,RandomDot39.png,No answer,19,,,0.499,
,,,,,,,,,,,,,,,,,,,,,,,,,,,,,,,R_3kN6FWJDmiyDkpx,1,2024-05-29_10h06.39.831,interaction task,2021.2.3,MacIntel,30.03003003,120788,,,,,,,,,,,,,,,,Greater,Smaller,,,-0.337684413,-0.460153809,1,0,0,LeftButton,"[""LeftButton""]",,,,1.991877238,2.875,space,,,,,,,,,,,0,14,14,14,1,2,only_sub_right.png,1,RandomDot32.png,No answer,19,,0.3664,,
,,,,,,,,,,,,,,,,,,,,,,,,,,,,,,,R_3kN6FWJDmiyDkpx,1,2024-05-29_10h06.39.831,interaction task,2021.2.3,MacIntel,30.03003003,120788,,,,,,,,,,,,,,,,Greater,Smaller,,,0.272333636,-0.47680106,1,0,0,RightButton,"[""RightButton""]",31,3.5348,space,,,,,,,,,,,,,,0,15,15,15,1,2,only_sub_right.png,0,RandomDot8.png,No answer,20,,,2.153,
,,,,,,,,,,,,,,,,,,,,,,,,,,,,,,,R_3kN6FWJDmiyDkpx,1,2024-05-29_10h06.39.831,interaction task,2021.2.3,MacIntel,30.03003003,120788,,,,,,,,,,,,,,,,Smaller,Greater,,,-0.287775603,-0.535455729,1,0,0,LeftButton,"[""LeftButton""]",,,,2.30007099,2.6753,space,,,,,,,,,,,0,16,16,16,1,3,only_sub_wrong.png,1,RandomDot6.png,No answer,21,,0.8411,,
,,,,,,,,,,,,,,,,,,,,,,,,,,,,,,,R_3kN6FWJDmiyDkpx,1,2024-05-29_10h06.39.831,interaction task,2021.2.3,MacIntel,30.03003003,120788,,,,,,,,,,,,,,,,Smaller,Greater,,,0.3190389,-0.528441104,1,0,0,RightButton,"[""RightButton""]",,,,,,,,,,,,44.4150777,2.9962,space,45.87715446,4.606,0,17,17,17,1,2,only_sub_right.png,3,RandomDot7.png,No answer,20,,,,0.2322
,,,,,,,,,,,,,,,,,,,,,,,,,,,,,,,R_3kN6FWJDmiyDkpx,1,2024-05-29_10h06.39.831,interaction task,2021.2.3,MacIntel,30.03003003,120788,,,,,,,,,,,,,,,,Smaller,Greater,,,0.230639067,-0.505687198,1,0,0,RightButton,"[""RightButton""]",,,,,,,25,2.875,space,54,5.3836,,,,,,0,18,18,18,1,2,only_sub_right.png,2,RandomDot37.png,No answer,19,0.2674,,,
,,,,,,,,,,,,,,,,,,,,,,,,,,,,,,,R_3kN6FWJDmiyDkpx,1,2024-05-29_10h06.39.831,interaction task,2021.2.3,MacIntel,30.03003003,120788,,,,,,,,,,,,,,,,Greater,Smaller,,,-0.23378681,-0.490934012,1,0,0,LeftButton,"[""LeftButton""]",26,2.0439,space,,,,,,,,,,,,,,0,19,19,19,1,1,both_wrong.png,0,RandomDot16.png,No answer,19,,,0.4786,
,,,,,,,,,,,,,,,,,,,,,,,,,,,,,,,R_3kN6FWJDmiyDkpx,1,2024-05-29_10h06.39.831,interaction task,2021.2.3,MacIntel,30.03003003,120788,,,,,,,,,,,,,,,,Greater,Smaller,,,0.2434114,-0.465631743,1,0,0,RightButton,"[""RightButton""]",,,,,,,,,,,,,,,,,0,20,20,20,1,0,both_right.png,1,RandomDot12.png,No answer,21,,,,
,,,,,,,,,,,,,,,,,,,,,,,,,,,,,,,R_3kN6FWJDmiyDkpx,1,2024-05-29_10h06.39.831,interaction task,2021.2.3,MacIntel,30.03003003,120788,,,,,,,,,,,,,,,,Greater,Smaller,,,-0.286730739,-0.506995094,1,0,0,LeftButton,"[""LeftButton""]",7,1.5995,space,,,,,,,,,,,,,,0,21,21,21,1,2,only_sub_right.png,0,RandomDot16.png,No answer,20,,,0.3502,
,,,,,,,,,,,,,,,,,,,,,,,,,,,,,,,R_3kN6FWJDmiyDkpx,1,2024-05-29_10h06.39.831,interaction task,2021.2.3,MacIntel,30.03003003,120788,,,,,,,,,,,,,,,,Smaller,Greater,,,-0.324872916,-0.509900716,1,0,0,LeftButton,"[""LeftButton""]",,,,,,,,,,,,83.89090813,4.3494,space,32.81240899,5.9061,0,22,22,22,1,2,only_sub_right.png,3,RandomDot18.png,No answer,20,,,,0.5996
,,,,,,,,,,,,,,,,,,,,,,,,,,,,,,,R_3kN6FWJDmiyDkpx,1,2024-05-29_10h06.39.831,interaction task,2021.2.3,MacIntel,30.03003003,120788,,,,,,,,,,,,,,,,Smaller,Greater,,,0.216217114,-0.49340239,1,0,0,RightButton,"[""RightButton""]",,,,,,,15,2.5091,space,75,4.4674,,,,,,0,23,23,23,1,2,only_sub_right.png,2,RandomDot22.png,No answer,20,0.2679,,,
,,,,,,,,,,,,,,,,,,,,,,,,,,,,,,,R_3kN6FWJDmiyDkpx,1,2024-05-29_10h06.39.831,interaction task,2021.2.3,MacIntel,30.03003003,120788,,,,,,,,,,,,,,,,Smaller,Greater,,,0.26360866,-0.527417225,1,0,0,RightButton,"[""RightButton""]",,,,,,,,,,,,,,,,,0,24,24,24,1,4,both_right.png,10,RandomDot41.png,RightButton,5,,,,
,,,,,,,,,,,,,,,,,,,,,,,,,,,,,,,R_3kN6FWJDmiyDkpx,1,2024-05-29_10h06.39.831,interaction task,2021.2.3,MacIntel,30.03003003,120788,,,,,,,,,,,,,,,,Smaller,Greater,,,0.264799136,-0.527417225,1,0,0,RightButton,"[""RightButton""]",,,,2.46488008,2.4671,space,,,,,,,,,,,0,25,25,25,1,3,only_sub_wrong.png,1,RandomDot15.png,No answer,20,,0.2178,,
,,,,,,,,,,,,,,,,,,,,,,,,,,,,,,,R_3kN6FWJDmiyDkpx,1,2024-05-29_10h06.39.831,interaction task,2021.2.3,MacIntel,30.03003003,120788,,,,,,,,,,,,,,,,Greater,Smaller,,,0.23953218,-0.53269694,1,0,0,RightButton,"[""RightButton""]",,,,2.517227899,2.1665,space,,,,,,,,,,,0,26,26,26,1,1,both_wrong.png,1,RandomDot23.png,No answer,21,,0.2753,,
,,,,,,,,,,,,,,,,,,,,,,,,,,,,,,,R_3kN6FWJDmiyDkpx,1,2024-05-29_10h06.39.831,interaction task,2021.2.3,MacIntel,30.03003003,120788,,,,,,,,,,,,,,,,Greater,Smaller,,,0.273240008,-0.519074823,1,0,0,RightButton,"[""RightButton""]",69,1.944,space,,,,,,,,,,,,,,0,27,27,27,1,3,only_sub_wrong.png,0,RandomDot38.png,No answer,21,,,0.5559,
,,,,,,,,,,,,,,,,,,,,,,,,,,,,,,,R_3kN6FWJDmiyDkpx,1,2024-05-29_10h06.39.831,interaction task,2021.2.3,MacIntel,30.03003003,120788,,,,,,,,,,,,,,,,Smaller,Greater,,,-0.296126956,-0.503996233,1,0,0,LeftButton,"[""LeftButton""]",,,,,,,,,,,,35.81360509,3.7832,space,55.52985415,5.3645,0,28,28,28,1,3,only_sub_wrong.png,3,RandomDot18.png,No answer,21,,,,0.3048
,,,,,,,,,,,,,,,,,,,,,,,,,,,,,,,R_3kN6FWJDmiyDkpx,1,2024-05-29_10h06.39.831,interaction task,2021.2.3,MacIntel,30.03003003,120788,,,,,,,,,,,,,,,,Smaller,Greater,,,0.38134722,-0.511093169,1,0,0,RightButton,"[""RightButton""]",,,,,,,55,3.0415,space,68,5.0415,,,,,,0,29,29,29,1,1,both_wrong.png,2,RandomDot7.png,No answer,21,0.3317,,,
,,,,,,,,,,,,,,,,,,,,,,,,,,,,,,,R_3kN6FWJDmiyDkpx,1,2024-05-29_10h06.39.831,interaction task,2021.2.3,MacIntel,30.03003003,120788,,,,,,,,,,,,,,,,Greater,Smaller,,,-0.290626889,-0.484050758,1,0,0,LeftButton,"[""LeftButton""]",,,,,,,41,2.0005,space,61,3.3668,,,,,,0,30,30,30,1,1,both_wrong.png,2,RandomDot24.png,No answer,19,0.2518,,,
,,,,,,,,,,,,,,,,,,,,,,,,,,,,,,,R_3kN6FWJDmiyDkpx,1,2024-05-29_10h06.39.831,interaction task,2021.2.3,MacIntel,30.03003003,120788,,,,,,,,,,,,,,,,Smaller,Greater,,,-0.248562259,-0.478152786,1,0,0,LeftButton,"[""LeftButton""]",64,2.2994,space,,,,,,,,,,,,,,0,31,31,31,1,3,only_sub_wrong.png,0,RandomDot25.png,No answer,21,,,0.4468,
,,,,,,,,,,,,,,,,,,,,,,,,,,,,,,,R_3kN6FWJDmiyDkpx,1,2024-05-29_10h06.39.831,interaction task,2021.2.3,MacIntel,30.03003003,120788,,,,,,,,,,,,,,,,Smaller,Greater,,,0.258227248,-0.504051339,1,0,0,RightButton,"[""RightButton""]",59,1.4121,space,,,,,,,,,,,,,,0,32,32,32,1,1,both_wrong.png,0,RandomDot23.png,No answer,20,,,0.233,
,,,,,,,,,,,,,,,,,,,,,,,,,,,,,,,R_3kN6FWJDmiyDkpx,1,2024-05-29_10h06.39.831,interaction task,2021.2.3,MacIntel,30.03003003,120788,,,,,,,,,,,,,,,,Smaller,Greater,,,-0.241563634,-0.472860398,1,0,0,LeftButton,"[""LeftButton""]",,,,,,,,,,,,68.12107807,2.9066,space,43.77918473,4.4401,0,33,33,33,1,1,both_wrong.png,3,RandomDot29.png,No answer,19,,,,0.2194
,,,,,,,,,,,,,,,,,,,,,,,,,,,,,,,R_3kN6FWJDmiyDkpx,1,2024-05-29_10h06.39.831,interaction task,2021.2.3,MacIntel,30.03003003,120788,,,,,,,,,,,,,,,,Smaller,Greater,,,-0.273739697,-0.531250698,1,0,0,LeftButton,"[""LeftButton""]",,,,,,,,,,,,,,,,,0,34,34,34,1,5,both_right.png,10,RandomDot42.png,LeftButton,21,,,,
,,,,,,,,,,,,,,,,,,,,,,,,,,,,,,,R_3kN6FWJDmiyDkpx,1,2024-05-29_10h06.39.831,interaction task,2021.2.3,MacIntel,30.03003003,120788,,,,,,,,,,,,,,,,Smaller,Greater,,,0.346459525,-0.520480957,1,0,0,RightButton,"[""RightButton""]",,,,,,,,,,,,,,,,,0,35,35,35,1,0,both_right.png,0,RandomDot5.png,No answer,21,,,,
,,,,,,,,,,,,,,,,,,,,,,,,,,,,,,,R_3kN6FWJDmiyDkpx,1,2024-05-29_10h06.39.831,interaction task,2021.2.3,MacIntel,30.03003003,120788,,,,,,,,,,,,,,,,Greater,Smaller,,,-0.25988973,-0.486909877,1,0,0,LeftButton,"[""LeftButton""]",,,,1.974191938,1.8677,space,,,,,,,,,,,0,36,36,36,1,2,only_sub_right.png,1,RandomDot4.png,No answer,19,,0.7659,,
,,,,,,,,,,,,,,,,,,,,,,,,,,,,,,,R_3kN6FWJDmiyDkpx,1,2024-05-29_10h06.39.831,interaction task,2021.2.3,MacIntel,30.03003003,120788,,,,,,,,,,,,,,,,Greater,Smaller,,,-0.269000535,-0.455726609,1,0,0,LeftButton,"[""LeftButton""]",,,,,,,,,,,,45.96400259,2.0361,space,33.61708075,3.6589,0,37,37,37,1,3,only_sub_wrong.png,3,RandomDot17.png,No answer,19,,,,0.2148
,,,,,,,,,,,,,,,,,,,,,,,,,,,,,,,R_3kN6FWJDmiyDkpx,1,2024-05-29_10h06.39.831,interaction task,2021.2.3,MacIntel,30.03003003,120788,,,,,,,,,,,,,,,,Smaller,Greater,,,-0.319345093,-0.527635672,1,0,0,LeftButton,"[""LeftButton""]",,,,,,,51,2.0054,space,71,4.5634,,,,,,0,38,38,38,1,3,only_sub_wrong.png,2,RandomDot15.png,No answer,20,0.6306,,,
,,,,,,,,,,,,,,,,,,,,,,,,,,,,,,,R_3kN6FWJDmiyDkpx,1,2024-05-29_10h06.39.831,interaction task,2021.2.3,MacIntel,30.03003003,120788,,,,,,,,,,,,,,,,Smaller,Greater,,,0.280435617,-0.478357747,1,0,0,RightButton,"[""RightButton""]",,,,,,,,,,,,50.36227697,2.4691,space,46.934899,4.1027,0,39,39,39,1,1,both_wrong.png,3,RandomDot25.png,No answer,21,,,,0.5745
,,,,,,,,,,,,,,,,,,,,,,,,,,,,,,,R_3kN6FWJDmiyDkpx,1,2024-05-29_10h06.39.831,interaction task,2021.2.3,MacIntel,30.03003003,120788,,,,,,,,,,,,,,,,Smaller,Greater,,,0.260454596,-0.499873977,1,0,0,RightButton,"[""RightButton""]",,,,1.572885059,2.1973,space,,,,,,,,,,,0,40,40,40,1,3,only_sub_wrong.png,1,RandomDot6.png,No answer,20,,0.3426,,
,,,,,,,,,,,,,,,,,,,,,,,,,,,,,,,R_3kN6FWJDmiyDkpx,1,2024-05-29_10h06.39.831,interaction task,2021.2.3,MacIntel,30.03003003,120788,,,,,,,,,,,,,,,,Smaller,Greater,,,-0.264618283,-0.537559291,1,0,0,LeftButton,"[""LeftButton""]",67,5.555,space,,,,,,,,,,,,,,0,41,41,41,1,3,only_sub_wrong.png,0,RandomDot9.png,No answer,19,,,0.3876,
