choose_trial,key_resp.keys,key_resp.rt,key_resp_4.keys,key_resp_4.rt,session_trait,slider_face_judge.response,slider_face_judge.rt,key_resp_3.keys,key_resp_3.rt,face_loop.thisRepN,face_loop.thisTrialN,face_loop.thisN,face_loop.thisIndex,face_loop.ran,face_serial,image_name,isCheck,answer,check_question,participant,session,date,expName,psychopyVersion,OS,frameRate,SONAid,session.thisRepN,session.thisTrialN,session.thisN,session.thisIndex,session.ran,session_serial,slider_judge_img
"[0,1,2,3,4,5,6,7,8,9,10,11,12,13,14,15,16,17,18,19,20,21,22,23,24,25,26,27,28,29,30,31,32,33,34,35,36,37,38,39,40,41,42,43,44,45,46,47,48,49,60,52,54]",space,8.8052,space,156.0363,trustworthy,6.001023472,9.7719,space,1.0403,0,0,0,35,1,36,image/36.jpg,0,0,,R_3NHYjetBGepYbrK,2,2024-05-03_18h26.49.963,face trait task,2021.2.3,MacIntel,30.03003003,120245,,,,,,,
,,,,,,6.00262691,4.7095,space,0.8037,0,1,1,1,1,2,image/2.jpg,0,0,,R_3NHYjetBGepYbrK,2,2024-05-03_18h26.49.963,face trait task,2021.2.3,MacIntel,30.03003003,120245,,,,,,,
,,,,,,2.996588428,5.5599,space,0.5358,0,2,2,16,1,17,image/17.jpg,0,0,,R_3NHYjetBGepYbrK,2,2024-05-03_18h26.49.963,face trait task,2021.2.3,MacIntel,30.03003003,120245,,,,,,,
,,,,,,4.992358079,3.9014,space,2.6865,0,3,3,21,1,22,image/22.jpg,0,0,,R_3NHYjetBGepYbrK,2,2024-05-03_18h26.49.963,face trait task,2021.2.3,MacIntel,30.03003003,120245,,,,,,,
,,,,,,4.018286026,5.6432,space,3.0683,0,4,4,11,1,12,image/12.jpg,0,0,,R_3NHYjetBGepYbrK,2,2024-05-03_18h26.49.963,face trait task,2021.2.3,MacIntel,30.03003003,120245,,,,,,,
,,,,,,5.007880731,3.9296,space,1.4817,0,5,5,27,1,28,image/28.jpg,0,0,,R_3NHYjetBGepYbrK,2,2024-05-03_18h26.49.963,face trait task,2021.2.3,MacIntel,30.03003003,120245,,,,,,,
,,,,,,3.95902702,2.4288,space,0.4483,0,6,6,42,1,43,image/43.jpg,0,0,,R_3NHYjetBGepYbrK,2,2024-05-03_18h26.49.963,face trait task,2021.2.3,MacIntel,30.03003003,120245,,,,,,,
,,,,,,5.952272107,2.9641,space,0.3517,0,7,7,28,1,29,image/29.jpg,0,0,,R_3NHYjetBGepYbrK,2,2024-05-03_18h26.49.963,face trait task,2021.2.3,MacIntel,30.03003003,120245,,,,,,,
,,,,,,4.021697598,4.9845,space,0.3821,0,8,8,48,1,49,image/49.jpg,0,0,,R_3NHYjetBGepYbrK,2,2024-05-03_18h26.49.963,face trait task,2021.2.3,MacIntel,30.03003003,120245,,,,,,,
,,,,,,6.978507096,5.0857,space,1.185,0,9,9,50,1,61,image/fill_img.png,1,7,Please move the slider all the way to the RIGHT to show that you are paying attention.,R_3NHYjetBGepYbrK,2,2024-05-03_18h26.49.963,face trait task,2021.2.3,MacIntel,30.03003003,120245,,,,,,,
,,,,,,1.000272926,8.3686,space,0.5821,0,10,10,51,1,53,image/fill_img.png,1,1,Please move the slider all the way to the LEFT to show that you are paying attention.,R_3NHYjetBGepYbrK,2,2024-05-03_18h26.49.963,face trait task,2021.2.3,MacIntel,30.03003003,120245,,,,,,,
,,,,,,4.020094159,6.8265,space,0.489,0,11,11,24,1,25,image/25.jpg,0,0,,R_3NHYjetBGepYbrK,2,2024-05-03_18h26.49.963,face trait task,2021.2.3,MacIntel,30.03003003,120245,,,,,,,
,,,,,,6.001535207,5.228,space,0.3612,0,12,12,26,1,27,image/27.jpg,0,0,,R_3NHYjetBGepYbrK,2,2024-05-03_18h26.49.963,face trait task,2021.2.3,MacIntel,30.03003003,120245,,,,,,,
,,,,,,6.009927675,2.3646,space,0.2621,0,13,13,4,1,5,image/5.jpg,0,0,,R_3NHYjetBGepYbrK,2,2024-05-03_18h26.49.963,face trait task,2021.2.3,MacIntel,30.03003003,120245,,,,,,,
,,,,,,3.009108897,6.343,space,0.6841,0,14,14,44,1,45,image/45.jpg,0,0,,R_3NHYjetBGepYbrK,2,2024-05-03_18h26.49.963,face trait task,2021.2.3,MacIntel,30.03003003,120245,,,,,,,
,,,,,,4.972400382,5.466,space,0.4341,0,15,15,18,1,19,image/19.jpg,0,0,,R_3NHYjetBGepYbrK,2,2024-05-03_18h26.49.963,face trait task,2021.2.3,MacIntel,30.03003003,120245,,,,,,,
,,,,,,3.967658297,7.9626,space,0.2677,0,16,16,23,1,24,image/24.jpg,0,0,,R_3NHYjetBGepYbrK,2,2024-05-03_18h26.49.963,face trait task,2021.2.3,MacIntel,30.03003003,120245,,,,,,,
,,,,,,4.972400382,4.5091,space,0.3557,0,17,17,19,1,20,image/20.jpg,0,0,,R_3NHYjetBGepYbrK,2,2024-05-03_18h26.49.963,face trait task,2021.2.3,MacIntel,30.03003003,120245,,,,,,,
,,,,,,1.00262691,2.1645,space,0.2737,0,18,18,52,1,55,image/fill_img.png,1,1,Please move the slider all the way to the LEFT to show that you are paying attention.,R_3NHYjetBGepYbrK,2,2024-05-03_18h26.49.963,face trait task,2021.2.3,MacIntel,30.03003003,120245,,,,,,,
,,,,,,4.944152566,12.7315,space,0.6192,0,19,19,33,1,34,image/34.jpg,0,0,,R_3NHYjetBGepYbrK,2,2024-05-03_18h26.49.963,face trait task,2021.2.3,MacIntel,30.03003003,120245,,,,,,,
,,,,,,3.979905841,2.1289,space,0.4014,0,20,20,10,1,11,image/11.jpg,0,0,,R_3NHYjetBGepYbrK,2,2024-05-03_18h26.49.963,face trait task,2021.2.3,MacIntel,30.03003003,120245,,,,,,,
,,,,,,4.972366266,2.9094,space,0.2398,0,21,21,3,1,4,image/4.jpg,0,0,,R_3NHYjetBGepYbrK,2,2024-05-03_18h26.49.963,face trait task,2021.2.3,MacIntel,30.03003003,120245,,,,,,,
,,,,,,2.028281932,3.1435,space,0.3888,0,22,22,8,1,9,image/9.jpg,0,0,,R_3NHYjetBGepYbrK,2,2024-05-03_18h26.49.963,face trait task,2021.2.3,MacIntel,30.03003003,120245,,,,,,,
,,,,,,2.971990993,4.3497,space,0.1701,0,23,23,6,1,7,image/7.jpg,0,0,,R_3NHYjetBGepYbrK,2,2024-05-03_18h26.49.963,face trait task,2021.2.3,MacIntel,30.03003003,120245,,,,,,,
,,,,,,3.98580786,5.0163,space,0.5735,0,24,24,14,1,15,image/15.jpg,0,0,,R_3NHYjetBGepYbrK,2,2024-05-03_18h26.49.963,face trait task,2021.2.3,MacIntel,30.03003003,120245,,,,,,,
,,,,,,1.020571779,6.1935,space,1.4499,0,25,25,22,1,23,image/23.jpg,0,0,,R_3NHYjetBGepYbrK,2,2024-05-03_18h26.49.963,face trait task,2021.2.3,MacIntel,30.03003003,120245,,,,,,,
,,,,,,3.97823417,4.4621,space,0.5455,0,26,26,12,1,13,image/13.jpg,0,0,,R_3NHYjetBGepYbrK,2,2024-05-03_18h26.49.963,face trait task,2021.2.3,MacIntel,30.03003003,120245,,,,,,,
,,,,,,1.020128275,4.6268,space,0.6938,0,27,27,37,1,38,image/38.jpg,0,0,,R_3NHYjetBGepYbrK,2,2024-05-03_18h26.49.963,face trait task,2021.2.3,MacIntel,30.03003003,120245,,,,,,,
,,,,,,4.021561135,3.3285,space,0.3243,0,28,28,13,1,14,image/14.jpg,0,0,,R_3NHYjetBGepYbrK,2,2024-05-03_18h26.49.963,face trait task,2021.2.3,MacIntel,30.03003003,120245,,,,,,,
,,,,,,2.981065775,2.616,space,0.6508,0,29,29,43,1,44,image/44.jpg,0,0,,R_3NHYjetBGepYbrK,2,2024-05-03_18h26.49.963,face trait task,2021.2.3,MacIntel,30.03003003,120245,,,,,,,
,,,,,,4.025177402,2.931,space,0.561,0,30,30,29,1,30,image/30.jpg,0,0,,R_3NHYjetBGepYbrK,2,2024-05-03_18h26.49.963,face trait task,2021.2.3,MacIntel,30.03003003,120245,,,,,,,
,,,,,,1.018388373,7.8443,space,0.4588,0,31,31,47,1,48,image/48.jpg,0,0,,R_3NHYjetBGepYbrK,2,2024-05-03_18h26.49.963,face trait task,2021.2.3,MacIntel,30.03003003,120245,,,,,,,
,,,,,,1.943845524,4.5603,space,1.0195,0,32,32,5,1,6,image/6.jpg,0,0,,R_3NHYjetBGepYbrK,2,2024-05-03_18h26.49.963,face trait task,2021.2.3,MacIntel,30.03003003,120245,,,,,,,
,,,,,,4.064035207,6.6325,space,0.8835,0,33,33,15,1,16,image/16.jpg,0,0,,R_3NHYjetBGepYbrK,2,2024-05-03_18h26.49.963,face trait task,2021.2.3,MacIntel,30.03003003,120245,,,,,,,
,,,,,,3.012963974,3.3491,space,0.469,0,34,34,49,1,50,image/50.jpg,0,0,,R_3NHYjetBGepYbrK,2,2024-05-03_18h26.49.963,face trait task,2021.2.3,MacIntel,30.03003003,120245,,,,,,,
,,,,,,3.012963974,3.2786,space,0.4213,0,35,35,34,1,35,image/35.jpg,0,0,,R_3NHYjetBGepYbrK,2,2024-05-03_18h26.49.963,face trait task,2021.2.3,MacIntel,30.03003003,120245,,,,,,,
,,,,,,2.988946507,3.9749,space,0.6233,0,36,36,0,1,1,image/1.jpg,0,0,,R_3NHYjetBGepYbrK,2,2024-05-03_18h26.49.963,face trait task,2021.2.3,MacIntel,30.03003003,120245,,,,,,,
,,,,,,5.993483897,3.5629,space,1.0846,0,37,37,17,1,18,image/18.jpg,0,0,,R_3NHYjetBGepYbrK,2,2024-05-03_18h26.49.963,face trait task,2021.2.3,MacIntel,30.03003003,120245,,,,,,,
,,,,,,3.998396561,1.979,space,0.2584,0,38,38,7,1,8,image/8.jpg,0,0,,R_3NHYjetBGepYbrK,2,2024-05-03_18h26.49.963,face trait task,2021.2.3,MacIntel,30.03003003,120245,,,,,,,
,,,,,,5.027463155,1.997,space,0.9362,0,39,39,25,1,26,image/26.jpg,0,0,,R_3NHYjetBGepYbrK,2,2024-05-03_18h26.49.963,face trait task,2021.2.3,MacIntel,30.03003003,120245,,,,,,,
,,,,,,5.018558952,3.3822,space,1.6188,0,40,40,41,1,42,image/42.jpg,0,0,,R_3NHYjetBGepYbrK,2,2024-05-03_18h26.49.963,face trait task,2021.2.3,MacIntel,30.03003003,120245,,,,,,,
,,,,,,3.019889465,2.3829,space,0.4267,0,41,41,39,1,40,image/40.jpg,0,0,,R_3NHYjetBGepYbrK,2,2024-05-03_18h26.49.963,face trait task,2021.2.3,MacIntel,30.03003003,120245,,,,,,,
,,,,,,1.982669214,1.8483,space,0.2839,0,42,42,38,1,39,image/39.jpg,0,0,,R_3NHYjetBGepYbrK,2,2024-05-03_18h26.49.963,face trait task,2021.2.3,MacIntel,30.03003003,120245,,,,,,,
,,,,,,3.001978712,2.3292,space,0.6209,0,43,43,30,1,31,image/31.jpg,0,0,,R_3NHYjetBGepYbrK,2,2024-05-03_18h26.49.963,face trait task,2021.2.3,MacIntel,30.03003003,120245,,,,,,,
,,,,,,1.011701692,2.0476,space,0.385,0,44,44,40,1,41,image/41.jpg,0,0,,R_3NHYjetBGepYbrK,2,2024-05-03_18h26.49.963,face trait task,2021.2.3,MacIntel,30.03003003,120245,,,,,,,
,,,,,,5.011224072,3.9173,space,2.6186,0,45,45,2,1,3,image/3.jpg,0,0,,R_3NHYjetBGepYbrK,2,2024-05-03_18h26.49.963,face trait task,2021.2.3,MacIntel,30.03003003,120245,,,,,,,
,,,,,,1.995394378,3.3149,space,3.1159,0,46,46,32,1,33,image/33.jpg,0,0,,R_3NHYjetBGepYbrK,2,2024-05-03_18h26.49.963,face trait task,2021.2.3,MacIntel,30.03003003,120245,,,,,,,
,,,,,,1.012622817,1.9845,space,0.8837,0,47,47,9,1,10,image/10.jpg,0,0,,R_3NHYjetBGepYbrK,2,2024-05-03_18h26.49.963,face trait task,2021.2.3,MacIntel,30.03003003,120245,,,,,,,
,,,,,,6.001842249,3.301,space,0.4516,0,48,48,20,1,21,image/21.jpg,0,0,,R_3NHYjetBGepYbrK,2,2024-05-03_18h26.49.963,face trait task,2021.2.3,MacIntel,30.03003003,120245,,,,,,,
,,,,,,2.038039028,2.161,space,0.6344,0,49,49,45,1,46,image/46.jpg,0,0,,R_3NHYjetBGepYbrK,2,2024-05-03_18h26.49.963,face trait task,2021.2.3,MacIntel,30.03003003,120245,,,,,,,
,,,,,,4.9819869,5.6436,space,2.2157,0,50,50,36,1,37,image/37.jpg,0,0,,R_3NHYjetBGepYbrK,2,2024-05-03_18h26.49.963,face trait task,2021.2.3,MacIntel,30.03003003,120245,,,,,,,
,,,,,,1.028793668,2.4046,space,0.9501,0,51,51,46,1,47,image/47.jpg,0,0,,R_3NHYjetBGepYbrK,2,2024-05-03_18h26.49.963,face trait task,2021.2.3,MacIntel,30.03003003,120245,,,,,,,
,,,,,,4.000443504,2.1968,space,0.6196,0,52,52,31,1,32,image/32.jpg,0,0,,R_3NHYjetBGepYbrK,2,2024-05-03_18h26.49.963,face trait task,2021.2.3,MacIntel,30.03003003,120245,,,,,,,
,,,,,,,,,,,,,,,,,,,,R_3NHYjetBGepYbrK,2,2024-05-03_18h26.49.963,face trait task,2021.2.3,MacIntel,30.03003003,120245,0,0,0,2,1,2,trustworthy.png
,,,,,competent,6.000682314,5.7139,space,1.6483,0,0,0,1,1,2,image/2.jpg,0,0,,R_3NHYjetBGepYbrK,2,2024-05-03_18h26.49.963,face trait task,2021.2.3,MacIntel,30.03003003,120245,,,,,,,
,,,,,,6.000682314,1.6473,space,0.6824,0,1,1,29,1,30,image/30.jpg,0,0,,R_3NHYjetBGepYbrK,2,2024-05-03_18h26.49.963,face trait task,2021.2.3,MacIntel,30.03003003,120245,,,,,,,
,,,,,,5.0023881,4.1641,space,3.4531,0,2,2,24,1,25,image/25.jpg,0,0,,R_3NHYjetBGepYbrK,2,2024-05-03_18h26.49.963,face trait task,2021.2.3,MacIntel,30.03003003,120245,,,,,,,
,,,,,,3.009893559,3.6354,space,0.601,0,3,3,8,1,9,image/9.jpg,0,0,,R_3NHYjetBGepYbrK,2,2024-05-03_18h26.49.963,face trait task,2021.2.3,MacIntel,30.03003003,120245,,,,,,,
,,,,,,5.021083515,2.1118,space,0.4332,0,4,4,31,1,32,image/32.jpg,0,0,,R_3NHYjetBGepYbrK,2,2024-05-03_18h26.49.963,face trait task,2021.2.3,MacIntel,30.03003003,120245,,,,,,,
,,,,,,5.012861627,2.1024,space,0.5872,0,5,5,11,1,12,image/12.jpg,0,0,,R_3NHYjetBGepYbrK,2,2024-05-03_18h26.49.963,face trait task,2021.2.3,MacIntel,30.03003003,120245,,,,,,,
,,,,,,6.019889465,2.2634,space,0.5214,0,6,6,17,1,18,image/18.jpg,0,0,,R_3NHYjetBGepYbrK,2,2024-05-03_18h26.49.963,face trait task,2021.2.3,MacIntel,30.03003003,120245,,,,,,,
,,,,,,6.969057041,3.2139,space,0.3824,0,7,7,50,1,61,image/fill_img.png,1,7,Please move the slider all the way to the RIGHT to show that you are paying attention.,R_3NHYjetBGepYbrK,2,2024-05-03_18h26.49.963,face trait task,2021.2.3,MacIntel,30.03003003,120245,,,,,,,
,,,,,,3.00262691,6.4077,space,1.5532,0,8,8,16,1,17,image/17.jpg,0,0,,R_3NHYjetBGepYbrK,2,2024-05-03_18h26.49.963,face trait task,2021.2.3,MacIntel,30.03003003,120245,,,,,,,
,,,,,,2.019684771,2.2019,space,1.1505,0,9,9,32,1,33,image/33.jpg,0,0,,R_3NHYjetBGepYbrK,2,2024-05-03_18h26.49.963,face trait task,2021.2.3,MacIntel,30.03003003,120245,,,,,,,
,,,,,,6.929073417,4.4146,space,3.3727,0,10,10,3,1,4,image/4.jpg,0,0,,R_3NHYjetBGepYbrK,2,2024-05-03_18h26.49.963,face trait task,2021.2.3,MacIntel,30.03003003,120245,,,,,,,
,,,,,,3.973560317,2.0154,space,0.3151,0,11,11,10,1,11,image/11.jpg,0,0,,R_3NHYjetBGepYbrK,2,2024-05-03_18h26.49.963,face trait task,2021.2.3,MacIntel,30.03003003,120245,,,,,,,
,,,,,,6.000750546,3.3975,space,0.355,0,12,12,41,1,42,image/42.jpg,0,0,,R_3NHYjetBGepYbrK,2,2024-05-03_18h26.49.963,face trait task,2021.2.3,MacIntel,30.03003003,120245,,,,,,,
,,,,,,3.999658843,2.3943,space,0.288,0,13,13,34,1,35,image/35.jpg,0,0,,R_3NHYjetBGepYbrK,2,2024-05-03_18h26.49.963,face trait task,2021.2.3,MacIntel,30.03003003,120245,,,,,,,
,,,,,,3.999658843,1.3961,space,0.5496,0,14,14,6,1,7,image/7.jpg,0,0,,R_3NHYjetBGepYbrK,2,2024-05-03_18h26.49.963,face trait task,2021.2.3,MacIntel,30.03003003,120245,,,,,,,
,,,,,,3.999658843,2.6487,space,0.9844,0,15,15,44,1,45,image/45.jpg,0,0,,R_3NHYjetBGepYbrK,2,2024-05-03_18h26.49.963,face trait task,2021.2.3,MacIntel,30.03003003,120245,,,,,,,
,,,,,,3.999658843,1.8127,space,1.594,0,16,16,7,1,8,image/8.jpg,0,0,,R_3NHYjetBGepYbrK,2,2024-05-03_18h26.49.963,face trait task,2021.2.3,MacIntel,30.03003003,120245,,,,,,,
,,,,,,1.023130459,4.7098,space,1.659,0,17,17,51,1,53,image/fill_img.png,1,1,Please move the slider all the way to the LEFT to show that you are paying attention.,R_3NHYjetBGepYbrK,2,2024-05-03_18h26.49.963,face trait task,2021.2.3,MacIntel,30.03003003,120245,,,,,,,
,,,,,,5.991675764,4.3686,space,1.1186,0,18,18,33,1,34,image/34.jpg,0,0,,R_3NHYjetBGepYbrK,2,2024-05-03_18h26.49.963,face trait task,2021.2.3,MacIntel,30.03003003,120245,,,,,,,
,,,,,,4.009108897,2.4626,space,0.4936,0,19,19,45,1,46,image/46.jpg,0,0,,R_3NHYjetBGepYbrK,2,2024-05-03_18h26.49.963,face trait task,2021.2.3,MacIntel,30.03003003,120245,,,,,,,
,,,,,,4.979394105,2.0123,space,1.1602,0,20,20,30,1,31,image/31.jpg,0,0,,R_3NHYjetBGepYbrK,2,2024-05-03_18h26.49.963,face trait task,2021.2.3,MacIntel,30.03003003,120245,,,,,,,
,,,,,,6.00590202,2.1473,space,1.8072,0,21,21,23,1,24,image/24.jpg,0,0,,R_3NHYjetBGepYbrK,2,2024-05-03_18h26.49.963,face trait task,2021.2.3,MacIntel,30.03003003,120245,,,,,,,
,,,,,,3.016273199,2.019,space,1.0026,0,22,22,39,1,40,image/40.jpg,0,0,,R_3NHYjetBGepYbrK,2,2024-05-03_18h26.49.963,face trait task,2021.2.3,MacIntel,30.03003003,120245,,,,,,,
,,,,,,2.985603166,5.225,space,0.3488,0,23,23,49,1,50,image/50.jpg,0,0,,R_3NHYjetBGepYbrK,2,2024-05-03_18h26.49.963,face trait task,2021.2.3,MacIntel,30.03003003,120245,,,,,,,
,,,,,,5.979291758,2.1469,space,0.7136,0,24,24,27,1,28,image/28.jpg,0,0,,R_3NHYjetBGepYbrK,2,2024-05-03_18h26.49.963,face trait task,2021.2.3,MacIntel,30.03003003,120245,,,,,,,
,,,,,,2.964383188,2.6295,space,1.0286,0,25,25,38,1,39,image/39.jpg,0,0,,R_3NHYjetBGepYbrK,2,2024-05-03_18h26.49.963,face trait task,2021.2.3,MacIntel,30.03003003,120245,,,,,,,
,,,,,,3.017842522,3.5313,space,0.341,0,26,26,9,1,10,image/10.jpg,0,0,,R_3NHYjetBGepYbrK,2,2024-05-03_18h26.49.963,face trait task,2021.2.3,MacIntel,30.03003003,120245,,,,,,,
,,,,,,4.008119541,2.8293,space,0.4514,0,27,27,18,1,19,image/19.jpg,0,0,,R_3NHYjetBGepYbrK,2,2024-05-03_18h26.49.963,face trait task,2021.2.3,MacIntel,30.03003003,120245,,,,,,,
,,,,,,5.001228166,1.8792,space,0.5974,0,28,28,36,1,37,image/37.jpg,0,0,,R_3NHYjetBGepYbrK,2,2024-05-03_18h26.49.963,face trait task,2021.2.3,MacIntel,30.03003003,120245,,,,,,,
,,,,,,5.001228166,1.5799,space,1.3265,0,29,29,15,1,16,image/16.jpg,0,0,,R_3NHYjetBGepYbrK,2,2024-05-03_18h26.49.963,face trait task,2021.2.3,MacIntel,30.03003003,120245,,,,,,,
,,,,,,4.977244814,3.9777,space,0.5931,0,30,30,4,1,5,image/5.jpg,0,0,,R_3NHYjetBGepYbrK,2,2024-05-03_18h26.49.963,face trait task,2021.2.3,MacIntel,30.03003003,120245,,,,,,,
,,,,,,5.986660753,1.8648,space,0.6177,0,31,31,25,1,26,image/26.jpg,0,0,,R_3NHYjetBGepYbrK,2,2024-05-03_18h26.49.963,face trait task,2021.2.3,MacIntel,30.03003003,120245,,,,,,,
,,,,,,3.99170988,2.2707,space,0.306,0,32,32,5,1,6,image/6.jpg,0,0,,R_3NHYjetBGepYbrK,2,2024-05-03_18h26.49.963,face trait task,2021.2.3,MacIntel,30.03003003,120245,,,,,,,
,,,,,,3.963018559,2.1476,space,0.3888,0,33,33,12,1,13,image/13.jpg,0,0,,R_3NHYjetBGepYbrK,2,2024-05-03_18h26.49.963,face trait task,2021.2.3,MacIntel,30.03003003,120245,,,,,,,
,,,,,,1.962063319,3.888,space,0.446,0,34,34,37,1,38,image/38.jpg,0,0,,R_3NHYjetBGepYbrK,2,2024-05-03_18h26.49.963,face trait task,2021.2.3,MacIntel,30.03003003,120245,,,,,,,
,,,,,,1.97584607,1.9795,space,0.7079,0,35,35,22,1,23,image/23.jpg,0,0,,R_3NHYjetBGepYbrK,2,2024-05-03_18h26.49.963,face trait task,2021.2.3,MacIntel,30.03003003,120245,,,,,,,
,,,,,,2.94793941,2.6506,space,0.5072,0,36,36,48,1,49,image/49.jpg,0,0,,R_3NHYjetBGepYbrK,2,2024-05-03_18h26.49.963,face trait task,2021.2.3,MacIntel,30.03003003,120245,,,,,,,
,,,,,,1.020230622,2.4292,space,0.8342,0,37,37,52,1,55,image/fill_img.png,1,1,Please move the slider all the way to the LEFT to show that you are paying attention.,R_3NHYjetBGepYbrK,2,2024-05-03_18h26.49.963,face trait task,2021.2.3,MacIntel,30.03003003,120245,,,,,,,
,,,,,,1.00661845,3.1448,space,0.8742,0,38,38,40,1,41,image/41.jpg,0,0,,R_3NHYjetBGepYbrK,2,2024-05-03_18h26.49.963,face trait task,2021.2.3,MacIntel,30.03003003,120245,,,,,,,
,,,,,,6.04424809,3.8423,space,0.3905,0,39,39,21,1,22,image/22.jpg,0,0,,R_3NHYjetBGepYbrK,2,2024-05-03_18h26.49.963,face trait task,2021.2.3,MacIntel,30.03003003,120245,,,,,,,
,,,,,,5.030090066,4.7199,space,1.0566,0,40,40,43,1,44,image/44.jpg,0,0,,R_3NHYjetBGepYbrK,2,2024-05-03_18h26.49.963,face trait task,2021.2.3,MacIntel,30.03003003,120245,,,,,,,
,,,,,,6.975402566,8.6135,space,2.4864,0,41,41,20,1,21,image/21.jpg,0,0,,R_3NHYjetBGepYbrK,2,2024-05-03_18h26.49.963,face trait task,2021.2.3,MacIntel,30.03003003,120245,,,,,,,
,,,,,,5.957662391,1.929,space,0.526,0,42,42,28,1,29,image/29.jpg,0,0,,R_3NHYjetBGepYbrK,2,2024-05-03_18h26.49.963,face trait task,2021.2.3,MacIntel,30.03003003,120245,,,,,,,
,,,,,,4.995735535,1.9451,space,0.7947,0,43,43,13,1,14,image/14.jpg,0,0,,R_3NHYjetBGepYbrK,2,2024-05-03_18h26.49.963,face trait task,2021.2.3,MacIntel,30.03003003,120245,,,,,,,
,,,,,,1.984067959,2.0619,space,0.8592,0,44,44,46,1,47,image/47.jpg,0,0,,R_3NHYjetBGepYbrK,2,2024-05-03_18h26.49.963,face trait task,2021.2.3,MacIntel,30.03003003,120245,,,,,,,
,,,,,,4.986865448,1.7953,space,0.5958,0,45,45,26,1,27,image/27.jpg,0,0,,R_3NHYjetBGepYbrK,2,2024-05-03_18h26.49.963,face trait task,2021.2.3,MacIntel,30.03003003,120245,,,,,,,
,,,,,,3.013543941,2.4466,space,1.2385,0,46,46,0,1,1,image/1.jpg,0,0,,R_3NHYjetBGepYbrK,2,2024-05-03_18h26.49.963,face trait task,2021.2.3,MacIntel,30.03003003,120245,,,,,,,
,,,,,,6.050593614,1.963,space,0.9276,0,47,47,35,1,36,image/36.jpg,0,0,,R_3NHYjetBGepYbrK,2,2024-05-03_18h26.49.963,face trait task,2021.2.3,MacIntel,30.03003003,120245,,,,,,,
,,,,,,3.948246452,2.1282,space,0.7794,0,48,48,47,1,48,image/48.jpg,0,0,,R_3NHYjetBGepYbrK,2,2024-05-03_18h26.49.963,face trait task,2021.2.3,MacIntel,30.03003003,120245,,,,,,,
,,,,,,4.03101119,2.063,space,0.7077,0,49,49,14,1,15,image/15.jpg,0,0,,R_3NHYjetBGepYbrK,2,2024-05-03_18h26.49.963,face trait task,2021.2.3,MacIntel,30.03003003,120245,,,,,,,
,,,,,,3.99290393,2.4449,space,0.4563,0,50,50,2,1,3,image/3.jpg,0,0,,R_3NHYjetBGepYbrK,2,2024-05-03_18h26.49.963,face trait task,2021.2.3,MacIntel,30.03003003,120245,,,,,,,
,,,,,,4.96731714,2.5636,space,0.6423,0,51,51,42,1,43,image/43.jpg,0,0,,R_3NHYjetBGepYbrK,2,2024-05-03_18h26.49.963,face trait task,2021.2.3,MacIntel,30.03003003,120245,,,,,,,
,,,,,,3.970762828,3.5453,space,0.374,0,52,52,19,1,20,image/20.jpg,0,0,,R_3NHYjetBGepYbrK,2,2024-05-03_18h26.49.963,face trait task,2021.2.3,MacIntel,30.03003003,120245,,,,,,,
,,,,,,,,,,,,,,,,,,,,R_3NHYjetBGepYbrK,2,2024-05-03_18h26.49.963,face trait task,2021.2.3,MacIntel,30.03003003,120245,0,1,1,1,1,1,competent.png
,,,,,friendly,4.4453125,4.1468,space,0.5123,0,0,0,48,1,49,image/49.jpg,0,0,,R_3NHYjetBGepYbrK,2,2024-05-03_18h26.49.963,face trait task,2021.2.3,MacIntel,30.03003003,120245,,,,,,,
,,,,,,1.971069869,6.7753,space,0.3693,0,1,1,18,1,19,image/19.jpg,0,0,,R_3NHYjetBGepYbrK,2,2024-05-03_18h26.49.963,face trait task,2021.2.3,MacIntel,30.03003003,120245,,,,,,,
,,,,,,1.005526747,2.2138,space,1.0724,0,2,2,39,1,40,image/40.jpg,0,0,,R_3NHYjetBGepYbrK,2,2024-05-03_18h26.49.963,face trait task,2021.2.3,MacIntel,30.03003003,120245,,,,,,,
,,,,,,5.030192413,2.2644,space,0.6964,0,3,3,25,1,26,image/26.jpg,0,0,,R_3NHYjetBGepYbrK,2,2024-05-03_18h26.49.963,face trait task,2021.2.3,MacIntel,30.03003003,120245,,,,,,,
,,,,,,5.030192413,1.6477,space,1.2891,0,4,4,36,1,37,image/37.jpg,0,0,,R_3NHYjetBGepYbrK,2,2024-05-03_18h26.49.963,face trait task,2021.2.3,MacIntel,30.03003003,120245,,,,,,,
,,,,,,5.030192413,1.7485,space,1.044,0,5,5,23,1,24,image/24.jpg,0,0,,R_3NHYjetBGepYbrK,2,2024-05-03_18h26.49.963,face trait task,2021.2.3,MacIntel,30.03003003,120245,,,,,,,
,,,,,,3.95336381,3.445,space,0.4356,0,6,6,11,1,12,image/12.jpg,0,0,,R_3NHYjetBGepYbrK,2,2024-05-03_18h26.49.963,face trait task,2021.2.3,MacIntel,30.03003003,120245,,,,,,,
,,,,,,5.00733488,1.812,space,0.8223,0,7,7,35,1,36,image/36.jpg,0,0,,R_3NHYjetBGepYbrK,2,2024-05-03_18h26.49.963,face trait task,2021.2.3,MacIntel,30.03003003,120245,,,,,,,
,,,,,,3.362854803,3.0974,space,0.5123,0,8,8,15,1,16,image/16.jpg,0,0,,R_3NHYjetBGepYbrK,2,2024-05-03_18h26.49.963,face trait task,2021.2.3,MacIntel,30.03003003,120245,,,,,,,
,,,,,,4.961312773,2.1121,space,0.4955,0,9,9,41,1,42,image/42.jpg,0,0,,R_3NHYjetBGepYbrK,2,2024-05-03_18h26.49.963,face trait task,2021.2.3,MacIntel,30.03003003,120245,,,,,,,
,,,,,,2.987240721,3.9124,space,0.6955,0,10,10,9,1,10,image/10.jpg,0,0,,R_3NHYjetBGepYbrK,2,2024-05-03_18h26.49.963,face trait task,2021.2.3,MacIntel,30.03003003,120245,,,,,,,
,,,,,,4.962404476,1.9799,space,0.7594,0,11,11,26,1,27,image/27.jpg,0,0,,R_3NHYjetBGepYbrK,2,2024-05-03_18h26.49.963,face trait task,2021.2.3,MacIntel,30.03003003,120245,,,,,,,
,,,,,,6.033774563,3.0472,space,0.6893,0,12,12,20,1,21,image/21.jpg,0,0,,R_3NHYjetBGepYbrK,2,2024-05-03_18h26.49.963,face trait task,2021.2.3,MacIntel,30.03003003,120245,,,,,,,
,,,,,,4.02224345,3.1448,space,0.5754,0,13,13,43,1,44,image/44.jpg,0,0,,R_3NHYjetBGepYbrK,2,2024-05-03_18h26.49.963,face trait task,2021.2.3,MacIntel,30.03003003,120245,,,,,,,
,,,,,,4.637008734,3.1453,space,0.8494,0,14,14,34,1,35,image/35.jpg,0,0,,R_3NHYjetBGepYbrK,2,2024-05-03_18h26.49.963,face trait task,2021.2.3,MacIntel,30.03003003,120245,,,,,,,
,,,,,,2.989458242,5.0274,space,1.2116,0,15,15,49,1,50,image/50.jpg,0,0,,R_3NHYjetBGepYbrK,2,2024-05-03_18h26.49.963,face trait task,2021.2.3,MacIntel,30.03003003,120245,,,,,,,
,,,,,,2.069937227,2.8648,space,0.8583,0,16,16,40,1,41,image/41.jpg,0,0,,R_3NHYjetBGepYbrK,2,2024-05-03_18h26.49.963,face trait task,2021.2.3,MacIntel,30.03003003,120245,,,,,,,
,,,,,,6.44674536,8.7116,space,0.329,0,17,17,17,1,18,image/18.jpg,0,0,,R_3NHYjetBGepYbrK,2,2024-05-03_18h26.49.963,face trait task,2021.2.3,MacIntel,30.03003003,120245,,,,,,,
,,,,,,6.949133461,2.2957,space,0.4214,0,18,18,33,1,34,image/34.jpg,0,0,,R_3NHYjetBGepYbrK,2,2024-05-03_18h26.49.963,face trait task,2021.2.3,MacIntel,30.03003003,120245,,,,,,,
,,,,,,3.993347434,2.0451,space,0.3923,0,19,19,6,1,7,image/7.jpg,0,0,,R_3NHYjetBGepYbrK,2,2024-05-03_18h26.49.963,face trait task,2021.2.3,MacIntel,30.03003003,120245,,,,,,,
,,,,,,3.442856168,4.3481,space,1.1366,0,20,20,29,1,30,image/30.jpg,0,0,,R_3NHYjetBGepYbrK,2,2024-05-03_18h26.49.963,face trait task,2021.2.3,MacIntel,30.03003003,120245,,,,,,,
,,,,,,1.960835153,2.429,space,0.4392,0,21,21,21,1,22,image/22.jpg,0,0,,R_3NHYjetBGepYbrK,2,2024-05-03_18h26.49.963,face trait task,2021.2.3,MacIntel,30.03003003,120245,,,,,,,
,,,,,,2.004196234,2.8291,space,0.4789,0,22,22,47,1,48,image/48.jpg,0,0,,R_3NHYjetBGepYbrK,2,2024-05-03_18h26.49.963,face trait task,2021.2.3,MacIntel,30.03003003,120245,,,,,,,
,,,,,,1.986592522,1.9458,space,0.4606,0,23,23,46,1,47,image/47.jpg,0,0,,R_3NHYjetBGepYbrK,2,2024-05-03_18h26.49.963,face trait task,2021.2.3,MacIntel,30.03003003,120245,,,,,,,
,,,,,,2.957457697,1.7288,space,0.5739,0,24,24,19,1,20,image/20.jpg,0,0,,R_3NHYjetBGepYbrK,2,2024-05-03_18h26.49.963,face trait task,2021.2.3,MacIntel,30.03003003,120245,,,,,,,
,,,,,,1.969261736,2.2976,space,0.8474,0,25,25,22,1,23,image/23.jpg,0,0,,R_3NHYjetBGepYbrK,2,2024-05-03_18h26.49.963,face trait task,2021.2.3,MacIntel,30.03003003,120245,,,,,,,
,,,,,,4.010780568,1.8454,space,0.6397,0,26,26,4,1,5,image/5.jpg,0,0,,R_3NHYjetBGepYbrK,2,2024-05-03_18h26.49.963,face trait task,2021.2.3,MacIntel,30.03003003,120245,,,,,,,
,,,,,,2.980110535,1.5285,space,0.5736,0,27,27,8,1,9,image/9.jpg,0,0,,R_3NHYjetBGepYbrK,2,2024-05-03_18h26.49.963,face trait task,2021.2.3,MacIntel,30.03003003,120245,,,,,,,
,,,,,,4.99362036,1.7293,space,0.5568,0,28,28,28,1,29,image/29.jpg,0,0,,R_3NHYjetBGepYbrK,2,2024-05-03_18h26.49.963,face trait task,2021.2.3,MacIntel,30.03003003,120245,,,,,,,
,,,,,,1.023062227,2.3297,space,0.3729,0,29,29,51,1,53,image/fill_img.png,1,1,Please move the slider all the way to the LEFT to show that you are paying attention.,R_3NHYjetBGepYbrK,2,2024-05-03_18h26.49.963,face trait task,2021.2.3,MacIntel,30.03003003,120245,,,,,,,
,,,,,,4.007914847,3.5134,space,0.4345,0,30,30,1,1,2,image/2.jpg,0,0,,R_3NHYjetBGepYbrK,2,2024-05-03_18h26.49.963,face trait task,2021.2.3,MacIntel,30.03003003,120245,,,,,,,
,,,,,,4.993552129,2.564,space,0.3747,0,31,31,14,1,15,image/15.jpg,0,0,,R_3NHYjetBGepYbrK,2,2024-05-03_18h26.49.963,face trait task,2021.2.3,MacIntel,30.03003003,120245,,,,,,,
,,,,,,3.987888919,2.5448,space,0.3482,0,32,32,27,1,28,image/28.jpg,0,0,,R_3NHYjetBGepYbrK,2,2024-05-03_18h26.49.963,face trait task,2021.2.3,MacIntel,30.03003003,120245,,,,,,,
,,,,,,2.004878548,2.3462,space,0.3678,0,33,33,38,1,39,image/39.jpg,0,0,,R_3NHYjetBGepYbrK,2,2024-05-03_18h26.49.963,face trait task,2021.2.3,MacIntel,30.03003003,120245,,,,,,,
,,,,,,1.046738537,4.2256,space,0.3486,0,34,34,52,1,55,image/fill_img.png,1,1,Please move the slider all the way to the LEFT to show that you are paying attention.,R_3NHYjetBGepYbrK,2,2024-05-03_18h26.49.963,face trait task,2021.2.3,MacIntel,30.03003003,120245,,,,,,,
,,,,,,2.989424127,1.8118,space,0.8912,0,35,35,30,1,31,image/31.jpg,0,0,,R_3NHYjetBGepYbrK,2,2024-05-03_18h26.49.963,face trait task,2021.2.3,MacIntel,30.03003003,120245,,,,,,,
,,,,,,3.004673854,1.9808,space,0.5724,0,36,36,12,1,13,image/13.jpg,0,0,,R_3NHYjetBGepYbrK,2,2024-05-03_18h26.49.963,face trait task,2021.2.3,MacIntel,30.03003003,120245,,,,,,,
,,,,,,1.967487718,1.544,space,0.592,0,37,37,37,1,38,image/38.jpg,0,0,,R_3NHYjetBGepYbrK,2,2024-05-03_18h26.49.963,face trait task,2021.2.3,MacIntel,30.03003003,120245,,,,,,,
,,,,,,3.995837882,1.465,space,0.6884,0,38,38,7,1,8,image/8.jpg,0,0,,R_3NHYjetBGepYbrK,2,2024-05-03_18h26.49.963,face trait task,2021.2.3,MacIntel,30.03003003,120245,,,,,,,
,,,,,,1.973560317,3.2289,space,2.7726,0,39,39,0,1,1,image/1.jpg,0,0,,R_3NHYjetBGepYbrK,2,2024-05-03_18h26.49.963,face trait task,2021.2.3,MacIntel,30.03003003,120245,,,,,,,
,,,,,,3.033603985,1.7803,space,0.8078,0,40,40,13,1,14,image/14.jpg,0,0,,R_3NHYjetBGepYbrK,2,2024-05-03_18h26.49.963,face trait task,2021.2.3,MacIntel,30.03003003,120245,,,,,,,
,,,,,,3.00685726,1.6967,space,0.5418,0,41,41,44,1,45,image/45.jpg,0,0,,R_3NHYjetBGepYbrK,2,2024-05-03_18h26.49.963,face trait task,2021.2.3,MacIntel,30.03003003,120245,,,,,,,
,,,,,,5.038004913,2.2956,space,0.6586,0,42,42,42,1,43,image/43.jpg,0,0,,R_3NHYjetBGepYbrK,2,2024-05-03_18h26.49.963,face trait task,2021.2.3,MacIntel,30.03003003,120245,,,,,,,
,,,,,,2.979701146,3.529,space,2.0548,0,43,43,5,1,6,image/6.jpg,0,0,,R_3NHYjetBGepYbrK,2,2024-05-03_18h26.49.963,face trait task,2021.2.3,MacIntel,30.03003003,120245,,,,,,,
,,,,,,4.538755459,5.8427,space,0.3745,0,44,44,2,1,3,image/3.jpg,0,0,,R_3NHYjetBGepYbrK,2,2024-05-03_18h26.49.963,face trait task,2021.2.3,MacIntel,30.03003003,120245,,,,,,,
,,,,,,3.945517194,2.6112,space,0.374,0,45,45,31,1,32,image/32.jpg,0,0,,R_3NHYjetBGepYbrK,2,2024-05-03_18h26.49.963,face trait task,2021.2.3,MacIntel,30.03003003,120245,,,,,,,
,,,,,,4.022823417,2.1462,space,0.4113,0,46,46,24,1,25,image/25.jpg,0,0,,R_3NHYjetBGepYbrK,2,2024-05-03_18h26.49.963,face trait task,2021.2.3,MacIntel,30.03003003,120245,,,,,,,
,,,,,,6.99051583,2.0955,space,0.6064,0,47,47,50,1,61,image/fill_img.png,1,7,Please move the slider all the way to the RIGHT to show that you are paying attention.,R_3NHYjetBGepYbrK,2,2024-05-03_18h26.49.963,face trait task,2021.2.3,MacIntel,30.03003003,120245,,,,,,,
,,,,,,3.03196643,1.8114,space,0.667,0,48,48,45,1,46,image/46.jpg,0,0,,R_3NHYjetBGepYbrK,2,2024-05-03_18h26.49.963,face trait task,2021.2.3,MacIntel,30.03003003,120245,,,,,,,
,,,,,,1.97584607,1.4683,space,0.4213,0,49,49,16,1,17,image/17.jpg,0,0,,R_3NHYjetBGepYbrK,2,2024-05-03_18h26.49.963,face trait task,2021.2.3,MacIntel,30.03003003,120245,,,,,,,
,,,,,,6.025040939,2.0957,space,0.7245,0,50,50,3,1,4,image/4.jpg,0,0,,R_3NHYjetBGepYbrK,2,2024-05-03_18h26.49.963,face trait task,2021.2.3,MacIntel,30.03003003,120245,,,,,,,
,,,,,,1.98222571,3.0616,space,0.6289,0,51,51,32,1,33,image/33.jpg,0,0,,R_3NHYjetBGepYbrK,2,2024-05-03_18h26.49.963,face trait task,2021.2.3,MacIntel,30.03003003,120245,,,,,,,
,,,,,,4.014499181,3.8293,space,0.3968,0,52,52,10,1,11,image/11.jpg,0,0,,R_3NHYjetBGepYbrK,2,2024-05-03_18h26.49.963,face trait task,2021.2.3,MacIntel,30.03003003,120245,,,,,,,
,,,,,,,,,,,,,,,,,,,,R_3NHYjetBGepYbrK,2,2024-05-03_18h26.49.963,face trait task,2021.2.3,MacIntel,30.03003003,120245,0,2,2,3,1,3,friendly.png
,,,,,critical,2.032853439,7.7193,space,0.811,0,0,0,48,1,49,image/49.jpg,0,0,,R_3NHYjetBGepYbrK,2,2024-05-03_18h26.49.963,face trait task,2021.2.3,MacIntel,30.03003003,120245,,,,,,,
,,,,,,3.054721616,3.9593,space,0.7304,0,1,1,9,1,10,image/10.jpg,0,0,,R_3NHYjetBGepYbrK,2,2024-05-03_18h26.49.963,face trait task,2021.2.3,MacIntel,30.03003003,120245,,,,,,,
,,,,,,6.441320961,4.5096,space,0.3649,0,2,2,18,1,19,image/19.jpg,0,0,,R_3NHYjetBGepYbrK,2,2024-05-03_18h26.49.963,face trait task,2021.2.3,MacIntel,30.03003003,120245,,,,,,,
,,,,,,6.441320961,1.6977,space,0.5415,0,3,3,31,1,32,image/32.jpg,0,0,,R_3NHYjetBGepYbrK,2,2024-05-03_18h26.49.963,face trait task,2021.2.3,MacIntel,30.03003003,120245,,,,,,,
,,,,,,6.441320961,1.4126,space,0.8621,0,4,4,45,1,46,image/46.jpg,0,0,,R_3NHYjetBGepYbrK,2,2024-05-03_18h26.49.963,face trait task,2021.2.3,MacIntel,30.03003003,120245,,,,,,,
,,,,,,4.0210494,2.2115,space,0.464,0,5,5,14,1,15,image/15.jpg,0,0,,R_3NHYjetBGepYbrK,2,2024-05-03_18h26.49.963,face trait task,2021.2.3,MacIntel,30.03003003,120245,,,,,,,
,,,,,,2.00661845,5.3264,space,1.3826,0,6,6,33,1,34,image/34.jpg,0,0,,R_3NHYjetBGepYbrK,2,2024-05-03_18h26.49.963,face trait task,2021.2.3,MacIntel,30.03003003,120245,,,,,,,
,,,,,,5.960766921,4.1944,space,0.3971,0,7,7,27,1,28,image/28.jpg,0,0,,R_3NHYjetBGepYbrK,2,2024-05-03_18h26.49.963,face trait task,2021.2.3,MacIntel,30.03003003,120245,,,,,,,
,,,,,,5.960766921,2.0119,space,1.1131,0,8,8,19,1,20,image/20.jpg,0,0,,R_3NHYjetBGepYbrK,2,2024-05-03_18h26.49.963,face trait task,2021.2.3,MacIntel,30.03003003,120245,,,,,,,
,,,,,,3.968408843,1.9784,space,0.7123,0,9,9,6,1,7,image/7.jpg,0,0,,R_3NHYjetBGepYbrK,2,2024-05-03_18h26.49.963,face trait task,2021.2.3,MacIntel,30.03003003,120245,,,,,,,
,,,,,,1.482566867,4.2924,space,0.8132,0,10,10,20,1,21,image/21.jpg,0,0,,R_3NHYjetBGepYbrK,2,2024-05-03_18h26.49.963,face trait task,2021.2.3,MacIntel,30.03003003,120245,,,,,,,
,,,,,,2.007505459,3.1623,space,0.5323,0,11,11,44,1,45,image/45.jpg,0,0,,R_3NHYjetBGepYbrK,2,2024-05-03_18h26.49.963,face trait task,2021.2.3,MacIntel,30.03003003,120245,,,,,,,
,,,,,,3.958003548,5.03,space,0.4422,0,12,12,46,1,47,image/47.jpg,0,0,,R_3NHYjetBGepYbrK,2,2024-05-03_18h26.49.963,face trait task,2021.2.3,MacIntel,30.03003003,120245,,,,,,,
,,,,,,3.042781114,2.1269,space,1.9121,0,13,13,37,1,38,image/38.jpg,0,0,,R_3NHYjetBGepYbrK,2,2024-05-03_18h26.49.963,face trait task,2021.2.3,MacIntel,30.03003003,120245,,,,,,,
,,,,,,5.083754094,4.1649,space,2.0074,0,14,14,13,1,14,image/14.jpg,0,0,,R_3NHYjetBGepYbrK,2,2024-05-03_18h26.49.963,face trait task,2021.2.3,MacIntel,30.03003003,120245,,,,,,,
,,,,,,3.03977893,3.5783,space,2.2024,0,15,15,22,1,23,image/23.jpg,0,0,,R_3NHYjetBGepYbrK,2,2024-05-03_18h26.49.963,face trait task,2021.2.3,MacIntel,30.03003003,120245,,,,,,,
,,,,,,1.003548035,3.4744,space,0.4143,0,16,16,17,1,18,image/18.jpg,0,0,,R_3NHYjetBGepYbrK,2,2024-05-03_18h26.49.963,face trait task,2021.2.3,MacIntel,30.03003003,120245,,,,,,,
,,,,,,2.086381004,1.9452,space,0.6913,0,17,17,35,1,36,image/36.jpg,0,0,,R_3NHYjetBGepYbrK,2,2024-05-03_18h26.49.963,face trait task,2021.2.3,MacIntel,30.03003003,120245,,,,,,,
,,,,,,1.034252183,2.2455,space,0.5651,0,18,18,51,1,53,image/fill_img.png,1,1,Please move the slider all the way to the LEFT to show that you are paying attention.,R_3NHYjetBGepYbrK,2,2024-05-03_18h26.49.963,face trait task,2021.2.3,MacIntel,30.03003003,120245,,,,,,,
,,,,,,6.479974072,2.8113,space,0.6083,0,19,19,1,1,2,image/2.jpg,0,0,,R_3NHYjetBGepYbrK,2,2024-05-03_18h26.49.963,face trait task,2021.2.3,MacIntel,30.03003003,120245,,,,,,,
,,,,,,6.450259279,1.6853,space,0.8708,0,20,20,43,1,44,image/44.jpg,0,0,,R_3NHYjetBGepYbrK,2,2024-05-03_18h26.49.963,face trait task,2021.2.3,MacIntel,30.03003003,120245,,,,,,,
,,,,,,6.970626365,1.8801,space,0.5236,0,21,21,50,1,61,image/fill_img.png,1,7,Please move the slider all the way to the RIGHT to show that you are paying attention.,R_3NHYjetBGepYbrK,2,2024-05-03_18h26.49.963,face trait task,2021.2.3,MacIntel,30.03003003,120245,,,,,,,
,,,,,,4.003923308,3.414,space,0.3473,0,22,22,34,1,35,image/35.jpg,0,0,,R_3NHYjetBGepYbrK,2,2024-05-03_18h26.49.963,face trait task,2021.2.3,MacIntel,30.03003003,120245,,,,,,,
,,,,,,4.003923308,2.2807,space,1.5669,0,23,23,0,1,1,image/1.jpg,0,0,,R_3NHYjetBGepYbrK,2,2024-05-03_18h26.49.963,face trait task,2021.2.3,MacIntel,30.03003003,120245,,,,,,,
,,,,,,3.976903657,3.9625,space,2.1584,0,24,24,5,1,6,image/6.jpg,0,0,,R_3NHYjetBGepYbrK,2,2024-05-03_18h26.49.963,face trait task,2021.2.3,MacIntel,30.03003003,120245,,,,,,,
,,,,,,5.470353439,2.7613,space,0.6554,0,25,25,29,1,30,image/30.jpg,0,0,,R_3NHYjetBGepYbrK,2,2024-05-03_18h26.49.963,face trait task,2021.2.3,MacIntel,30.03003003,120245,,,,,,,
,,,,,,2.975231987,2.9355,space,0.9577,0,26,26,41,1,42,image/42.jpg,0,0,,R_3NHYjetBGepYbrK,2,2024-05-03_18h26.49.963,face trait task,2021.2.3,MacIntel,30.03003003,120245,,,,,,,
,,,,,,3.033672216,2.2625,space,0.6803,0,27,27,10,1,11,image/11.jpg,0,0,,R_3NHYjetBGepYbrK,2,2024-05-03_18h26.49.963,face trait task,2021.2.3,MacIntel,30.03003003,120245,,,,,,,
,,,,,,4.002422216,3.1454,space,1.7096,0,28,28,23,1,24,image/24.jpg,0,0,,R_3NHYjetBGepYbrK,2,2024-05-03_18h26.49.963,face trait task,2021.2.3,MacIntel,30.03003003,120245,,,,,,,
,,,,,,4.932996725,3.1427,space,0.413,0,29,29,15,1,16,image/16.jpg,0,0,,R_3NHYjetBGepYbrK,2,2024-05-03_18h26.49.963,face trait task,2021.2.3,MacIntel,30.03003003,120245,,,,,,,
,,,,,,4.986626638,1.7788,space,0.6094,0,30,30,11,1,12,image/12.jpg,0,0,,R_3NHYjetBGepYbrK,2,2024-05-03_18h26.49.963,face trait task,2021.2.3,MacIntel,30.03003003,120245,,,,,,,
,,,,,,5.429858079,2.662,space,0.5244,0,31,31,4,1,5,image/5.jpg,0,0,,R_3NHYjetBGepYbrK,2,2024-05-03_18h26.49.963,face trait task,2021.2.3,MacIntel,30.03003003,120245,,,,,,,
,,,,,,5.429858079,1.5977,space,0.7625,0,32,32,21,1,22,image/22.jpg,0,0,,R_3NHYjetBGepYbrK,2,2024-05-03_18h26.49.963,face trait task,2021.2.3,MacIntel,30.03003003,120245,,,,,,,
,,,,,,3.99027702,2.2303,space,0.4395,0,33,33,42,1,43,image/43.jpg,0,0,,R_3NHYjetBGepYbrK,2,2024-05-03_18h26.49.963,face trait task,2021.2.3,MacIntel,30.03003003,120245,,,,,,,
,,,,,,3.460732806,6.7297,space,2.2453,0,34,34,16,1,17,image/17.jpg,0,0,,R_3NHYjetBGepYbrK,2,2024-05-03_18h26.49.963,face trait task,2021.2.3,MacIntel,30.03003003,120245,,,,,,,
,,,,,,1.034695688,3.8243,space,0.4399,0,35,35,52,1,55,image/fill_img.png,1,1,Please move the slider all the way to the LEFT to show that you are paying attention.,R_3NHYjetBGepYbrK,2,2024-05-03_18h26.49.963,face trait task,2021.2.3,MacIntel,30.03003003,120245,,,,,,,
,,,,,,4.00071643,6.3783,space,0.7909,0,36,36,3,1,4,image/4.jpg,0,0,,R_3NHYjetBGepYbrK,2,2024-05-03_18h26.49.963,face trait task,2021.2.3,MacIntel,30.03003003,120245,,,,,,,
,,,,,,5.905158297,9.4954,space,0.5267,0,37,37,12,1,13,image/13.jpg,0,0,,R_3NHYjetBGepYbrK,2,2024-05-03_18h26.49.963,face trait task,2021.2.3,MacIntel,30.03003003,120245,,,,,,,
,,,,,,5.631311408,1.6185,space,0.4077,0,38,38,36,1,37,image/37.jpg,0,0,,R_3NHYjetBGepYbrK,2,2024-05-03_18h26.49.963,face trait task,2021.2.3,MacIntel,30.03003003,120245,,,,,,,
,,,,,,3.958481168,2.2453,space,0.6927,0,39,39,32,1,33,image/33.jpg,0,0,,R_3NHYjetBGepYbrK,2,2024-05-03_18h26.49.963,face trait task,2021.2.3,MacIntel,30.03003003,120245,,,,,,,
,,,,,,6.990379367,3.2449,space,0.5118,0,40,40,30,1,31,image/31.jpg,0,0,,R_3NHYjetBGepYbrK,2,2024-05-03_18h26.49.963,face trait task,2021.2.3,MacIntel,30.03003003,120245,,,,,,,
,,,,,,5.01658024,1.7956,space,0.4628,0,41,41,39,1,40,image/40.jpg,0,0,,R_3NHYjetBGepYbrK,2,2024-05-03_18h26.49.963,face trait task,2021.2.3,MacIntel,30.03003003,120245,,,,,,,
,,,,,,4.007914847,2.1444,space,0.3852,0,42,42,38,1,39,image/39.jpg,0,0,,R_3NHYjetBGepYbrK,2,2024-05-03_18h26.49.963,face trait task,2021.2.3,MacIntel,30.03003003,120245,,,,,,,
,,,,,,4.993654476,2.6968,space,0.8118,0,43,43,26,1,27,image/27.jpg,0,0,,R_3NHYjetBGepYbrK,2,2024-05-03_18h26.49.963,face trait task,2021.2.3,MacIntel,30.03003003,120245,,,,,,,
,,,,,,3.953329694,2.2673,space,0.3688,0,44,44,49,1,50,image/50.jpg,0,0,,R_3NHYjetBGepYbrK,2,2024-05-03_18h26.49.963,face trait task,2021.2.3,MacIntel,30.03003003,120245,,,,,,,
,,,,,,2.086756277,3.6606,space,0.8239,0,45,45,28,1,29,image/29.jpg,0,0,,R_3NHYjetBGepYbrK,2,2024-05-03_18h26.49.963,face trait task,2021.2.3,MacIntel,30.03003003,120245,,,,,,,
,,,,,,2.972536845,2.4125,space,0.3933,0,46,46,24,1,25,image/25.jpg,0,0,,R_3NHYjetBGepYbrK,2,2024-05-03_18h26.49.963,face trait task,2021.2.3,MacIntel,30.03003003,120245,,,,,,,
,,,,,,4.005458515,2.8617,space,0.4113,0,47,47,8,1,9,image/9.jpg,0,0,,R_3NHYjetBGepYbrK,2,2024-05-03_18h26.49.963,face trait task,2021.2.3,MacIntel,30.03003003,120245,,,,,,,
,,,,,,4.005458515,1.9611,space,0.4975,0,48,48,40,1,41,image/41.jpg,0,0,,R_3NHYjetBGepYbrK,2,2024-05-03_18h26.49.963,face trait task,2021.2.3,MacIntel,30.03003003,120245,,,,,,,
,,,,,,5.968613537,2.079,space,0.9333,0,49,49,25,1,26,image/26.jpg,0,0,,R_3NHYjetBGepYbrK,2,2024-05-03_18h26.49.963,face trait task,2021.2.3,MacIntel,30.03003003,120245,,,,,,,
,,,,,,5.936647107,4.1661,space,0.4008,0,50,50,47,1,48,image/48.jpg,0,0,,R_3NHYjetBGepYbrK,2,2024-05-03_18h26.49.963,face trait task,2021.2.3,MacIntel,30.03003003,120245,,,,,,,
,,,,,,4.004742085,2.1445,space,0.4725,0,51,51,2,1,3,image/3.jpg,0,0,,R_3NHYjetBGepYbrK,2,2024-05-03_18h26.49.963,face trait task,2021.2.3,MacIntel,30.03003003,120245,,,,,,,
,,,,,,4.004742085,1.4207,space,0.5111,0,52,52,7,1,8,image/8.jpg,0,0,,R_3NHYjetBGepYbrK,2,2024-05-03_18h26.49.963,face trait task,2021.2.3,MacIntel,30.03003003,120245,,,,,,,
,,,,,,,,,,,,,,,,,,,,R_3NHYjetBGepYbrK,2,2024-05-03_18h26.49.963,face trait task,2021.2.3,MacIntel,30.03003003,120245,0,3,3,0,1,0,critical.png
