chooserow,ParID,pre_instru_resp_2.keys,pre_instru_resp_2.rt,pre_instru_resp_3.keys,pre_instru_resp_3.rt,pre_instru_resp_9.keys,pre_instru_resp_9.rt,pre_instru_resp_8.keys,pre_instru_resp_8.rt,pre_instru_resp_4.keys,pre_instru_resp_4.rt,pre_instru_resp_5.keys,pre_instru_resp_5.rt,pre_instru_resp_6.keys,pre_instru_resp_6.rt,key_resp_3.keys,key_resp_3.rt,key_resp_4.keys,key_resp_4.rt,key_resp_5.keys,key_resp_5.rt,key_resp_6.keys,key_resp_6.rt,key_resp_7.keys,key_resp_7.rt,trials_2.thisRepN,trials_2.thisTrialN,trials_2.thisN,trials_2.thisIndex,trials_2.ran,participant,session,date,expName,psychopyVersion,OS,frameRate,SONAid,pre_instru_resp.keys,pre_instru_resp.rt,clicked,judge_2.x,judge_2.y,judge_2.leftButton,judge_2.midButton,judge_2.rightButton,judge_2.clicked_name,trials.thisRepN,trials.thisTrialN,trials.thisN,trials.thisIndex,trials.ran,prac_answer,prac_dot_sti,dotlefttext,dotrighttext,prac_acc,judge.x,judge.y,judge.leftButton,judge.midButton,judge.rightButton,judge.clicked_name,clicked_guilt,slider_guilt.response,slider_guilt.rt,key_guilt.keys,share_slider.response,share_slider.rt,key_share.keys,key_share.rt,slider_apology.response,slider_apology.rt,key_apology.keys,slider_hide.response,slider_hide.rt,slider_forgiveness.response,slider_forgiveness.rt,key_forgiveness.keys,slider_mad.response,slider_mad.rt,trialseq.thisRepN,trialseq.thisTrialN,trialseq.thisN,trialseq.thisIndex,trialseq.ran,type_trial,stipic,DV,picture,answer,number,key_forgiveness.rt,key_apology.rt,key_guilt.rt,incompleteTrials,trials_redo.thisRepN,trials_redo.thisTrialN,trials_redo.thisN,trials_redo.thisIndex,trials_redo.ran
"[164,195,203,191,140,163,180,176,178,115,138,51,49,72,131,90,75,64,186,30,80,38,102,112,50,70,68,143,8,146,128,23,119,105,171,148,96,124,88,167,155,95]",R_3rOQiJSaYzSrL8h,space,1.891,space,14.091,space,89.563,space,49.499,space,63.696,space,21.385,space,9.093,3,12.189,1,7.158,3,8.271,3,11.456,2,1.444,0,0,0,0,1,R_3rOQiJSaYzSrL8h,1,2024-05-31_12h27.58.002,interaction task,2021.2.3,MacIntel,58.82352941,120417,,,,,,,,,,,,,,,,,,,,,,,,,,,,,,,,,,,,,,,,,,,,,,,,,,,,,,,,,,,,,,,
,,,,space,1.032,space,0.912,space,1.137,space,0.537,space,1.324,space,1.128,3,2.744,1,2.419,3,2.267,2,1.431,2,6.256,1,0,1,0,1,R_3rOQiJSaYzSrL8h,1,2024-05-31_12h27.58.002,interaction task,2021.2.3,MacIntel,58.82352941,120417,,,,,,,,,,,,,,,,,,,,,,,,,,,,,,,,,,,,,,,,,,,,,,,,,,,,,,,,,,,,,,,
,,,,,,,,,,,,,,,,,,,,,,,,,,,,,,,R_3rOQiJSaYzSrL8h,1,2024-05-31_12h27.58.002,interaction task,2021.2.3,MacIntel,58.82352941,120417,space,7.686,"[""LeftButton_2""]",-0.330555556,-0.32,1,0,0,LeftButton_2,0,0,0,1,1,RightButton_2,11dot1.png,Smaller,Greater,,,,,,,,,,,,,,,,,,,,,,,,,,,,,,,,,,,,,,,,,,,,,
,,,,,,,,,,,,,,,,,,,,,,,,,,,,,,,R_3rOQiJSaYzSrL8h,1,2024-05-31_12h27.58.002,interaction task,2021.2.3,MacIntel,58.82352941,120417,,,"[""LeftButton_2""]",-0.401388889,-0.317777778,1,0,0,LeftButton_2,0,1,1,0,1,LeftButton_2,11dot2.png,Greater,Smaller,,,,,,,,,,,,,,,,,,,,,,,,,,,,,,,,,,,,,,,,,,,,,
,,,,,,,,,,,,,,,,,,,,,,,,,,,,,,,R_3rOQiJSaYzSrL8h,1,2024-05-31_12h27.58.002,interaction task,2021.2.3,MacIntel,58.82352941,120417,,,"[""RightButton_2""]",0.288888889,-0.331111111,1,0,0,RightButton_2,0,2,2,2,1,RightButton_2,11dot1.png,Smaller,Greater,,,,,,,,,,,,,,,,,,,,,,,,,,,,,,,,,,,,,,,,,,,,,
,,,,,,,,,,,,,,,,,,,,,,,,,,,,,,,R_3rOQiJSaYzSrL8h,1,2024-05-31_12h27.58.002,interaction task,2021.2.3,MacIntel,58.82352941,120417,,,,,,,,,,,,,,,,,Smaller,Greater,0.4,-0.258333333,-0.508888889,1,0,0,LeftButton,"[""LeftButton""]",,,,2.055555556,11.975,space,3.36,,,,,,,,,,,0,0,0,0,1,3,only_sub_wrong.png,1,RandomDot40.png,No answer,19,,,,,,,,,
,,,,,,,,,,,,,,,,,,,,,,,,,,,,,,,R_3rOQiJSaYzSrL8h,1,2024-05-31_12h27.58.002,interaction task,2021.2.3,MacIntel,58.82352941,120417,,,,,,,,,,,,,,,,,Smaller,Greater,,0.273611111,-0.515555556,1,0,0,RightButton,"[""RightButton""]",,,,,,,,,,,,,,,,,,0,1,1,1,1,4,both_right.png,10,RandomDot41.png,RightButton,5,,,,,,,,,
,,,,,,,,,,,,,,,,,,,,,,,,,,,,,,,R_3rOQiJSaYzSrL8h,1,2024-05-31_12h27.58.002,interaction task,2021.2.3,MacIntel,58.82352941,120417,,,,,,,,,,,,,,,,,Smaller,Greater,,-0.223611111,-0.526666667,1,0,0,LeftButton,"[""LeftButton""]",,,,,,,,,,,,,,,,,,0,2,2,2,1,5,both_right.png,10,RandomDot42.png,LeftButton,21,,,,,,,,,
,,,,,,,,,,,,,,,,,,,,,,,,,,,,,,,R_3rOQiJSaYzSrL8h,1,2024-05-31_12h27.58.002,interaction task,2021.2.3,MacIntel,58.82352941,120417,,,,,,,,,,,,,,,,,Smaller,Greater,,0.238888889,-0.513333333,1,0,0,RightButton,"[""RightButton""]",,,,,,,,,,,,,50,3.333,space,50.70145903,6.18,0,3,3,3,1,3,only_sub_wrong.png,3,RandomDot36.png,No answer,21,1.235,,,,,,,,
,,,,,,,,,,,,,,,,,,,,,,,,,,,,,,,R_3rOQiJSaYzSrL8h,1,2024-05-31_12h27.58.002,interaction task,2021.2.3,MacIntel,58.82352941,120417,,,,,,,,,,,,,,,,,Smaller,Greater,,-0.254166667,-0.52,1,0,0,LeftButton,"[""LeftButton""]",,,,,,,,,,,,,98.96184063,4.317,space,0.757575758,7.479,0,4,4,4,1,2,only_sub_right.png,3,RandomDot8.png,No answer,19,0.432,,,,,,,,
,,,,,,,,,,,,,,,,,,,,,,,,,,,,,,,R_3rOQiJSaYzSrL8h,1,2024-05-31_12h27.58.002,interaction task,2021.2.3,MacIntel,58.82352941,120417,,,,,,,,,,,,,,,,,Smaller,Greater,,-0.240277778,-0.486666667,1,0,0,LeftButton,"[""LeftButton""]",,,,3.027777778,2.9,space,2.259,,,,,,,,,,,0,5,5,5,1,3,only_sub_wrong.png,1,RandomDot6.png,No answer,20,,,,,,,,,
,,,,,,,,,,,,,,,,,,,,,,,,,,,,,,,R_3rOQiJSaYzSrL8h,1,2024-05-31_12h27.58.002,interaction task,2021.2.3,MacIntel,58.82352941,120417,,,,,,,,,,,,,,,,,Greater,Smaller,,-0.247222222,-0.517777778,1,0,0,LeftButton,"[""LeftButton""]",,,,,,,,,,,,,72.44668911,3.608,space,55.19079686,8.058,0,6,6,6,1,3,only_sub_wrong.png,3,RandomDot20.png,No answer,19,2.035,,,,,,,,
,,,,,,,,,,,,,,,,,,,,,,,,,,,,,,,R_3rOQiJSaYzSrL8h,1,2024-05-31_12h27.58.002,interaction task,2021.2.3,MacIntel,58.82352941,120417,,,,,,,,,,,,,,,,,Smaller,Greater,,-0.313888889,-0.535555556,1,0,0,LeftButton,"[""LeftButton""]",,,,,,,,96,4.614,space,67,12.465,,,,,,0,7,7,7,1,3,only_sub_wrong.png,2,RandomDot40.png,No answer,20,,5.17,,,,,,,
,,,,,,,,,,,,,,,,,,,,,,,,,,,,,,,R_3rOQiJSaYzSrL8h,1,2024-05-31_12h27.58.002,interaction task,2021.2.3,MacIntel,58.82352941,120417,,,,,,,,,,,,,,,,,Smaller,Greater,,-0.276388889,-0.457777778,1,0,0,LeftButton,"[""LeftButton""]",,,,,,,,100,4.23,space,78,2.367,,,,,,0,8,8,8,1,3,only_sub_wrong.png,2,RandomDot22.png,No answer,19,,0.834,,,,,,,
,,,,,,,,,,,,,,,,,,,,,,,,,,,,,,,R_3rOQiJSaYzSrL8h,1,2024-05-31_12h27.58.002,interaction task,2021.2.3,MacIntel,58.82352941,120417,,,,,,,,,,,,,,,,,Smaller,Greater,,0.322222222,-0.522222222,1,0,0,RightButton,"[""RightButton""]",,,,3.458333333,8.683,space,6.084,,,,,,,,,,,0,9,9,9,1,2,only_sub_right.png,1,RandomDot14.png,No answer,20,,,,,,,,,
,,,,,,,,,,,,,,,,,,,,,,,,,,,,,,,R_3rOQiJSaYzSrL8h,1,2024-05-31_12h27.58.002,interaction task,2021.2.3,MacIntel,58.82352941,120417,,,,,,,,,,,,,,,,,Smaller,Greater,,-0.244444444,-0.506666667,1,0,0,LeftButton,"[""LeftButton""]",,,,,,,,,,,,,99.52300786,4.862,space,6.930415264,6.195,0,10,10,10,1,2,only_sub_right.png,3,RandomDot25.png,No answer,21,0.522,,,,,,,,
,,,,,,,,,,,,,,,,,,,,,,,,,,,,,,,R_3rOQiJSaYzSrL8h,1,2024-05-31_12h27.58.002,interaction task,2021.2.3,MacIntel,58.82352941,120417,,,,,,,,,,,,,,,,,Greater,Smaller,,-0.25,-0.493333333,1,0,0,LeftButton,"[""LeftButton""]",80,6.503,space,,,,,,,,,,,,,,,0,11,11,11,1,1,both_wrong.png,0,RandomDot14.png,No answer,19,,,3.685,,,,,,
,,,,,,,,,,,,,,,,,,,,,,,,,,,,,,,R_3rOQiJSaYzSrL8h,1,2024-05-31_12h27.58.002,interaction task,2021.2.3,MacIntel,58.82352941,120417,,,,,,,,,,,,,,,,,Greater,Smaller,,-0.336111111,-0.515555556,1,0,0,LeftButton,"[""LeftButton""]",91,2.015,space,,,,,,,,,,,,,,,0,12,12,12,1,1,both_wrong.png,0,RandomDot16.png,No answer,19,,,0.384,,,,,,
,,,,,,,,,,,,,,,,,,,,,,,,,,,,,,,R_3rOQiJSaYzSrL8h,1,2024-05-31_12h27.58.002,interaction task,2021.2.3,MacIntel,58.82352941,120417,,,,,,,,,,,,,,,,,Greater,Smaller,,0.302777778,-0.537777778,1,0,0,RightButton,"[""RightButton""]",,,,,,,,90,2.911,space,80,6.828,,,,,,0,13,13,13,1,1,both_wrong.png,2,RandomDot1.png,No answer,21,,1.566,,,,,,,
,,,,,,,,,,,,,,,,,,,,,,,,,,,,,,,R_3rOQiJSaYzSrL8h,1,2024-05-31_12h27.58.002,interaction task,2021.2.3,MacIntel,58.82352941,120417,,,,,,,,,,,,,,,,,Smaller,Greater,,-0.323611111,-0.528888889,1,0,0,LeftButton,"[""LeftButton""]",,,,,,,,50,6.366,space,50,7.634,,,,,,0,14,14,14,1,2,only_sub_right.png,2,RandomDot5.png,No answer,21,,0.617,,,,,,,
,,,,,,,,,,,,,,,,,,,,,,,,,,,,,,,R_3rOQiJSaYzSrL8h,1,2024-05-31_12h27.58.002,interaction task,2021.2.3,MacIntel,58.82352941,120417,,,,,,,,,,,,,,,,,Smaller,Greater,,-0.2625,-0.52,1,0,0,LeftButton,"[""LeftButton""]",,,,,,,,,,,,,74.2704826,6.874,space,60.38159371,8.539,0,15,15,15,1,1,both_wrong.png,3,RandomDot29.png,No answer,19,0.301,,,,,,,,
,,,,,,,,,,,,,,,,,,,,,,,,,,,,,,,R_3rOQiJSaYzSrL8h,1,2024-05-31_12h27.58.002,interaction task,2021.2.3,MacIntel,58.82352941,120417,,,,,,,,,,,,,,,,,Greater,Smaller,,-0.261111111,-0.506666667,1,0,0,LeftButton,"[""LeftButton""]",,,,,,,,70,4.88,space,71,8.572,,,,,,0,16,16,16,1,1,both_wrong.png,2,RandomDot10.png,No answer,20,,1.025,,,,,,,
,,,,,,,,,,,,,,,,,,,,,,,,,,,,,,,R_3rOQiJSaYzSrL8h,1,2024-05-31_12h27.58.002,interaction task,2021.2.3,MacIntel,58.82352941,120417,,,,,,,,,,,,,,,,,Greater,Smaller,,0.268055556,-0.522222222,1,0,0,RightButton,"[""RightButton""]",,,,4.034722222,6.066,space,0.583,,,,,,,,,,,0,17,17,17,1,1,both_wrong.png,1,RandomDot6.png,No answer,20,,,,,,,,,
,,,,,,,,,,,,,,,,,,,,,,,,,,,,,,,R_3rOQiJSaYzSrL8h,1,2024-05-31_12h27.58.002,interaction task,2021.2.3,MacIntel,58.82352941,120417,,,,,,,,,,,,,,,,,Smaller,Greater,,-0.297222222,-0.506666667,1,0,0,LeftButton,"[""LeftButton""]",,,,,,,,,,,,,51.12233446,5.084,space,89.28170595,3.31,0,18,18,18,1,3,only_sub_wrong.png,3,RandomDot9.png,No answer,19,0.503,,,,,,,,
,,,,,,,,,,,,,,,,,,,,,,,,,,,,,,,R_3rOQiJSaYzSrL8h,1,2024-05-31_12h27.58.002,interaction task,2021.2.3,MacIntel,58.82352941,120417,,,,,,,,,,,,,,,,,Smaller,Greater,,-0.291666667,-0.5,1,0,0,,[],,,,,,,,,,,,,,,,,,0,19,19,19,1,0,both_right.png,2,RandomDot24.png,No answer,21,,,,30,,,,,
,,,,,,,,,,,,,,,,,,,,,,,,,,,,,,,R_3rOQiJSaYzSrL8h,1,2024-05-31_12h27.58.002,interaction task,2021.2.3,MacIntel,58.82352941,120417,,,,,,,,,,,,,,,,,Smaller,Greater,,0.291666667,-0.486666667,1,0,0,RightButton,"[""RightButton""]",,,,,,,,70,4.37,space,70,2.399,,,,,,0,20,20,20,1,1,both_wrong.png,2,RandomDot8.png,No answer,20,,0.467,,,,,,,
,,,,,,,,,,,,,,,,,,,,,,,,,,,,,,,R_3rOQiJSaYzSrL8h,1,2024-05-31_12h27.58.002,interaction task,2021.2.3,MacIntel,58.82352941,120417,,,,,,,,,,,,,,,,,Greater,Smaller,,0.225,-0.477777778,1,0,0,RightButton,"[""RightButton""]",,,,,,,,,,,,,,,,,,0,21,21,21,1,0,both_right.png,3,RandomDot39.png,No answer,20,,,,,,,,,
,,,,,,,,,,,,,,,,,,,,,,,,,,,,,,,R_3rOQiJSaYzSrL8h,1,2024-05-31_12h27.58.002,interaction task,2021.2.3,MacIntel,58.82352941,120417,,,,,,,,,,,,,,,,,Smaller,Greater,,0.226388889,-0.526666667,1,0,0,RightButton,"[""RightButton""]",12,3.141,space,,,,,,,,,,,,,,,0,22,22,22,1,2,only_sub_right.png,0,RandomDot16.png,No answer,21,,,0.367,,,,,,
,,,,,,,,,,,,,,,,,,,,,,,,,,,,,,,R_3rOQiJSaYzSrL8h,1,2024-05-31_12h27.58.002,interaction task,2021.2.3,MacIntel,58.82352941,120417,,,,,,,,,,,,,,,,,Greater,Smaller,,0.268055556,-0.5,1,0,0,RightButton,"[""RightButton""]",,,,4.638888889,3.422,space,0.9,,,,,,,,,,,0,23,23,23,1,2,only_sub_right.png,1,RandomDot32.png,No answer,19,,,,,,,,,
,,,,,,,,,,,,,,,,,,,,,,,,,,,,,,,R_3rOQiJSaYzSrL8h,1,2024-05-31_12h27.58.002,interaction task,2021.2.3,MacIntel,58.82352941,120417,,,,,,,,,,,,,,,,,Greater,Smaller,,-0.313888889,-0.508888889,1,0,0,LeftButton,"[""LeftButton""]",71,4.504,space,,,,,,,,,,,,,,,0,24,24,24,1,1,both_wrong.png,0,RandomDot12.png,No answer,21,,,0.5,,,,,,
,,,,,,,,,,,,,,,,,,,,,,,,,,,,,,,R_3rOQiJSaYzSrL8h,1,2024-05-31_12h27.58.002,interaction task,2021.2.3,MacIntel,58.82352941,120417,,,,,,,,,,,,,,,,,Smaller,Greater,,0.279166667,-0.537777778,1,0,0,RightButton,"[""RightButton""]",,,,4.673611111,3.934,space,0.517,,,,,,,,,,,0,25,25,25,1,1,both_wrong.png,1,RandomDot29.png,No answer,19,,,,,,,,,
,,,,,,,,,,,,,,,,,,,,,,,,,,,,,,,R_3rOQiJSaYzSrL8h,1,2024-05-31_12h27.58.002,interaction task,2021.2.3,MacIntel,58.82352941,120417,,,,,,,,,,,,,,,,,Smaller,Greater,,-0.288888889,-0.475555556,1,0,0,LeftButton,"[""LeftButton""]",,,,4.569444444,4.558,space,0.308,,,,,,,,,,,0,26,26,26,1,1,both_wrong.png,1,RandomDot8.png,No answer,21,,,,,,,,,
,,,,,,,,,,,,,,,,,,,,,,,,,,,,,,,R_3rOQiJSaYzSrL8h,1,2024-05-31_12h27.58.002,interaction task,2021.2.3,MacIntel,58.82352941,120417,,,,,,,,,,,,,,,,,Smaller,Greater,,0.243055556,-0.528888889,1,0,0,RightButton,"[""RightButton""]",,,,,,,,,,,,,49.43883277,4.966,space,49.71941639,3.195,0,27,27,27,1,2,only_sub_right.png,3,RandomDot31.png,No answer,19,0.327,,,,,,,,
,,,,,,,,,,,,,,,,,,,,,,,,,,,,,,,R_3rOQiJSaYzSrL8h,1,2024-05-31_12h27.58.002,interaction task,2021.2.3,MacIntel,58.82352941,120417,,,,,,,,,,,,,,,,,Smaller,Greater,,-0.356944444,-0.513333333,1,0,0,LeftButton,"[""LeftButton""]",,,,,,,,,,,,,,,,,,0,28,28,28,1,0,both_right.png,0,RandomDot15.png,No answer,21,,,,,,,,,
,,,,,,,,,,,,,,,,,,,,,,,,,,,,,,,R_3rOQiJSaYzSrL8h,1,2024-05-31_12h27.58.002,interaction task,2021.2.3,MacIntel,58.82352941,120417,,,,,,,,,,,,,,,,,Greater,Smaller,,-0.275,-0.526666667,1,0,0,LeftButton,"[""LeftButton""]",94,2.585,space,,,,,,,,,,,,,,,0,29,29,29,1,3,only_sub_wrong.png,0,RandomDot38.png,No answer,21,,,0.541,,,,,,
,,,,,,,,,,,,,,,,,,,,,,,,,,,,,,,R_3rOQiJSaYzSrL8h,1,2024-05-31_12h27.58.002,interaction task,2021.2.3,MacIntel,58.82352941,120417,,,,,,,,,,,,,,,,,Smaller,Greater,,-0.308333333,-0.52,1,0,0,LeftButton,"[""LeftButton""]",,,,,,,,51,4.112,space,30,6.901,,,,,,0,30,30,30,1,2,only_sub_right.png,2,RandomDot22.png,No answer,20,,0.366,,,,,,,
,,,,,,,,,,,,,,,,,,,,,,,,,,,,,,,R_3rOQiJSaYzSrL8h,1,2024-05-31_12h27.58.002,interaction task,2021.2.3,MacIntel,58.82352941,120417,,,,,,,,,,,,,,,,,Smaller,Greater,,-0.275,-0.502222222,1,0,0,LeftButton,"[""LeftButton""]",,,,,,,,,,,,,,,,,,0,31,31,31,1,0,both_right.png,1,RandomDot3.png,No answer,19,,,,,,,,,
,,,,,,,,,,,,,,,,,,,,,,,,,,,,,,,R_3rOQiJSaYzSrL8h,1,2024-05-31_12h27.58.002,interaction task,2021.2.3,MacIntel,58.82352941,120417,,,,,,,,,,,,,,,,,Smaller,Greater,,0.298611111,-0.504444444,1,0,0,RightButton,"[""RightButton""]",,,,4.645833333,2.24,space,0.401,,,,,,,,,,,0,32,32,32,1,2,only_sub_right.png,1,RandomDot38.png,No answer,19,,,,,,,,,
,,,,,,,,,,,,,,,,,,,,,,,,,,,,,,,R_3rOQiJSaYzSrL8h,1,2024-05-31_12h27.58.002,interaction task,2021.2.3,MacIntel,58.82352941,120417,,,,,,,,,,,,,,,,,Smaller,Greater,,0.261111111,-0.504444444,1,0,0,RightButton,"[""RightButton""]",58,2.22,space,,,,,,,,,,,,,,,0,33,33,33,1,2,only_sub_right.png,0,RandomDot17.png,No answer,20,,,0.673,,,,,,
,,,,,,,,,,,,,,,,,,,,,,,,,,,,,,,R_3rOQiJSaYzSrL8h,1,2024-05-31_12h27.58.002,interaction task,2021.2.3,MacIntel,58.82352941,120417,,,,,,,,,,,,,,,,,Greater,Smaller,,0.273611111,-0.511111111,1,0,0,RightButton,"[""RightButton""]",,,,,,,,80,2.516,space,57,4.471,,,,,,0,34,34,34,1,3,only_sub_wrong.png,2,RandomDot23.png,No answer,20,,0.801,,,,,,,
,,,,,,,,,,,,,,,,,,,,,,,,,,,,,,,R_3rOQiJSaYzSrL8h,1,2024-05-31_12h27.58.002,interaction task,2021.2.3,MacIntel,58.82352941,120417,,,,,,,,,,,,,,,,,Greater,Smaller,,0.288888889,-0.488888889,1,0,0,RightButton,"[""RightButton""]",90,2.483,space,,,,,,,,,,,,,,,0,35,35,35,1,3,only_sub_wrong.png,0,RandomDot12.png,No answer,20,,,0.301,,,,,,
,,,,,,,,,,,,,,,,,,,,,,,,,,,,,,,R_3rOQiJSaYzSrL8h,1,2024-05-31_12h27.58.002,interaction task,2021.2.3,MacIntel,58.82352941,120417,,,,,,,,,,,,,,,,,Greater,Smaller,,-0.273611111,-0.526666667,1,0,0,LeftButton,"[""LeftButton""]",30,4.369,space,,,,,,,,,,,,,,,0,36,36,36,1,2,only_sub_right.png,0,RandomDot26.png,No answer,19,,,1.067,,,,,,
,,,,,,,,,,,,,,,,,,,,,,,,,,,,,,,R_3rOQiJSaYzSrL8h,1,2024-05-31_12h27.58.002,interaction task,2021.2.3,MacIntel,58.82352941,120417,,,,,,,,,,,,,,,,,Greater,Smaller,,0.306944444,-0.513333333,1,0,0,RightButton,"[""RightButton""]",,,,,,,,29,5.517,space,30,6.286,,,,,,0,37,37,37,1,2,only_sub_right.png,2,RandomDot20.png,No answer,20,,0.242,,,,,,,
,,,,,,,,,,,,,,,,,,,,,,,,,,,,,,,R_3rOQiJSaYzSrL8h,1,2024-05-31_12h27.58.002,interaction task,2021.2.3,MacIntel,58.82352941,120417,,,,,,,,,,,,,,,,,Greater,Smaller,,0.295833333,-0.524444444,1,0,0,RightButton,"[""RightButton""]",,,,,,,,,,,,,67.53647587,3.58,space,68.79910213,5.393,0,38,38,38,1,1,both_wrong.png,3,RandomDot30.png,No answer,20,0.367,,,,,,,,
,,,,,,,,,,,,,,,,,,,,,,,,,,,,,,,R_3rOQiJSaYzSrL8h,1,2024-05-31_12h27.58.002,interaction task,2021.2.3,MacIntel,58.82352941,120417,,,,,,,,,,,,,,,,,Smaller,Greater,,-0.270833333,-0.504444444,1,0,0,LeftButton,"[""LeftButton""]",,,,4.972222222,2.585,space,0.336,,,,,,,,,,,0,39,39,39,1,3,only_sub_wrong.png,1,RandomDot22.png,No answer,20,,,,,,,,,
,,,,,,,,,,,,,,,,,,,,,,,,,,,,,,,R_3rOQiJSaYzSrL8h,1,2024-05-31_12h27.58.002,interaction task,2021.2.3,MacIntel,58.82352941,120417,,,,,,,,,,,,,,,,,Smaller,Greater,,0.301388889,-0.52,1,0,0,RightButton,"[""RightButton""]",100,1.42,space,,,,,,,,,,,,,,,0,40,40,40,1,3,only_sub_wrong.png,0,RandomDot2.png,No answer,20,,,0.371,,,,,,
,,,,,,,,,,,,,,,,,,,,,,,,,,,,,,,R_3rOQiJSaYzSrL8h,1,2024-05-31_12h27.58.002,interaction task,2021.2.3,MacIntel,58.82352941,120417,,,,,,,,,,,,,,,,,Smaller,Greater,,0.3,-0.522222222,1,0,0,RightButton,"[""RightButton""]",,,,,,,,,,,,,68.93939394,5.962,space,73.70931538,7.867,0,41,41,41,1,1,both_wrong.png,3,RandomDot12.png,No answer,19,0.683,,,,,,,,
,,,,,,,,,,,,,,,,,,,,,,,,,,,,,,,R_3rOQiJSaYzSrL8h,1,2024-05-31_12h27.58.002,interaction task,2021.2.3,MacIntel,58.82352941,120417,,,,,,,,,,,,,,,,,Smaller,Greater,,-0.258333333,-0.506666667,1,0,0,LeftButton,"[""LeftButton""]",,,,,,,,,,,,,,,,,,,,,,,0,both_right.png,2,RandomDot24.png,No answer,21,,,,,0,0,0,0,1
