chooserow,ParID,pre_instru_resp_2.keys,pre_instru_resp_2.rt,pre_instru_resp_3.keys,pre_instru_resp_3.rt,pre_instru_resp_9.keys,pre_instru_resp_9.rt,pre_instru_resp_8.keys,pre_instru_resp_8.rt,pre_instru_resp_4.keys,pre_instru_resp_4.rt,pre_instru_resp_5.keys,pre_instru_resp_5.rt,pre_instru_resp_6.keys,pre_instru_resp_6.rt,key_resp_3.keys,key_resp_3.rt,key_resp_4.keys,key_resp_4.rt,key_resp_5.keys,key_resp_5.rt,key_resp_6.keys,key_resp_6.rt,key_resp_7.keys,key_resp_7.rt,trials_2.thisRepN,trials_2.thisTrialN,trials_2.thisN,trials_2.thisIndex,trials_2.ran,participant,session,date,expName,psychopyVersion,OS,frameRate,SONAid,pre_instru_resp.keys,pre_instru_resp.rt,clicked,judge_2.x,judge_2.y,judge_2.leftButton,judge_2.midButton,judge_2.rightButton,judge_2.clicked_name,trials.thisRepN,trials.thisTrialN,trials.thisN,trials.thisIndex,trials.ran,prac_answer,prac_dot_sti,dotlefttext,dotrighttext,prac_acc,judge.x,judge.y,judge.leftButton,judge.midButton,judge.rightButton,judge.clicked_name,clicked_guilt,slider_guilt.response,slider_guilt.rt,key_guilt.keys,share_slider.response,share_slider.rt,key_share.keys,key_share.rt,slider_apology.response,slider_apology.rt,key_apology.keys,slider_hide.response,slider_hide.rt,slider_forgiveness.response,slider_forgiveness.rt,key_forgiveness.keys,slider_mad.response,slider_mad.rt,trialseq.thisRepN,trialseq.thisTrialN,trialseq.thisN,trialseq.thisIndex,trialseq.ran,type_trial,stipic,DV,picture,answer,number,key_forgiveness.rt,key_guilt.rt,key_apology.rt,incompleteTrials,trials_redo.thisRepN,trials_redo.thisTrialN,trials_redo.thisN,trials_redo.thisIndex,trials_redo.ran
"[69,180,98,34,74,46,58,84,137,13,76,196,68,88,174,178,162,67,85,55,199,116,11,122,112,148,129,131,132,155,156,104,164,57,185,189,109,142,152,170,107,72]",R_3S8p45ndEmC6VLP,space,1.5746,space,2.2645,space,2.1174,space,14.3988,space,13.8739,space,7.1317,space,2.7756,2,5.536,1,11.0394,2,9.6321,3,8.805,1,1.5899,0,0,0,0,1,R_3S8p45ndEmC6VLP,1,2024-05-29_11h29.30.138,interaction task,2021.2.3,MacIntel,64.1025641,121583,,,,,,,,,,,,,,,,,,,,,,,,,,,,,,,,,,,,,,,,,,,,,,,,,,,,,,,,,,,,,,,
,,,,space,3.1507,space,12.9827,space,13.0662,space,14.8397,space,0.0233,space,2.1171,3,6.6071,1,3.1199,3,3.0886,2,4.5478,2,3.0142,1,0,1,0,1,R_3S8p45ndEmC6VLP,1,2024-05-29_11h29.30.138,interaction task,2021.2.3,MacIntel,64.1025641,121583,,,,,,,,,,,,,,,,,,,,,,,,,,,,,,,,,,,,,,,,,,,,,,,,,,,,,,,,,,,,,,,
,,,,,,,,,,,,,,,,,,,,,,,,,,,,,,,R_3S8p45ndEmC6VLP,1,2024-05-29_11h29.30.138,interaction task,2021.2.3,MacIntel,64.1025641,121583,space,2.823,"[""RightButton_2""]",0.30218099,-0.326892361,1,0,0,RightButton_2,0,0,0,2,1,RightButton_2,11dot1.png,Smaller,Greater,,,,,,,,,,,,,,,,,,,,,,,,,,,,,,,,,,,,,,,,,,,,,
,,,,,,,,,,,,,,,,,,,,,,,,,,,,,,,R_3S8p45ndEmC6VLP,1,2024-05-29_11h29.30.138,interaction task,2021.2.3,MacIntel,64.1025641,121583,,,"[""LeftButton_2""]",-0.267768012,-0.318307292,1,0,0,LeftButton_2,0,1,1,0,1,LeftButton_2,11dot2.png,Greater,Smaller,,,,,,,,,,,,,,,,,,,,,,,,,,,,,,,,,,,,,,,,,,,,,
,,,,,,,,,,,,,,,,,,,,,,,,,,,,,,,R_3S8p45ndEmC6VLP,1,2024-05-29_11h29.30.138,interaction task,2021.2.3,MacIntel,64.1025641,121583,,,"[""LeftButton_2""]",-0.230354818,-0.318029514,1,0,0,LeftButton_2,0,2,2,1,1,LeftButton_2,9dot1.png,Smaller,Greater,,,,,,,,,,,,,,,,,,,,,,,,,,,,,,,,,,,,,,,,,,,,,
,,,,,,,,,,,,,,,,,,,,,,,,,,,,,,,R_3S8p45ndEmC6VLP,1,2024-05-29_11h29.30.138,interaction task,2021.2.3,MacIntel,64.1025641,121583,,,,,,,,,,,,,,,,,Smaller,Greater,0.6,0.253683811,-0.545486111,1,0,0,RightButton,"[""RightButton""]",,,,0.528320313,11.7202,space,1.5972,,,,,,,,,,,0,0,0,0,1,1,both_wrong.png,1,RandomDot13.png,No answer,19,,,,,,,,,
,,,,,,,,,,,,,,,,,,,,,,,,,,,,,,,R_3S8p45ndEmC6VLP,1,2024-05-29_11h29.30.138,interaction task,2021.2.3,MacIntel,64.1025641,121583,,,,,,,,,,,,,,,,,Greater,Smaller,,-0.307698568,-0.49921875,1,0,0,LeftButton,"[""LeftButton""]",,,,,,,,,,,,,84.00815885,9.4071,space,49.04426207,15.1399,0,1,1,1,1,3,only_sub_wrong.png,3,RandomDot20.png,No answer,19,6.3835,,,,,,,,
,,,,,,,,,,,,,,,,,,,,,,,,,,,,,,,R_3S8p45ndEmC6VLP,1,2024-05-29_11h29.30.138,interaction task,2021.2.3,MacIntel,64.1025641,121583,,,,,,,,,,,,,,,,,Greater,Smaller,,-0.285183377,-0.527821181,1,0,0,LeftButton,"[""LeftButton""]",8,3.8616,space,,,,,,,,,,,,,,,0,2,2,2,1,2,only_sub_right.png,0,RandomDot16.png,No answer,20,,3.2747,,,,,,,
,,,,,,,,,,,,,,,,,,,,,,,,,,,,,,,R_3S8p45ndEmC6VLP,1,2024-05-29_11h29.30.138,interaction task,2021.2.3,MacIntel,64.1025641,121583,,,,,,,,,,,,,,,,,Smaller,Greater,,-0.248453776,-0.510963542,1,0,0,LeftButton,"[""LeftButton""]",,,,,,,,,,,,,,,,,,0,3,3,3,1,0,both_right.png,2,RandomDot15.png,No answer,21,,,,,,,,,
,,,,,,,,,,,,,,,,,,,,,,,,,,,,,,,R_3S8p45ndEmC6VLP,1,2024-05-29_11h29.30.138,interaction task,2021.2.3,MacIntel,64.1025641,121583,,,,,,,,,,,,,,,,,Greater,Smaller,,-0.259385851,-0.530928819,1,0,0,LeftButton,"[""LeftButton""]",,,,,,,,50,21.3387,space,49,20.4548,,,,,,0,4,4,4,1,1,both_wrong.png,2,RandomDot16.png,No answer,20,,,12.6458,,,,,,
,,,,,,,,,,,,,,,,,,,,,,,,,,,,,,,R_3S8p45ndEmC6VLP,1,2024-05-29_11h29.30.138,interaction task,2021.2.3,MacIntel,64.1025641,121583,,,,,,,,,,,,,,,,,Smaller,Greater,,-0.239805773,-0.533993056,1,0,0,LeftButton,"[""LeftButton""]",,,,,,,,,,,,,,,,,,0,5,5,5,1,0,both_right.png,3,RandomDot18.png,No answer,20,,,,,,,,,
,,,,,,,,,,,,,,,,,,,,,,,,,,,,,,,R_3S8p45ndEmC6VLP,1,2024-05-29_11h29.30.138,interaction task,2021.2.3,MacIntel,64.1025641,121583,,,,,,,,,,,,,,,,,Smaller,Greater,,0.361735026,-0.524184028,1,0,0,RightButton,"[""RightButton""]",10,4.9099,space,,,,,,,,,,,,,,,0,6,6,6,1,1,both_wrong.png,0,RandomDot34.png,No answer,19,,3.2997,,,,,,,
,,,,,,,,,,,,,,,,,,,,,,,,,,,,,,,R_3S8p45ndEmC6VLP,1,2024-05-29_11h29.30.138,interaction task,2021.2.3,MacIntel,64.1025641,121583,,,,,,,,,,,,,,,,,Greater,Smaller,,-0.32016059,-0.482795139,1,0,0,LeftButton,"[""LeftButton""]",,,,,,,,,,,,,80.83570076,3.3185,space,38.64458386,7.7864,0,7,7,7,1,1,both_wrong.png,3,RandomDot6.png,No answer,20,3.6491,,,,,,,,
,,,,,,,,,,,,,,,,,,,,,,,,,,,,,,,R_3S8p45ndEmC6VLP,1,2024-05-29_11h29.30.138,interaction task,2021.2.3,MacIntel,64.1025641,121583,,,,,,,,,,,,,,,,,Greater,Smaller,,0.299620226,-0.498480903,1,0,0,RightButton,"[""RightButton""]",,,,,,,,,,,,,90.61995826,2.7359,space,23.14233919,3.9731,0,8,8,8,1,2,only_sub_right.png,3,RandomDot23.png,No answer,20,1.4733,,,,,,,,
,,,,,,,,,,,,,,,,,,,,,,,,,,,,,,,R_3S8p45ndEmC6VLP,1,2024-05-29_11h29.30.138,interaction task,2021.2.3,MacIntel,64.1025641,121583,,,,,,,,,,,,,,,,,Greater,Smaller,,-0.253938802,-0.53546875,1,0,0,LeftButton,"[""LeftButton""]",,,,,,,,,,,,,,,,,,0,9,9,9,1,0,both_right.png,1,RandomDot28.png,No answer,21,,,,,,,,,
,,,,,,,,,,,,,,,,,,,,,,,,,,,,,,,R_3S8p45ndEmC6VLP,1,2024-05-29_11h29.30.138,interaction task,2021.2.3,MacIntel,64.1025641,121583,,,,,,,,,,,,,,,,,Greater,Smaller,,-0.26195204,-0.459921875,1,0,0,LeftButton,"[""LeftButton""]",,,,,,,,50,2.891,space,49,8.9562,,,,,,0,10,10,10,1,1,both_wrong.png,2,RandomDot9.png,No answer,21,,,3.3773,,,,,,
,,,,,,,,,,,,,,,,,,,,,,,,,,,,,,,R_3S8p45ndEmC6VLP,1,2024-05-29_11h29.30.138,interaction task,2021.2.3,MacIntel,64.1025641,121583,,,,,,,,,,,,,,,,,Smaller,Greater,,0.250645616,-0.534652778,1,0,0,RightButton,"[""RightButton""]",,,,,,,,,,,,,,,,,,0,11,11,11,1,4,both_right.png,10,RandomDot41.png,RightButton,5,,,,,,,,,
,,,,,,,,,,,,,,,,,,,,,,,,,,,,,,,R_3S8p45ndEmC6VLP,1,2024-05-29_11h29.30.138,interaction task,2021.2.3,MacIntel,64.1025641,121583,,,,,,,,,,,,,,,,,Smaller,Greater,,-0.233875868,-0.484505208,1,0,0,LeftButton,"[""LeftButton""]",,,,1.984375,11.1049,space,2.4555,,,,,,,,,,,0,12,12,12,1,1,both_wrong.png,1,RandomDot8.png,No answer,21,,,,,,,,,
,,,,,,,,,,,,,,,,,,,,,,,,,,,,,,,R_3S8p45ndEmC6VLP,1,2024-05-29_11h29.30.138,interaction task,2021.2.3,MacIntel,64.1025641,121583,,,,,,,,,,,,,,,,,Greater,Smaller,,0.223312717,-0.503480903,1,0,0,RightButton,"[""RightButton""]",,,,,,,,,,,,,75.56982586,6.1002,space,34.09880051,8.2543,0,13,13,13,1,1,both_wrong.png,3,RandomDot30.png,No answer,20,2.0266,,,,,,,,
,,,,,,,,,,,,,,,,,,,,,,,,,,,,,,,R_3S8p45ndEmC6VLP,1,2024-05-29_11h29.30.138,interaction task,2021.2.3,MacIntel,64.1025641,121583,,,,,,,,,,,,,,,,,Smaller,Greater,,-0.283550347,-0.534227431,1,0,0,LeftButton,"[""LeftButton""]",,,,,,,,72,6.5834,space,43,10.0623,,,,,,0,14,14,14,1,3,only_sub_wrong.png,2,RandomDot15.png,No answer,21,,,0.9826,,,,,,
,,,,,,,,,,,,,,,,,,,,,,,,,,,,,,,R_3S8p45ndEmC6VLP,1,2024-05-29_11h29.30.138,interaction task,2021.2.3,MacIntel,64.1025641,121583,,,,,,,,,,,,,,,,,Smaller,Greater,,0.334488932,-0.506657986,1,0,0,RightButton,"[""RightButton""]",,,,,,,,88,2.5402,space,39,4.1903,,,,,,0,15,15,15,1,3,only_sub_wrong.png,2,RandomDot22.png,No answer,19,,,1.316,,,,,,
,,,,,,,,,,,,,,,,,,,,,,,,,,,,,,,R_3S8p45ndEmC6VLP,1,2024-05-29_11h29.30.138,interaction task,2021.2.3,MacIntel,64.1025641,121583,,,,,,,,,,,,,,,,,Smaller,Greater,,-0.315831163,-0.5196875,1,0,0,LeftButton,"[""LeftButton""]",,,,2.838812934,2.8043,space,1.2213,,,,,,,,,,,0,16,16,16,1,3,only_sub_wrong.png,1,RandomDot15.png,No answer,21,,,,,,,,,
,,,,,,,,,,,,,,,,,,,,,,,,,,,,,,,R_3S8p45ndEmC6VLP,1,2024-05-29_11h29.30.138,interaction task,2021.2.3,MacIntel,64.1025641,121583,,,,,,,,,,,,,,,,,Smaller,Greater,,-0.301660156,-0.536006944,1,0,0,LeftButton,"[""LeftButton""]",,,,3.265760634,5.6744,space,1.9445,,,,,,,,,,,0,17,17,17,1,1,both_wrong.png,1,RandomDot17.png,No answer,20,,,,,,,,,
,,,,,,,,,,,,,,,,,,,,,,,,,,,,,,,R_3S8p45ndEmC6VLP,1,2024-05-29_11h29.30.138,interaction task,2021.2.3,MacIntel,64.1025641,121583,,,,,,,,,,,,,,,,,Greater,Smaller,,-0.261588542,-0.542213542,1,0,0,LeftButton,"[""LeftButton""]",,,,,,,,,,,,,75.92822759,3.7219,space,50.4937614,5.988,0,18,18,18,1,1,both_wrong.png,3,RandomDot40.png,No answer,21,2.6065,,,,,,,,
,,,,,,,,,,,,,,,,,,,,,,,,,,,,,,,R_3S8p45ndEmC6VLP,1,2024-05-29_11h29.30.138,interaction task,2021.2.3,MacIntel,64.1025641,121583,,,,,,,,,,,,,,,,,Smaller,Greater,,0.345795356,-0.498081597,1,0,0,RightButton,"[""RightButton""]",70,2.3292,space,,,,,,,,,,,,,,,0,19,19,19,1,1,both_wrong.png,0,RandomDot28.png,No answer,19,,2.563,,,,,,,
,,,,,,,,,,,,,,,,,,,,,,,,,,,,,,,R_3S8p45ndEmC6VLP,1,2024-05-29_11h29.30.138,interaction task,2021.2.3,MacIntel,64.1025641,121583,,,,,,,,,,,,,,,,,Greater,Smaller,,0.31188151,-0.458862847,1,0,0,RightButton,"[""RightButton""]",,,,,,,,,,,,,,,,,,0,20,20,20,1,5,both_right.png,10,RandomDot42.png,RightButton,19,,,,,,,,,
,,,,,,,,,,,,,,,,,,,,,,,,,,,,,,,R_3S8p45ndEmC6VLP,1,2024-05-29_11h29.30.138,interaction task,2021.2.3,MacIntel,64.1025641,121583,,,,,,,,,,,,,,,,,Smaller,Greater,,0.307025825,-0.508767361,1,0,0,RightButton,"[""RightButton""]",,,,3.484103733,6.0265,space,5.4926,,,,,,,,,,,0,21,21,21,1,2,only_sub_right.png,1,RandomDot25.png,No answer,19,,,,,,,,,
,,,,,,,,,,,,,,,,,,,,,,,,,,,,,,,R_3S8p45ndEmC6VLP,1,2024-05-29_11h29.30.138,interaction task,2021.2.3,MacIntel,64.1025641,121583,,,,,,,,,,,,,,,,,Smaller,Greater,,-0.232541233,-0.528576389,1,0,0,LeftButton,"[""LeftButton""]",,,,,,,,,,,,,,,,,,0,22,22,22,1,0,both_right.png,0,RandomDot38.png,No answer,21,,,,,,,,,
,,,,,,,,,,,,,,,,,,,,,,,,,,,,,,,R_3S8p45ndEmC6VLP,1,2024-05-29_11h29.30.138,interaction task,2021.2.3,MacIntel,64.1025641,121583,,,,,,,,,,,,,,,,,Greater,Smaller,,-0.232541233,-0.528576389,1,0,0,LeftButton,"[""LeftButton""]",,,,,,,,60,5.4289,space,41,7.8746,,,,,,0,23,23,23,1,2,only_sub_right.png,2,RandomDot33.png,No answer,20,,,1.8,,,,,,
,,,,,,,,,,,,,,,,,,,,,,,,,,,,,,,R_3S8p45ndEmC6VLP,1,2024-05-29_11h29.30.138,interaction task,2021.2.3,MacIntel,64.1025641,121583,,,,,,,,,,,,,,,,,Greater,Smaller,,-0.263503689,-0.530789931,1,0,0,LeftButton,"[""LeftButton""]",,,,2.892550998,3.3281,space,2.1765,,,,,,,,,,,0,24,24,24,1,2,only_sub_right.png,1,RandomDot32.png,No answer,19,,,,,,,,,
,,,,,,,,,,,,,,,,,,,,,,,,,,,,,,,R_3S8p45ndEmC6VLP,1,2024-05-29_11h29.30.138,interaction task,2021.2.3,MacIntel,64.1025641,121583,,,,,,,,,,,,,,,,,Greater,Smaller,,0.295789931,-0.486137153,1,0,0,RightButton,"[""RightButton""]",62,5.9966,space,,,,,,,,,,,,,,,0,25,25,25,1,3,only_sub_wrong.png,0,RandomDot12.png,No answer,20,,4.6286,,,,,,,
,,,,,,,,,,,,,,,,,,,,,,,,,,,,,,,R_3S8p45ndEmC6VLP,1,2024-05-29_11h29.30.138,interaction task,2021.2.3,MacIntel,64.1025641,121583,,,,,,,,,,,,,,,,,Smaller,Greater,,-0.293972439,-0.524748264,1,0,0,LeftButton,"[""LeftButton""]",,,,,,,,60,3.1384,space,39,4.3255,,,,,,0,26,26,26,1,2,only_sub_right.png,2,RandomDot37.png,No answer,19,,,1.2733,,,,,,
,,,,,,,,,,,,,,,,,,,,,,,,,,,,,,,R_3S8p45ndEmC6VLP,1,2024-05-29_11h29.30.138,interaction task,2021.2.3,MacIntel,64.1025641,121583,,,,,,,,,,,,,,,,,Smaller,Greater,,-0.255577257,-0.498880208,1,0,0,LeftButton,"[""LeftButton""]",,,,,,,,21,3.4667,space,39,5.2787,,,,,,0,27,27,27,1,2,only_sub_right.png,2,RandomDot5.png,No answer,21,,,1.6376,,,,,,
,,,,,,,,,,,,,,,,,,,,,,,,,,,,,,,R_3S8p45ndEmC6VLP,1,2024-05-29_11h29.30.138,interaction task,2021.2.3,MacIntel,64.1025641,121583,,,,,,,,,,,,,,,,,Greater,Smaller,,0.29781901,-0.510451389,1,0,0,RightButton,"[""RightButton""]",,,,,,,,,,,,,89.75793087,3.4085,space,8.66707439,4.4217,0,28,28,28,1,2,only_sub_right.png,3,RandomDot20.png,No answer,21,1.1546,,,,,,,,
,,,,,,,,,,,,,,,,,,,,,,,,,,,,,,,R_3S8p45ndEmC6VLP,1,2024-05-29_11h29.30.138,interaction task,2021.2.3,MacIntel,64.1025641,121583,,,,,,,,,,,,,,,,,Smaller,Greater,,0.351367188,-0.495147569,1,0,0,RightButton,"[""RightButton""]",61,5.0592,space,,,,,,,,,,,,,,,0,29,29,29,1,3,only_sub_wrong.png,0,RandomDot2.png,No answer,20,,3.5752,,,,,,,
,,,,,,,,,,,,,,,,,,,,,,,,,,,,,,,R_3S8p45ndEmC6VLP,1,2024-05-29_11h29.30.138,interaction task,2021.2.3,MacIntel,64.1025641,121583,,,,,,,,,,,,,,,,,Greater,Smaller,,-0.253814019,-0.49953125,1,0,0,LeftButton,"[""LeftButton""]",,,,3.296522352,5.396,space,2.2381,,,,,,,,,,,0,30,30,30,1,3,only_sub_wrong.png,1,RandomDot4.png,No answer,20,,,,,,,,,
,,,,,,,,,,,,,,,,,,,,,,,,,,,,,,,R_3S8p45ndEmC6VLP,1,2024-05-29_11h29.30.138,interaction task,2021.2.3,MacIntel,64.1025641,121583,,,,,,,,,,,,,,,,,Smaller,Greater,,0.27726237,-0.504166667,1,0,0,RightButton,"[""RightButton""]",11,2.7588,space,,,,,,,,,,,,,,,0,31,31,31,1,2,only_sub_right.png,0,RandomDot29.png,No answer,20,,3.6058,,,,,,,
,,,,,,,,,,,,,,,,,,,,,,,,,,,,,,,R_3S8p45ndEmC6VLP,1,2024-05-29_11h29.30.138,interaction task,2021.2.3,MacIntel,64.1025641,121583,,,,,,,,,,,,,,,,,Smaller,Greater,,-0.277761502,-0.531397569,1,0,0,LeftButton,"[""LeftButton""]",,,,3.241726345,2.0843,space,1.3846,,,,,,,,,,,0,32,32,32,1,3,only_sub_wrong.png,1,RandomDot40.png,No answer,19,,,,,,,,,
,,,,,,,,,,,,,,,,,,,,,,,,,,,,,,,R_3S8p45ndEmC6VLP,1,2024-05-29_11h29.30.138,interaction task,2021.2.3,MacIntel,64.1025641,121583,,,,,,,,,,,,,,,,,Smaller,Greater,,0.306076389,-0.528029514,1,0,0,RightButton,"[""RightButton""]",16,4.7755,space,,,,,,,,,,,,,,,0,33,33,33,1,1,both_wrong.png,0,RandomDot22.png,No answer,21,,3.3743,,,,,,,
,,,,,,,,,,,,,,,,,,,,,,,,,,,,,,,R_3S8p45ndEmC6VLP,1,2024-05-29_11h29.30.138,interaction task,2021.2.3,MacIntel,64.1025641,121583,,,,,,,,,,,,,,,,,Greater,Smaller,,0.305349392,-0.491571181,1,0,0,RightButton,"[""RightButton""]",,,,,,,,,,,,,68.37932274,3.4217,space,38.29823846,6.0697,0,34,34,34,1,3,only_sub_wrong.png,3,RandomDot34.png,No answer,20,1.1832,,,,,,,,
,,,,,,,,,,,,,,,,,,,,,,,,,,,,,,,R_3S8p45ndEmC6VLP,1,2024-05-29_11h29.30.138,interaction task,2021.2.3,MacIntel,64.1025641,121583,,,,,,,,,,,,,,,,,Smaller,Greater,,0.290174696,-0.513828125,1,0,0,RightButton,"[""RightButton""]",,,,,,,,,,,,,68.8347231,3.6715,space,50.80667789,9.1428,0,35,35,35,1,3,only_sub_wrong.png,3,RandomDot38.png,No answer,20,4.6509,,,,,,,,
,,,,,,,,,,,,,,,,,,,,,,,,,,,,,,,R_3S8p45ndEmC6VLP,1,2024-05-29_11h29.30.138,interaction task,2021.2.3,MacIntel,64.1025641,121583,,,,,,,,,,,,,,,,,Greater,Smaller,,-0.276936849,-0.516484375,1,0,0,LeftButton,"[""LeftButton""]",,,,3.499023438,5.0158,space,1.6765,,,,,,,,,,,0,36,36,36,1,2,only_sub_right.png,1,RandomDot3.png,No answer,19,,,,,,,,,
,,,,,,,,,,,,,,,,,,,,,,,,,,,,,,,R_3S8p45ndEmC6VLP,1,2024-05-29_11h29.30.138,interaction task,2021.2.3,MacIntel,64.1025641,121583,,,,,,,,,,,,,,,,,Smaller,Greater,,0.314013672,-0.491666667,1,0,0,RightButton,"[""RightButton""]",,,,,,,,,,,,,89.79683993,3.6685,space,21.99315201,5.2544,0,37,37,37,1,2,only_sub_right.png,3,RandomDot18.png,No answer,20,1.232,,,,,,,,
,,,,,,,,,,,,,,,,,,,,,,,,,,,,,,,R_3S8p45ndEmC6VLP,1,2024-05-29_11h29.30.138,interaction task,2021.2.3,MacIntel,64.1025641,121583,,,,,,,,,,,,,,,,,Smaller,Greater,,0.283148872,-0.533645833,1,0,0,RightButton,"[""RightButton""]",31,6.2008,space,,,,,,,,,,,,,,,0,38,38,38,1,3,only_sub_wrong.png,0,RandomDot9.png,No answer,19,,5.8249,,,,,,,
,,,,,,,,,,,,,,,,,,,,,,,,,,,,,,,R_3S8p45ndEmC6VLP,1,2024-05-29_11h29.30.138,interaction task,2021.2.3,MacIntel,64.1025641,121583,,,,,,,,,,,,,,,,,Greater,Smaller,,0.285715061,-0.523194444,1,0,0,RightButton,"[""RightButton""]",,,,,,,,61,4.7411,space,40,7.7923,,,,,,0,39,39,39,1,3,only_sub_wrong.png,2,RandomDot39.png,No answer,20,,,0.3103,,,,,,
,,,,,,,,,,,,,,,,,,,,,,,,,,,,,,,R_3S8p45ndEmC6VLP,1,2024-05-29_11h29.30.138,interaction task,2021.2.3,MacIntel,64.1025641,121583,,,,,,,,,,,,,,,,,Smaller,Greater,,0.375499132,-0.582699653,0,0,0,,[],,,,,,,,,,,,,,,,,,0,40,40,40,1,2,only_sub_right.png,0,RandomDot37.png,No answer,21,,,,107,,,,,
,,,,,,,,,,,,,,,,,,,,,,,,,,,,,,,R_3S8p45ndEmC6VLP,1,2024-05-29_11h29.30.138,interaction task,2021.2.3,MacIntel,64.1025641,121583,,,,,,,,,,,,,,,,,Greater,Smaller,,0.267084418,-0.533454861,1,0,0,RightButton,"[""RightButton""]",,,,,,,,60,5.5992,space,34,6.4618,,,,,,0,41,41,41,1,1,both_wrong.png,2,RandomDot1.png,No answer,21,,,0.1875,,,,,,
,,,,,,,,,,,,,,,,,,,,,,,,,,,,,,,R_3S8p45ndEmC6VLP,1,2024-05-29_11h29.30.138,interaction task,2021.2.3,MacIntel,64.1025641,121583,,,,,,,,,,,,,,,,,Smaller,Greater,,-0.276806641,-0.541501736,1,0,0,LeftButton,"[""LeftButton""]",11,4.9796,space,,,,,,,,,,,,,,,,,,,,2,only_sub_right.png,0,RandomDot37.png,No answer,21,,2.6019,,,0,0,0,0,1
