choose_trial,key_resp.keys,key_resp.rt,key_resp_4.keys,key_resp_4.rt,session_trait,slider_face_judge.response,slider_face_judge.rt,key_resp_3.keys,key_resp_3.rt,face_loop.thisRepN,face_loop.thisTrialN,face_loop.thisN,face_loop.thisIndex,face_loop.ran,face_serial,image_name,isCheck,answer,check_question,participant,session,date,expName,psychopyVersion,OS,frameRate,SONAid,session.thisRepN,session.thisTrialN,session.thisN,session.thisIndex,session.ran,session_serial,slider_judge_img
"[0,1,2,3,4,5,6,7,8,9,10,11,12,13,14,15,16,17,18,19,20,21,22,23,24,25,26,27,28,29,30,31,32,33,34,35,36,37,38,39,40,41,42,43,44,45,46,47,48,49,55,50,55]",space,5.05,space,19.0086,competent,3.991041667,12.6863,space,8.8778,0,0,0,49,1,50,image/50.jpg,0,0,,R_3S8p45ndEmC6VLP,2,2024-05-29_11h47.31.434,face trait task,2021.2.3,MacIntel,62.89308176,121583,,,,,,,
,,,,,,2.968776042,5.1921,space,0.4197,0,1,1,10,1,11,image/11.jpg,0,0,,R_3S8p45ndEmC6VLP,2,2024-05-29_11h47.31.434,face trait task,2021.2.3,MacIntel,62.89308176,121583,,,,,,,
,,,,,,1.024453125,4.483,space,1.0064,0,2,2,51,1,51,image/fill_img.png,1,1,Please move the slider all the way to the LEFT to show that you are paying attention.,R_3S8p45ndEmC6VLP,2,2024-05-29_11h47.31.434,face trait task,2021.2.3,MacIntel,62.89308176,121583,,,,,,,
,,,,,,3.986510417,10.627,space,4.4771,0,3,3,44,1,45,image/45.jpg,0,0,,R_3S8p45ndEmC6VLP,2,2024-05-29_11h47.31.434,face trait task,2021.2.3,MacIntel,62.89308176,121583,,,,,,,
,,,,,,5.045442708,5.2194,space,1.2629,0,4,4,36,1,37,image/37.jpg,0,0,,R_3S8p45ndEmC6VLP,2,2024-05-29_11h47.31.434,face trait task,2021.2.3,MacIntel,62.89308176,121583,,,,,,,
,,,,,,6.957890625,2.3927,space,0.3901,0,5,5,52,1,56,image/fill_img.png,1,7,Please move the slider all the way to the RIGHT to show that you are paying attention.,R_3S8p45ndEmC6VLP,2,2024-05-29_11h47.31.434,face trait task,2021.2.3,MacIntel,62.89308176,121583,,,,,,,
,,,,,,5.037552083,7.8351,space,0.3538,0,6,6,5,1,6,image/6.jpg,0,0,,R_3S8p45ndEmC6VLP,2,2024-05-29_11h47.31.434,face trait task,2021.2.3,MacIntel,62.89308176,121583,,,,,,,
,,,,,,5.973359375,3.8053,space,1.0436,0,7,7,46,1,47,image/47.jpg,0,0,,R_3S8p45ndEmC6VLP,2,2024-05-29_11h47.31.434,face trait task,2021.2.3,MacIntel,62.89308176,121583,,,,,,,
,,,,,,4.974661458,3.0507,space,0.4668,0,8,8,45,1,46,image/46.jpg,0,0,,R_3S8p45ndEmC6VLP,2,2024-05-29_11h47.31.434,face trait task,2021.2.3,MacIntel,62.89308176,121583,,,,,,,
,,,,,,5.567578125,7.9226,space,1.5954,0,9,9,13,1,14,image/14.jpg,0,0,,R_3S8p45ndEmC6VLP,2,2024-05-29_11h47.31.434,face trait task,2021.2.3,MacIntel,62.89308176,121583,,,,,,,
,,,,,,4.027708333,4.7003,space,0.3387,0,10,10,7,1,8,image/8.jpg,0,0,,R_3S8p45ndEmC6VLP,2,2024-05-29_11h47.31.434,face trait task,2021.2.3,MacIntel,62.89308176,121583,,,,,,,
,,,,,,2.988645833,5.4616,space,0.4568,0,11,11,39,1,40,image/40.jpg,0,0,,R_3S8p45ndEmC6VLP,2,2024-05-29_11h47.31.434,face trait task,2021.2.3,MacIntel,62.89308176,121583,,,,,,,
,,,,,,6.072916667,3.0879,space,1.4419,0,12,12,27,1,28,image/28.jpg,0,0,,R_3S8p45ndEmC6VLP,2,2024-05-29_11h47.31.434,face trait task,2021.2.3,MacIntel,62.89308176,121583,,,,,,,
,,,,,,6.382682292,5.8415,space,0.5415,0,13,13,12,1,13,image/13.jpg,0,0,,R_3S8p45ndEmC6VLP,2,2024-05-29_11h47.31.434,face trait task,2021.2.3,MacIntel,62.89308176,121583,,,,,,,
,,,,,,5.238125,4.5433,space,0.7009,0,14,14,11,1,12,image/12.jpg,0,0,,R_3S8p45ndEmC6VLP,2,2024-05-29_11h47.31.434,face trait task,2021.2.3,MacIntel,62.89308176,121583,,,,,,,
,,,,,,4.550520833,5.2115,space,1.0666,0,15,15,28,1,29,image/29.jpg,0,0,,R_3S8p45ndEmC6VLP,2,2024-05-29_11h47.31.434,face trait task,2021.2.3,MacIntel,62.89308176,121583,,,,,,,
,,,,,,4.790390625,5.1503,space,0.9229,0,16,16,3,1,4,image/4.jpg,0,0,,R_3S8p45ndEmC6VLP,2,2024-05-29_11h47.31.434,face trait task,2021.2.3,MacIntel,62.89308176,121583,,,,,,,
,,,,,,3.223333333,5.0548,space,1.2531,0,17,17,29,1,30,image/30.jpg,0,0,,R_3S8p45ndEmC6VLP,2,2024-05-29_11h47.31.434,face trait task,2021.2.3,MacIntel,62.89308176,121583,,,,,,,
,,,,,,4.828203125,4.7109,space,0.685,0,18,18,41,1,42,image/42.jpg,0,0,,R_3S8p45ndEmC6VLP,2,2024-05-29_11h47.31.434,face trait task,2021.2.3,MacIntel,62.89308176,121583,,,,,,,
,,,,,,3.382630208,8.2898,space,0.5928,0,19,19,30,1,31,image/31.jpg,0,0,,R_3S8p45ndEmC6VLP,2,2024-05-29_11h47.31.434,face trait task,2021.2.3,MacIntel,62.89308176,121583,,,,,,,
,,,,,,5.447083333,4.6381,space,0.3828,0,20,20,23,1,24,image/24.jpg,0,0,,R_3S8p45ndEmC6VLP,2,2024-05-29_11h47.31.434,face trait task,2021.2.3,MacIntel,62.89308176,121583,,,,,,,
,,,,,,6.327421875,4.2064,space,0.4695,0,21,21,33,1,34,image/34.jpg,0,0,,R_3S8p45ndEmC6VLP,2,2024-05-29_11h47.31.434,face trait task,2021.2.3,MacIntel,62.89308176,121583,,,,,,,
,,,,,,3.530911458,3.3058,space,1.0609,0,22,22,22,1,23,image/23.jpg,0,0,,R_3S8p45ndEmC6VLP,2,2024-05-29_11h47.31.434,face trait task,2021.2.3,MacIntel,62.89308176,121583,,,,,,,
,,,,,,4.429296875,5.322,space,0.4832,0,23,23,18,1,19,image/19.jpg,0,0,,R_3S8p45ndEmC6VLP,2,2024-05-29_11h47.31.434,face trait task,2021.2.3,MacIntel,62.89308176,121583,,,,,,,
,,,,,,4.178411458,4.1595,space,0.8079,0,24,24,34,1,35,image/35.jpg,0,0,,R_3S8p45ndEmC6VLP,2,2024-05-29_11h47.31.434,face trait task,2021.2.3,MacIntel,62.89308176,121583,,,,,,,
,,,,,,4.9734375,5.3527,space,0.3372,0,25,25,8,1,9,image/9.jpg,0,0,,R_3S8p45ndEmC6VLP,2,2024-05-29_11h47.31.434,face trait task,2021.2.3,MacIntel,62.89308176,121583,,,,,,,
,,,,,,4.522447917,5.6084,space,0.6026,0,26,26,2,1,3,image/3.jpg,0,0,,R_3S8p45ndEmC6VLP,2,2024-05-29_11h47.31.434,face trait task,2021.2.3,MacIntel,62.89308176,121583,,,,,,,
,,,,,,4.438671875,4.7084,space,0.7009,0,27,27,15,1,16,image/16.jpg,0,0,,R_3S8p45ndEmC6VLP,2,2024-05-29_11h47.31.434,face trait task,2021.2.3,MacIntel,62.89308176,121583,,,,,,,
,,,,,,3.279661458,4.7363,space,0.7787,0,28,28,4,1,5,image/5.jpg,0,0,,R_3S8p45ndEmC6VLP,2,2024-05-29_11h47.31.434,face trait task,2021.2.3,MacIntel,62.89308176,121583,,,,,,,
,,,,,,4.77484375,13.2507,space,5.416,0,29,29,9,1,10,image/10.jpg,0,0,,R_3S8p45ndEmC6VLP,2,2024-05-29_11h47.31.434,face trait task,2021.2.3,MacIntel,62.89308176,121583,,,,,,,
,,,,,,2.479713542,7.7261,space,0.2001,0,30,30,38,1,39,image/39.jpg,0,0,,R_3S8p45ndEmC6VLP,2,2024-05-29_11h47.31.434,face trait task,2021.2.3,MacIntel,62.89308176,121583,,,,,,,
,,,,,,3.312734375,2.5718,space,1.1419,0,31,31,16,1,17,image/17.jpg,0,0,,R_3S8p45ndEmC6VLP,2,2024-05-29_11h47.31.434,face trait task,2021.2.3,MacIntel,62.89308176,121583,,,,,,,
,,,,,,5.381875,5.7928,space,1.1191,0,32,32,26,1,27,image/27.jpg,0,0,,R_3S8p45ndEmC6VLP,2,2024-05-29_11h47.31.434,face trait task,2021.2.3,MacIntel,62.89308176,121583,,,,,,,
,,,,,,2.426875,3.4939,space,0.3942,0,33,33,32,1,33,image/33.jpg,0,0,,R_3S8p45ndEmC6VLP,2,2024-05-29_11h47.31.434,face trait task,2021.2.3,MacIntel,62.89308176,121583,,,,,,,
,,,,,,5.2625,2.555,space,0.2757,0,34,34,19,1,20,image/20.jpg,0,0,,R_3S8p45ndEmC6VLP,2,2024-05-29_11h47.31.434,face trait task,2021.2.3,MacIntel,62.89308176,121583,,,,,,,
,,,,,,5.013333333,3.0221,space,0.2415,0,35,35,17,1,18,image/18.jpg,0,0,,R_3S8p45ndEmC6VLP,2,2024-05-29_11h47.31.434,face trait task,2021.2.3,MacIntel,62.89308176,121583,,,,,,,
,,,,,,4.464036458,2.9705,space,0.3596,0,36,36,21,1,22,image/22.jpg,0,0,,R_3S8p45ndEmC6VLP,2,2024-05-29_11h47.31.434,face trait task,2021.2.3,MacIntel,62.89308176,121583,,,,,,,
,,,,,,4.464036458,2.2794,space,1.6726,0,37,37,31,1,32,image/32.jpg,0,0,,R_3S8p45ndEmC6VLP,2,2024-05-29_11h47.31.434,face trait task,2021.2.3,MacIntel,62.89308176,121583,,,,,,,
,,,,,,3.981953125,4.0393,space,0.3892,0,38,38,40,1,41,image/41.jpg,0,0,,R_3S8p45ndEmC6VLP,2,2024-05-29_11h47.31.434,face trait task,2021.2.3,MacIntel,62.89308176,121583,,,,,,,
,,,,,,4.244869792,2.2774,space,0.3837,0,39,39,14,1,15,image/15.jpg,0,0,,R_3S8p45ndEmC6VLP,2,2024-05-29_11h47.31.434,face trait task,2021.2.3,MacIntel,62.89308176,121583,,,,,,,
,,,,,,6.9271875,3.0409,space,0.3046,0,40,40,50,1,56,image/fill_img.png,1,7,Please move the slider all the way to the RIGHT to show that you are paying attention.,R_3S8p45ndEmC6VLP,2,2024-05-29_11h47.31.434,face trait task,2021.2.3,MacIntel,62.89308176,121583,,,,,,,
,,,,,,3.303567708,3.5174,space,0.3634,0,41,41,47,1,48,image/48.jpg,0,0,,R_3S8p45ndEmC6VLP,2,2024-05-29_11h47.31.434,face trait task,2021.2.3,MacIntel,62.89308176,121583,,,,,,,
,,,,,,3.693229167,5.8212,space,0.3946,0,42,42,35,1,36,image/36.jpg,0,0,,R_3S8p45ndEmC6VLP,2,2024-05-29_11h47.31.434,face trait task,2021.2.3,MacIntel,62.89308176,121583,,,,,,,
,,,,,,4.307057292,2.9459,space,1.8269,0,43,43,1,1,2,image/2.jpg,0,0,,R_3S8p45ndEmC6VLP,2,2024-05-29_11h47.31.434,face trait task,2021.2.3,MacIntel,62.89308176,121583,,,,,,,
,,,,,,4.595052083,3.098,space,0.4087,0,44,44,43,1,44,image/44.jpg,0,0,,R_3S8p45ndEmC6VLP,2,2024-05-29_11h47.31.434,face trait task,2021.2.3,MacIntel,62.89308176,121583,,,,,,,
,,,,,,3.38046875,2.2389,space,0.4064,0,45,45,48,1,49,image/49.jpg,0,0,,R_3S8p45ndEmC6VLP,2,2024-05-29_11h47.31.434,face trait task,2021.2.3,MacIntel,62.89308176,121583,,,,,,,
,,,,,,3.645833333,4.7801,space,0.3256,0,46,46,0,1,1,image/1.jpg,0,0,,R_3S8p45ndEmC6VLP,2,2024-05-29_11h47.31.434,face trait task,2021.2.3,MacIntel,62.89308176,121583,,,,,,,
,,,,,,4.807682292,6.7402,space,3.2528,0,47,47,6,1,7,image/7.jpg,0,0,,R_3S8p45ndEmC6VLP,2,2024-05-29_11h47.31.434,face trait task,2021.2.3,MacIntel,62.89308176,121583,,,,,,,
,,,,,,6.026015625,4.381,space,1.7689,0,48,48,20,1,21,image/21.jpg,0,0,,R_3S8p45ndEmC6VLP,2,2024-05-29_11h47.31.434,face trait task,2021.2.3,MacIntel,62.89308176,121583,,,,,,,
,,,,,,5.333854167,2.7269,space,0.4741,0,49,49,42,1,43,image/43.jpg,0,0,,R_3S8p45ndEmC6VLP,2,2024-05-29_11h47.31.434,face trait task,2021.2.3,MacIntel,62.89308176,121583,,,,,,,
,,,,,,5.216276042,5.3737,space,1.7568,0,50,50,25,1,26,image/26.jpg,0,0,,R_3S8p45ndEmC6VLP,2,2024-05-29_11h47.31.434,face trait task,2021.2.3,MacIntel,62.89308176,121583,,,,,,,
,,,,,,4.444375,5.4756,space,0.4347,0,51,51,24,1,25,image/25.jpg,0,0,,R_3S8p45ndEmC6VLP,2,2024-05-29_11h47.31.434,face trait task,2021.2.3,MacIntel,62.89308176,121583,,,,,,,
,,,,,,3.635364583,3.1206,space,0.4035,0,52,52,37,1,38,image/38.jpg,0,0,,R_3S8p45ndEmC6VLP,2,2024-05-29_11h47.31.434,face trait task,2021.2.3,MacIntel,62.89308176,121583,,,,,,,
,,,,,,,,,,,,,,,,,,,,R_3S8p45ndEmC6VLP,2,2024-05-29_11h47.31.434,face trait task,2021.2.3,MacIntel,62.89308176,121583,0,0,0,1,1,1,competent.png
,,,,,trustworthy,2.990026042,10.355,space,0.403,0,0,0,33,1,34,image/34.jpg,0,0,,R_3S8p45ndEmC6VLP,2,2024-05-29_11h47.31.434,face trait task,2021.2.3,MacIntel,62.89308176,121583,,,,,,,
,,,,,,3.990651042,5.3091,space,0.8438,0,1,1,8,1,9,image/9.jpg,0,0,,R_3S8p45ndEmC6VLP,2,2024-05-29_11h47.31.434,face trait task,2021.2.3,MacIntel,62.89308176,121583,,,,,,,
,,,,,,1.012369792,2.5738,space,0.3229,0,2,2,51,1,51,image/fill_img.png,1,1,Please move the slider all the way to the LEFT to show that you are paying attention.,R_3S8p45ndEmC6VLP,2,2024-05-29_11h47.31.434,face trait task,2021.2.3,MacIntel,62.89308176,121583,,,,,,,
,,,,,,2.982838542,5.6053,space,0.3479,0,3,3,19,1,20,image/20.jpg,0,0,,R_3S8p45ndEmC6VLP,2,2024-05-29_11h47.31.434,face trait task,2021.2.3,MacIntel,62.89308176,121583,,,,,,,
,,,,,,5.016484375,4.6023,space,0.9685,0,4,4,20,1,21,image/21.jpg,0,0,,R_3S8p45ndEmC6VLP,2,2024-05-29_11h47.31.434,face trait task,2021.2.3,MacIntel,62.89308176,121583,,,,,,,
,,,,,,4.002786458,2.3769,space,0.5019,0,5,5,46,1,47,image/47.jpg,0,0,,R_3S8p45ndEmC6VLP,2,2024-05-29_11h47.31.434,face trait task,2021.2.3,MacIntel,62.89308176,121583,,,,,,,
,,,,,,1.994895833,10.8071,space,5.4218,0,6,6,37,1,38,image/38.jpg,0,0,,R_3S8p45ndEmC6VLP,2,2024-05-29_11h47.31.434,face trait task,2021.2.3,MacIntel,62.89308176,121583,,,,,,,
,,,,,,1.983177083,3.1293,space,0.5661,0,7,7,10,1,11,image/11.jpg,0,0,,R_3S8p45ndEmC6VLP,2,2024-05-29_11h47.31.434,face trait task,2021.2.3,MacIntel,62.89308176,121583,,,,,,,
,,,,,,2.015703125,3.5256,space,1.4432,0,8,8,24,1,25,image/25.jpg,0,0,,R_3S8p45ndEmC6VLP,2,2024-05-29_11h47.31.434,face trait task,2021.2.3,MacIntel,62.89308176,121583,,,,,,,
,,,,,,3.002421875,4.4575,space,0.7449,0,9,9,22,1,23,image/23.jpg,0,0,,R_3S8p45ndEmC6VLP,2,2024-05-29_11h47.31.434,face trait task,2021.2.3,MacIntel,62.89308176,121583,,,,,,,
,,,,,,1.968567708,3.5022,space,0.4879,0,10,10,14,1,15,image/15.jpg,0,0,,R_3S8p45ndEmC6VLP,2,2024-05-29_11h47.31.434,face trait task,2021.2.3,MacIntel,62.89308176,121583,,,,,,,
,,,,,,3.017864583,7.2189,space,0.5183,0,11,11,2,1,3,image/3.jpg,0,0,,R_3S8p45ndEmC6VLP,2,2024-05-29_11h47.31.434,face trait task,2021.2.3,MacIntel,62.89308176,121583,,,,,,,
,,,,,,1.034114583,5.0839,space,0.4481,0,12,12,38,1,39,image/39.jpg,0,0,,R_3S8p45ndEmC6VLP,2,2024-05-29_11h47.31.434,face trait task,2021.2.3,MacIntel,62.89308176,121583,,,,,,,
,,,,,,1.008802083,3.5428,space,0.4919,0,13,13,39,1,40,image/40.jpg,0,0,,R_3S8p45ndEmC6VLP,2,2024-05-29_11h47.31.434,face trait task,2021.2.3,MacIntel,62.89308176,121583,,,,,,,
,,,,,,1.008802083,1.7905,space,0.551,0,14,14,27,1,28,image/28.jpg,0,0,,R_3S8p45ndEmC6VLP,2,2024-05-29_11h47.31.434,face trait task,2021.2.3,MacIntel,62.89308176,121583,,,,,,,
,,,,,,4.999479167,5.5291,space,3.0317,0,15,15,7,1,8,image/8.jpg,0,0,,R_3S8p45ndEmC6VLP,2,2024-05-29_11h47.31.434,face trait task,2021.2.3,MacIntel,62.89308176,121583,,,,,,,
,,,,,,5.984140625,3.512,space,2.91,0,16,16,35,1,36,image/36.jpg,0,0,,R_3S8p45ndEmC6VLP,2,2024-05-29_11h47.31.434,face trait task,2021.2.3,MacIntel,62.89308176,121583,,,,,,,
,,,,,,5.009713542,4.6746,space,1.443,0,17,17,29,1,30,image/30.jpg,0,0,,R_3S8p45ndEmC6VLP,2,2024-05-29_11h47.31.434,face trait task,2021.2.3,MacIntel,62.89308176,121583,,,,,,,
,,,,,,6.990546875,2.0254,space,1.0191,0,18,18,52,1,56,image/fill_img.png,1,7,Please move the slider all the way to the RIGHT to show that you are paying attention.,R_3S8p45ndEmC6VLP,2,2024-05-29_11h47.31.434,face trait task,2021.2.3,MacIntel,62.89308176,121583,,,,,,,
,,,,,,5.997135417,4.5926,space,0.5176,0,19,19,48,1,49,image/49.jpg,0,0,,R_3S8p45ndEmC6VLP,2,2024-05-29_11h47.31.434,face trait task,2021.2.3,MacIntel,62.89308176,121583,,,,,,,
,,,,,,5.004296875,3.8713,space,0.9929,0,20,20,12,1,13,image/13.jpg,0,0,,R_3S8p45ndEmC6VLP,2,2024-05-29_11h47.31.434,face trait task,2021.2.3,MacIntel,62.89308176,121583,,,,,,,
,,,,,,1.991380208,7.0546,space,0.4192,0,21,21,45,1,46,image/46.jpg,0,0,,R_3S8p45ndEmC6VLP,2,2024-05-29_11h47.31.434,face trait task,2021.2.3,MacIntel,62.89308176,121583,,,,,,,
,,,,,,5.980546875,2.815,space,0.567,0,22,22,32,1,33,image/33.jpg,0,0,,R_3S8p45ndEmC6VLP,2,2024-05-29_11h47.31.434,face trait task,2021.2.3,MacIntel,62.89308176,121583,,,,,,,
,,,,,,5.99484375,2.2205,space,0.6899,0,23,23,17,1,18,image/18.jpg,0,0,,R_3S8p45ndEmC6VLP,2,2024-05-29_11h47.31.434,face trait task,2021.2.3,MacIntel,62.89308176,121583,,,,,,,
,,,,,,3.996536458,5.0605,space,0.2823,0,24,24,4,1,5,image/5.jpg,0,0,,R_3S8p45ndEmC6VLP,2,2024-05-29_11h47.31.434,face trait task,2021.2.3,MacIntel,62.89308176,121583,,,,,,,
,,,,,,5.001197917,4.5556,space,0.3681,0,25,25,9,1,10,image/10.jpg,0,0,,R_3S8p45ndEmC6VLP,2,2024-05-29_11h47.31.434,face trait task,2021.2.3,MacIntel,62.89308176,121583,,,,,,,
,,,,,,4.993645833,3.3234,space,1.2368,0,26,26,3,1,4,image/4.jpg,0,0,,R_3S8p45ndEmC6VLP,2,2024-05-29_11h47.31.434,face trait task,2021.2.3,MacIntel,62.89308176,121583,,,,,,,
,,,,,,4.97125,3.7689,space,0.5363,0,27,27,6,1,7,image/7.jpg,0,0,,R_3S8p45ndEmC6VLP,2,2024-05-29_11h47.31.434,face trait task,2021.2.3,MacIntel,62.89308176,121583,,,,,,,
,,,,,,3.998645833,3.1934,space,0.2501,0,28,28,18,1,19,image/19.jpg,0,0,,R_3S8p45ndEmC6VLP,2,2024-05-29_11h47.31.434,face trait task,2021.2.3,MacIntel,62.89308176,121583,,,,,,,
,,,,,,4.01984375,2.314,space,0.7502,0,29,29,5,1,6,image/6.jpg,0,0,,R_3S8p45ndEmC6VLP,2,2024-05-29_11h47.31.434,face trait task,2021.2.3,MacIntel,62.89308176,121583,,,,,,,
,,,,,,2.973541667,5.2176,space,2.2215,0,30,30,21,1,22,image/22.jpg,0,0,,R_3S8p45ndEmC6VLP,2,2024-05-29_11h47.31.434,face trait task,2021.2.3,MacIntel,62.89308176,121583,,,,,,,
,,,,,,4.997291667,5.1505,space,0.5885,0,31,31,41,1,42,image/42.jpg,0,0,,R_3S8p45ndEmC6VLP,2,2024-05-29_11h47.31.434,face trait task,2021.2.3,MacIntel,62.89308176,121583,,,,,,,
,,,,,,3.984817708,6.0426,space,0.4279,0,32,32,34,1,35,image/35.jpg,0,0,,R_3S8p45ndEmC6VLP,2,2024-05-29_11h47.31.434,face trait task,2021.2.3,MacIntel,62.89308176,121583,,,,,,,
,,,,,,4.981927083,5.2262,space,0.5779,0,33,33,15,1,16,image/16.jpg,0,0,,R_3S8p45ndEmC6VLP,2,2024-05-29_11h47.31.434,face trait task,2021.2.3,MacIntel,62.89308176,121583,,,,,,,
,,,,,,4.9975,5.3361,space,0.282,0,34,34,11,1,12,image/12.jpg,0,0,,R_3S8p45ndEmC6VLP,2,2024-05-29_11h47.31.434,face trait task,2021.2.3,MacIntel,62.89308176,121583,,,,,,,
,,,,,,3.994921875,2.7937,space,1.785,0,35,35,16,1,17,image/17.jpg,0,0,,R_3S8p45ndEmC6VLP,2,2024-05-29_11h47.31.434,face trait task,2021.2.3,MacIntel,62.89308176,121583,,,,,,,
,,,,,,2.999427083,2.8212,space,1.4681,0,36,36,31,1,32,image/32.jpg,0,0,,R_3S8p45ndEmC6VLP,2,2024-05-29_11h47.31.434,face trait task,2021.2.3,MacIntel,62.89308176,121583,,,,,,,
,,,,,,4.01421875,4.4215,space,0.3387,0,37,37,1,1,2,image/2.jpg,0,0,,R_3S8p45ndEmC6VLP,2,2024-05-29_11h47.31.434,face trait task,2021.2.3,MacIntel,62.89308176,121583,,,,,,,
,,,,,,2.953359375,4.2311,space,2.326,0,38,38,26,1,27,image/27.jpg,0,0,,R_3S8p45ndEmC6VLP,2,2024-05-29_11h47.31.434,face trait task,2021.2.3,MacIntel,62.89308176,121583,,,,,,,
,,,,,,1.008046875,2.83,space,0.4663,0,39,39,30,1,31,image/31.jpg,0,0,,R_3S8p45ndEmC6VLP,2,2024-05-29_11h47.31.434,face trait task,2021.2.3,MacIntel,62.89308176,121583,,,,,,,
,,,,,,3.004895833,3.305,space,0.9679,0,40,40,42,1,43,image/43.jpg,0,0,,R_3S8p45ndEmC6VLP,2,2024-05-29_11h47.31.434,face trait task,2021.2.3,MacIntel,62.89308176,121583,,,,,,,
,,,,,,1.006770833,4.2389,space,1.9856,0,41,41,40,1,41,image/41.jpg,0,0,,R_3S8p45ndEmC6VLP,2,2024-05-29_11h47.31.434,face trait task,2021.2.3,MacIntel,62.89308176,121583,,,,,,,
,,,,,,3.002161458,6.4712,space,2.9271,0,42,42,49,1,50,image/50.jpg,0,0,,R_3S8p45ndEmC6VLP,2,2024-05-29_11h47.31.434,face trait task,2021.2.3,MacIntel,62.89308176,121583,,,,,,,
,,,,,,2.96109375,6.1513,space,0.3874,0,43,43,25,1,26,image/26.jpg,0,0,,R_3S8p45ndEmC6VLP,2,2024-05-29_11h47.31.434,face trait task,2021.2.3,MacIntel,62.89308176,121583,,,,,,,
,,,,,,4.011666667,4.2707,space,0.915,0,44,44,36,1,37,image/37.jpg,0,0,,R_3S8p45ndEmC6VLP,2,2024-05-29_11h47.31.434,face trait task,2021.2.3,MacIntel,62.89308176,121583,,,,,,,
,,,,,,4.249401042,5.295,space,0.3584,0,45,45,23,1,24,image/24.jpg,0,0,,R_3S8p45ndEmC6VLP,2,2024-05-29_11h47.31.434,face trait task,2021.2.3,MacIntel,62.89308176,121583,,,,,,,
,,,,,,1.985598958,3.8616,space,0.4678,0,46,46,0,1,1,image/1.jpg,0,0,,R_3S8p45ndEmC6VLP,2,2024-05-29_11h47.31.434,face trait task,2021.2.3,MacIntel,62.89308176,121583,,,,,,,
,,,,,,1.993333333,4.0961,space,0.3534,0,47,47,44,1,45,image/45.jpg,0,0,,R_3S8p45ndEmC6VLP,2,2024-05-29_11h47.31.434,face trait task,2021.2.3,MacIntel,62.89308176,121583,,,,,,,
,,,,,,3.510572917,4.0224,space,0.404,0,48,48,13,1,14,image/14.jpg,0,0,,R_3S8p45ndEmC6VLP,2,2024-05-29_11h47.31.434,face trait task,2021.2.3,MacIntel,62.89308176,121583,,,,,,,
,,,,,,6.945859375,1.8952,space,1.3583,0,49,49,50,1,56,image/fill_img.png,1,7,Please move the slider all the way to the RIGHT to show that you are paying attention.,R_3S8p45ndEmC6VLP,2,2024-05-29_11h47.31.434,face trait task,2021.2.3,MacIntel,62.89308176,121583,,,,,,,
,,,,,,5.285182292,4.6746,space,0.3691,0,50,50,28,1,29,image/29.jpg,0,0,,R_3S8p45ndEmC6VLP,2,2024-05-29_11h47.31.434,face trait task,2021.2.3,MacIntel,62.89308176,121583,,,,,,,
,,,,,,1.974739583,4.4022,space,0.2971,0,51,51,47,1,48,image/48.jpg,0,0,,R_3S8p45ndEmC6VLP,2,2024-05-29_11h47.31.434,face trait task,2021.2.3,MacIntel,62.89308176,121583,,,,,,,
,,,,,,4.988489583,3.1046,space,0.8352,0,52,52,43,1,44,image/44.jpg,0,0,,R_3S8p45ndEmC6VLP,2,2024-05-29_11h47.31.434,face trait task,2021.2.3,MacIntel,62.89308176,121583,,,,,,,
,,,,,,,,,,,,,,,,,,,,R_3S8p45ndEmC6VLP,2,2024-05-29_11h47.31.434,face trait task,2021.2.3,MacIntel,62.89308176,121583,0,1,1,2,1,2,trustworthy.png
,,,,,critical,5.978046875,4.4132,space,1.0771,0,0,0,25,1,26,image/26.jpg,0,0,,R_3S8p45ndEmC6VLP,2,2024-05-29_11h47.31.434,face trait task,2021.2.3,MacIntel,62.89308176,121583,,,,,,,
,,,,,,6.963307292,3.425,space,0.9848,0,1,1,30,1,31,image/31.jpg,0,0,,R_3S8p45ndEmC6VLP,2,2024-05-29_11h47.31.434,face trait task,2021.2.3,MacIntel,62.89308176,121583,,,,,,,
,,,,,,4.979635417,4.7536,space,0.4688,0,2,2,40,1,41,image/41.jpg,0,0,,R_3S8p45ndEmC6VLP,2,2024-05-29_11h47.31.434,face trait task,2021.2.3,MacIntel,62.89308176,121583,,,,,,,
,,,,,,4.014322917,3.3219,space,0.3891,0,3,3,28,1,29,image/29.jpg,0,0,,R_3S8p45ndEmC6VLP,2,2024-05-29_11h47.31.434,face trait task,2021.2.3,MacIntel,62.89308176,121583,,,,,,,
,,,,,,2.014010417,2.9716,space,0.8393,0,4,4,37,1,38,image/38.jpg,0,0,,R_3S8p45ndEmC6VLP,2,2024-05-29_11h47.31.434,face trait task,2021.2.3,MacIntel,62.89308176,121583,,,,,,,
,,,,,,6.050546875,2.7727,space,0.593,0,5,5,45,1,46,image/46.jpg,0,0,,R_3S8p45ndEmC6VLP,2,2024-05-29_11h47.31.434,face trait task,2021.2.3,MacIntel,62.89308176,121583,,,,,,,
,,,,,,6.946197917,2.7532,space,0.3088,0,6,6,50,1,56,image/fill_img.png,1,7,Please move the slider all the way to the RIGHT to show that you are paying attention.,R_3S8p45ndEmC6VLP,2,2024-05-29_11h47.31.434,face trait task,2021.2.3,MacIntel,62.89308176,121583,,,,,,,
,,,,,,2.985338542,2.8601,space,1.8233,0,7,7,41,1,42,image/42.jpg,0,0,,R_3S8p45ndEmC6VLP,2,2024-05-29_11h47.31.434,face trait task,2021.2.3,MacIntel,62.89308176,121583,,,,,,,
,,,,,,6.955911458,1.9723,space,0.8995,0,8,8,52,1,56,image/fill_img.png,1,7,Please move the slider all the way to the RIGHT to show that you are paying attention.,R_3S8p45ndEmC6VLP,2,2024-05-29_11h47.31.434,face trait task,2021.2.3,MacIntel,62.89308176,121583,,,,,,,
,,,,,,2.932447917,4.4507,space,0.678,0,9,9,20,1,21,image/21.jpg,0,0,,R_3S8p45ndEmC6VLP,2,2024-05-29_11h47.31.434,face trait task,2021.2.3,MacIntel,62.89308176,121583,,,,,,,
,,,,,,6.004609375,4.8179,space,0.4375,0,10,10,21,1,22,image/22.jpg,0,0,,R_3S8p45ndEmC6VLP,2,2024-05-29_11h47.31.434,face trait task,2021.2.3,MacIntel,62.89308176,121583,,,,,,,
,,,,,,1.010104167,13.2221,space,0.4673,0,11,11,6,1,7,image/7.jpg,0,0,,R_3S8p45ndEmC6VLP,2,2024-05-29_11h47.31.434,face trait task,2021.2.3,MacIntel,62.89308176,121583,,,,,,,
,,,,,,1.001484375,2.8098,space,0.3006,0,12,12,24,1,25,image/25.jpg,0,0,,R_3S8p45ndEmC6VLP,2,2024-05-29_11h47.31.434,face trait task,2021.2.3,MacIntel,62.89308176,121583,,,,,,,
,,,,,,6.988098958,3.2591,space,0.3346,0,13,13,16,1,17,image/17.jpg,0,0,,R_3S8p45ndEmC6VLP,2,2024-05-29_11h47.31.434,face trait task,2021.2.3,MacIntel,62.89308176,121583,,,,,,,
,,,,,,1.010651042,3.458,space,0.3501,0,14,14,11,1,12,image/12.jpg,0,0,,R_3S8p45ndEmC6VLP,2,2024-05-29_11h47.31.434,face trait task,2021.2.3,MacIntel,62.89308176,121583,,,,,,,
,,,,,,5.990807292,2.2602,space,0.5558,0,15,15,15,1,16,image/16.jpg,0,0,,R_3S8p45ndEmC6VLP,2,2024-05-29_11h47.31.434,face trait task,2021.2.3,MacIntel,62.89308176,121583,,,,,,,
,,,,,,4.979817708,3.0228,space,0.4184,0,16,16,33,1,34,image/34.jpg,0,0,,R_3S8p45ndEmC6VLP,2,2024-05-29_11h47.31.434,face trait task,2021.2.3,MacIntel,62.89308176,121583,,,,,,,
,,,,,,6.981927083,3.38,space,1.7336,0,17,17,27,1,28,image/28.jpg,0,0,,R_3S8p45ndEmC6VLP,2,2024-05-29_11h47.31.434,face trait task,2021.2.3,MacIntel,62.89308176,121583,,,,,,,
,,,,,,4.968984375,4.8384,space,1.669,0,18,18,9,1,10,image/10.jpg,0,0,,R_3S8p45ndEmC6VLP,2,2024-05-29_11h47.31.434,face trait task,2021.2.3,MacIntel,62.89308176,121583,,,,,,,
,,,,,,4.964270833,1.7632,space,0.4722,0,19,19,19,1,20,image/20.jpg,0,0,,R_3S8p45ndEmC6VLP,2,2024-05-29_11h47.31.434,face trait task,2021.2.3,MacIntel,62.89308176,121583,,,,,,,
,,,,,,6.05015625,2.4886,space,0.4334,0,20,20,29,1,30,image/30.jpg,0,0,,R_3S8p45ndEmC6VLP,2,2024-05-29_11h47.31.434,face trait task,2021.2.3,MacIntel,62.89308176,121583,,,,,,,
,,,,,,6.971744792,2.3214,space,0.607,0,21,21,26,1,27,image/27.jpg,0,0,,R_3S8p45ndEmC6VLP,2,2024-05-29_11h47.31.434,face trait task,2021.2.3,MacIntel,62.89308176,121583,,,,,,,
,,,,,,5.000390625,2.7885,space,0.3745,0,22,22,8,1,9,image/9.jpg,0,0,,R_3S8p45ndEmC6VLP,2,2024-05-29_11h47.31.434,face trait task,2021.2.3,MacIntel,62.89308176,121583,,,,,,,
,,,,,,6.974479167,2.7712,space,1.3097,0,23,23,4,1,5,image/5.jpg,0,0,,R_3S8p45ndEmC6VLP,2,2024-05-29_11h47.31.434,face trait task,2021.2.3,MacIntel,62.89308176,121583,,,,,,,
,,,,,,1.021640625,2.9426,space,0.2871,0,24,24,51,1,51,image/fill_img.png,1,1,Please move the slider all the way to the LEFT to show that you are paying attention.,R_3S8p45ndEmC6VLP,2,2024-05-29_11h47.31.434,face trait task,2021.2.3,MacIntel,62.89308176,121583,,,,,,,
,,,,,,1.924765625,2.7365,space,0.9095,0,25,25,35,1,36,image/36.jpg,0,0,,R_3S8p45ndEmC6VLP,2,2024-05-29_11h47.31.434,face trait task,2021.2.3,MacIntel,62.89308176,121583,,,,,,,
,,,,,,1.034192708,3.605,space,0.4722,0,26,26,44,1,45,image/45.jpg,0,0,,R_3S8p45ndEmC6VLP,2,2024-05-29_11h47.31.434,face trait task,2021.2.3,MacIntel,62.89308176,121583,,,,,,,
,,,,,,2.984739583,4.1748,space,0.3595,0,27,27,31,1,32,image/32.jpg,0,0,,R_3S8p45ndEmC6VLP,2,2024-05-29_11h47.31.434,face trait task,2021.2.3,MacIntel,62.89308176,121583,,,,,,,
,,,,,,1.02734375,2.1984,space,0.3511,0,28,28,49,1,50,image/50.jpg,0,0,,R_3S8p45ndEmC6VLP,2,2024-05-29_11h47.31.434,face trait task,2021.2.3,MacIntel,62.89308176,121583,,,,,,,
,,,,,,6.992942708,4.3285,space,0.9767,0,29,29,36,1,37,image/37.jpg,0,0,,R_3S8p45ndEmC6VLP,2,2024-05-29_11h47.31.434,face trait task,2021.2.3,MacIntel,62.89308176,121583,,,,,,,
,,,,,,6.992942708,2.1945,space,0.3497,0,30,30,7,1,8,image/8.jpg,0,0,,R_3S8p45ndEmC6VLP,2,2024-05-29_11h47.31.434,face trait task,2021.2.3,MacIntel,62.89308176,121583,,,,,,,
,,,,,,3.932213542,2.5722,space,0.5932,0,31,31,18,1,19,image/19.jpg,0,0,,R_3S8p45ndEmC6VLP,2,2024-05-29_11h47.31.434,face trait task,2021.2.3,MacIntel,62.89308176,121583,,,,,,,
,,,,,,2.99953125,2.327,space,0.5251,0,32,32,12,1,13,image/13.jpg,0,0,,R_3S8p45ndEmC6VLP,2,2024-05-29_11h47.31.434,face trait task,2021.2.3,MacIntel,62.89308176,121583,,,,,,,
,,,,,,2.020338542,2.6328,space,0.958,0,33,33,2,1,3,image/3.jpg,0,0,,R_3S8p45ndEmC6VLP,2,2024-05-29_11h47.31.434,face trait task,2021.2.3,MacIntel,62.89308176,121583,,,,,,,
,,,,,,1.023541667,3.6104,space,0.7489,0,34,34,32,1,33,image/33.jpg,0,0,,R_3S8p45ndEmC6VLP,2,2024-05-29_11h47.31.434,face trait task,2021.2.3,MacIntel,62.89308176,121583,,,,,,,
,,,,,,2.012942708,3.0615,space,0.5482,0,35,35,43,1,44,image/44.jpg,0,0,,R_3S8p45ndEmC6VLP,2,2024-05-29_11h47.31.434,face trait task,2021.2.3,MacIntel,62.89308176,121583,,,,,,,
,,,,,,1.018697917,2.3237,space,0.4561,0,36,36,48,1,49,image/49.jpg,0,0,,R_3S8p45ndEmC6VLP,2,2024-05-29_11h47.31.434,face trait task,2021.2.3,MacIntel,62.89308176,121583,,,,,,,
,,,,,,1.624635417,5.1422,space,0.2395,0,37,37,39,1,40,image/40.jpg,0,0,,R_3S8p45ndEmC6VLP,2,2024-05-29_11h47.31.434,face trait task,2021.2.3,MacIntel,62.89308176,121583,,,,,,,
,,,,,,1.501041667,4.5052,space,0.2166,0,38,38,14,1,15,image/15.jpg,0,0,,R_3S8p45ndEmC6VLP,2,2024-05-29_11h47.31.434,face trait task,2021.2.3,MacIntel,62.89308176,121583,,,,,,,
,,,,,,3.979817708,5.3435,space,0.3495,0,39,39,42,1,43,image/43.jpg,0,0,,R_3S8p45ndEmC6VLP,2,2024-05-29_11h47.31.434,face trait task,2021.2.3,MacIntel,62.89308176,121583,,,,,,,
,,,,,,5.463958333,5.0579,space,0.4442,0,40,40,38,1,39,image/39.jpg,0,0,,R_3S8p45ndEmC6VLP,2,2024-05-29_11h47.31.434,face trait task,2021.2.3,MacIntel,62.89308176,121583,,,,,,,
,,,,,,3.456432292,3.2218,space,0.4,0,41,41,22,1,23,image/23.jpg,0,0,,R_3S8p45ndEmC6VLP,2,2024-05-29_11h47.31.434,face trait task,2021.2.3,MacIntel,62.89308176,121583,,,,,,,
,,,,,,6.00375,3.8047,space,0.3108,0,42,42,1,1,2,image/2.jpg,0,0,,R_3S8p45ndEmC6VLP,2,2024-05-29_11h47.31.434,face trait task,2021.2.3,MacIntel,62.89308176,121583,,,,,,,
,,,,,,3.981041667,3.0803,space,0.4223,0,43,43,17,1,18,image/18.jpg,0,0,,R_3S8p45ndEmC6VLP,2,2024-05-29_11h47.31.434,face trait task,2021.2.3,MacIntel,62.89308176,121583,,,,,,,
,,,,,,3.010338542,2.1622,space,0.5195,0,44,44,34,1,35,image/35.jpg,0,0,,R_3S8p45ndEmC6VLP,2,2024-05-29_11h47.31.434,face trait task,2021.2.3,MacIntel,62.89308176,121583,,,,,,,
,,,,,,6.967526042,3.7873,space,0.558,0,45,45,0,1,1,image/1.jpg,0,0,,R_3S8p45ndEmC6VLP,2,2024-05-29_11h47.31.434,face trait task,2021.2.3,MacIntel,62.89308176,121583,,,,,,,
,,,,,,3.984817708,4.1302,space,0.3552,0,46,46,46,1,47,image/47.jpg,0,0,,R_3S8p45ndEmC6VLP,2,2024-05-29_11h47.31.434,face trait task,2021.2.3,MacIntel,62.89308176,121583,,,,,,,
,,,,,,6.981067708,3.1105,space,0.4506,0,47,47,3,1,4,image/4.jpg,0,0,,R_3S8p45ndEmC6VLP,2,2024-05-29_11h47.31.434,face trait task,2021.2.3,MacIntel,62.89308176,121583,,,,,,,
,,,,,,4.947890625,4.772,space,0.3527,0,48,48,10,1,11,image/11.jpg,0,0,,R_3S8p45ndEmC6VLP,2,2024-05-29_11h47.31.434,face trait task,2021.2.3,MacIntel,62.89308176,121583,,,,,,,
,,,,,,5.969192708,2.9541,space,0.6167,0,49,49,13,1,14,image/14.jpg,0,0,,R_3S8p45ndEmC6VLP,2,2024-05-29_11h47.31.434,face trait task,2021.2.3,MacIntel,62.89308176,121583,,,,,,,
,,,,,,1.998697917,8.8762,space,0.3867,0,50,50,5,1,6,image/6.jpg,0,0,,R_3S8p45ndEmC6VLP,2,2024-05-29_11h47.31.434,face trait task,2021.2.3,MacIntel,62.89308176,121583,,,,,,,
,,,,,,5.9684375,5.3746,space,0.2756,0,51,51,47,1,48,image/48.jpg,0,0,,R_3S8p45ndEmC6VLP,2,2024-05-29_11h47.31.434,face trait task,2021.2.3,MacIntel,62.89308176,121583,,,,,,,
,,,,,,2.478411458,4.9852,space,0.28,0,52,52,23,1,24,image/24.jpg,0,0,,R_3S8p45ndEmC6VLP,2,2024-05-29_11h47.31.434,face trait task,2021.2.3,MacIntel,62.89308176,121583,,,,,,,
,,,,,,,,,,,,,,,,,,,,R_3S8p45ndEmC6VLP,2,2024-05-29_11h47.31.434,face trait task,2021.2.3,MacIntel,62.89308176,121583,0,2,2,0,1,0,critical.png
,,,,,friendly,2.038880208,3.6843,space,0.3581,0,0,0,38,1,39,image/39.jpg,0,0,,R_3S8p45ndEmC6VLP,2,2024-05-29_11h47.31.434,face trait task,2021.2.3,MacIntel,62.89308176,121583,,,,,,,
,,,,,,6.92546875,2.0697,space,0.7205,0,1,1,52,1,56,image/fill_img.png,1,7,Please move the slider all the way to the RIGHT to show that you are paying attention.,R_3S8p45ndEmC6VLP,2,2024-05-29_11h47.31.434,face trait task,2021.2.3,MacIntel,62.89308176,121583,,,,,,,
,,,,,,5.007630208,3.0636,space,0.4164,0,2,2,34,1,35,image/35.jpg,0,0,,R_3S8p45ndEmC6VLP,2,2024-05-29_11h47.31.434,face trait task,2021.2.3,MacIntel,62.89308176,121583,,,,,,,
,,,,,,2.968203125,2.9906,space,0.4994,0,3,3,36,1,37,image/37.jpg,0,0,,R_3S8p45ndEmC6VLP,2,2024-05-29_11h47.31.434,face trait task,2021.2.3,MacIntel,62.89308176,121583,,,,,,,
,,,,,,6.02984375,2.0618,space,0.6025,0,4,4,24,1,25,image/25.jpg,0,0,,R_3S8p45ndEmC6VLP,2,2024-05-29_11h47.31.434,face trait task,2021.2.3,MacIntel,62.89308176,121583,,,,,,,
,,,,,,3.993333333,1.9607,space,0.4408,0,5,5,9,1,10,image/10.jpg,0,0,,R_3S8p45ndEmC6VLP,2,2024-05-29_11h47.31.434,face trait task,2021.2.3,MacIntel,62.89308176,121583,,,,,,,
,,,,,,4.988125,2.407,space,0.4393,0,6,6,6,1,7,image/7.jpg,0,0,,R_3S8p45ndEmC6VLP,2,2024-05-29_11h47.31.434,face trait task,2021.2.3,MacIntel,62.89308176,121583,,,,,,,
,,,,,,4.996588542,2.545,space,0.3236,0,7,7,47,1,48,image/48.jpg,0,0,,R_3S8p45ndEmC6VLP,2,2024-05-29_11h47.31.434,face trait task,2021.2.3,MacIntel,62.89308176,121583,,,,,,,
,,,,,,5.001744792,7.792,space,0.879,0,8,8,40,1,41,image/41.jpg,0,0,,R_3S8p45ndEmC6VLP,2,2024-05-29_11h47.31.434,face trait task,2021.2.3,MacIntel,62.89308176,121583,,,,,,,
,,,,,,4.011666667,2.2374,space,0.4238,0,9,9,25,1,26,image/26.jpg,0,0,,R_3S8p45ndEmC6VLP,2,2024-05-29_11h47.31.434,face trait task,2021.2.3,MacIntel,62.89308176,121583,,,,,,,
,,,,,,5.990703125,1.8931,space,0.4242,0,10,10,20,1,21,image/21.jpg,0,0,,R_3S8p45ndEmC6VLP,2,2024-05-29_11h47.31.434,face trait task,2021.2.3,MacIntel,62.89308176,121583,,,,,,,
,,,,,,5.002447917,2.4886,space,0.4257,0,11,11,10,1,11,image/11.jpg,0,0,,R_3S8p45ndEmC6VLP,2,2024-05-29_11h47.31.434,face trait task,2021.2.3,MacIntel,62.89308176,121583,,,,,,,
,,,,,,6.004192708,2.0542,space,0.4038,0,12,12,17,1,18,image/18.jpg,0,0,,R_3S8p45ndEmC6VLP,2,2024-05-29_11h47.31.434,face trait task,2021.2.3,MacIntel,62.89308176,121583,,,,,,,
,,,,,,5.981354167,2.6737,space,0.2668,0,13,13,43,1,44,image/44.jpg,0,0,,R_3S8p45ndEmC6VLP,2,2024-05-29_11h47.31.434,face trait task,2021.2.3,MacIntel,62.89308176,121583,,,,,,,
,,,,,,1.015078125,2.7714,space,0.5755,0,14,14,30,1,31,image/31.jpg,0,0,,R_3S8p45ndEmC6VLP,2,2024-05-29_11h47.31.434,face trait task,2021.2.3,MacIntel,62.89308176,121583,,,,,,,
,,,,,,1.995338542,2.9762,space,0.4043,0,15,15,37,1,38,image/38.jpg,0,0,,R_3S8p45ndEmC6VLP,2,2024-05-29_11h47.31.434,face trait task,2021.2.3,MacIntel,62.89308176,121583,,,,,,,
,,,,,,5.953932292,4.5689,space,0.6551,0,16,16,11,1,12,image/12.jpg,0,0,,R_3S8p45ndEmC6VLP,2,2024-05-29_11h47.31.434,face trait task,2021.2.3,MacIntel,62.89308176,121583,,,,,,,
,,,,,,2.98546875,2.7644,space,0.3001,0,17,17,14,1,15,image/15.jpg,0,0,,R_3S8p45ndEmC6VLP,2,2024-05-29_11h47.31.434,face trait task,2021.2.3,MacIntel,62.89308176,121583,,,,,,,
,,,,,,6.972682292,2.0413,space,0.3077,0,18,18,50,1,56,image/fill_img.png,1,7,Please move the slider all the way to the RIGHT to show that you are paying attention.,R_3S8p45ndEmC6VLP,2,2024-05-29_11h47.31.434,face trait task,2021.2.3,MacIntel,62.89308176,121583,,,,,,,
,,,,,,4.012786458,3.1461,space,0.3247,0,19,19,12,1,13,image/13.jpg,0,0,,R_3S8p45ndEmC6VLP,2,2024-05-29_11h47.31.434,face trait task,2021.2.3,MacIntel,62.89308176,121583,,,,,,,
,,,,,,2.985052083,2.2638,space,0.392,0,20,20,7,1,8,image/8.jpg,0,0,,R_3S8p45ndEmC6VLP,2,2024-05-29_11h47.31.434,face trait task,2021.2.3,MacIntel,62.89308176,121583,,,,,,,
,,,,,,3.004713542,3.1636,space,0.4764,0,21,21,2,1,3,image/3.jpg,0,0,,R_3S8p45ndEmC6VLP,2,2024-05-29_11h47.31.434,face trait task,2021.2.3,MacIntel,62.89308176,121583,,,,,,,
,,,,,,1.974244792,1.7385,space,0.2879,0,22,22,4,1,5,image/5.jpg,0,0,,R_3S8p45ndEmC6VLP,2,2024-05-29_11h47.31.434,face trait task,2021.2.3,MacIntel,62.89308176,121583,,,,,,,
,,,,,,3.007630208,4.8525,space,0.3872,0,23,23,5,1,6,image/6.jpg,0,0,,R_3S8p45ndEmC6VLP,2,2024-05-29_11h47.31.434,face trait task,2021.2.3,MacIntel,62.89308176,121583,,,,,,,
,,,,,,2.999322917,4.122,space,0.363,0,24,24,29,1,30,image/30.jpg,0,0,,R_3S8p45ndEmC6VLP,2,2024-05-29_11h47.31.434,face trait task,2021.2.3,MacIntel,62.89308176,121583,,,,,,,
,,,,,,1.99453125,4.0939,space,1.2082,0,25,25,19,1,20,image/20.jpg,0,0,,R_3S8p45ndEmC6VLP,2,2024-05-29_11h47.31.434,face trait task,2021.2.3,MacIntel,62.89308176,121583,,,,,,,
,,,,,,5.036744792,3.6219,space,0.6589,0,26,26,49,1,50,image/50.jpg,0,0,,R_3S8p45ndEmC6VLP,2,2024-05-29_11h47.31.434,face trait task,2021.2.3,MacIntel,62.89308176,121583,,,,,,,
,,,,,,3.997395833,4.7936,space,0.4413,0,27,27,27,1,28,image/28.jpg,0,0,,R_3S8p45ndEmC6VLP,2,2024-05-29_11h47.31.434,face trait task,2021.2.3,MacIntel,62.89308176,121583,,,,,,,
,,,,,,3.020416667,3.4534,space,0.4166,0,28,28,33,1,34,image/34.jpg,0,0,,R_3S8p45ndEmC6VLP,2,2024-05-29_11h47.31.434,face trait task,2021.2.3,MacIntel,62.89308176,121583,,,,,,,
,,,,,,5.001692708,3.2737,space,0.3252,0,29,29,41,1,42,image/42.jpg,0,0,,R_3S8p45ndEmC6VLP,2,2024-05-29_11h47.31.434,face trait task,2021.2.3,MacIntel,62.89308176,121583,,,,,,,
,,,,,,3.020729167,5.255,space,1.7962,0,30,30,31,1,32,image/32.jpg,0,0,,R_3S8p45ndEmC6VLP,2,2024-05-29_11h47.31.434,face trait task,2021.2.3,MacIntel,62.89308176,121583,,,,,,,
,,,,,,1.98453125,1.6062,space,0.2757,0,31,31,45,1,46,image/46.jpg,0,0,,R_3S8p45ndEmC6VLP,2,2024-05-29_11h47.31.434,face trait task,2021.2.3,MacIntel,62.89308176,121583,,,,,,,
,,,,,,2.994973958,2.09,space,1.0848,0,32,32,21,1,22,image/22.jpg,0,0,,R_3S8p45ndEmC6VLP,2,2024-05-29_11h47.31.434,face trait task,2021.2.3,MacIntel,62.89308176,121583,,,,,,,
,,,,,,4.000885417,2.504,space,0.2668,0,33,33,1,1,2,image/2.jpg,0,0,,R_3S8p45ndEmC6VLP,2,2024-05-29_11h47.31.434,face trait task,2021.2.3,MacIntel,62.89308176,121583,,,,,,,
,,,,,,3.007942708,4.3772,space,2.0497,0,34,34,26,1,27,image/27.jpg,0,0,,R_3S8p45ndEmC6VLP,2,2024-05-29_11h47.31.434,face trait task,2021.2.3,MacIntel,62.89308176,121583,,,,,,,
,,,,,,2.000078125,2.588,space,0.3857,0,35,35,39,1,40,image/40.jpg,0,0,,R_3S8p45ndEmC6VLP,2,2024-05-29_11h47.31.434,face trait task,2021.2.3,MacIntel,62.89308176,121583,,,,,,,
,,,,,,3.015989583,2.9394,space,0.3839,0,36,36,42,1,43,image/43.jpg,0,0,,R_3S8p45ndEmC6VLP,2,2024-05-29_11h47.31.434,face trait task,2021.2.3,MacIntel,62.89308176,121583,,,,,,,
,,,,,,6.538932292,4.5097,space,1.8678,0,37,37,28,1,29,image/29.jpg,0,0,,R_3S8p45ndEmC6VLP,2,2024-05-29_11h47.31.434,face trait task,2021.2.3,MacIntel,62.89308176,121583,,,,,,,
,,,,,,3.014322917,3.6377,space,0.4334,0,38,38,0,1,1,image/1.jpg,0,0,,R_3S8p45ndEmC6VLP,2,2024-05-29_11h47.31.434,face trait task,2021.2.3,MacIntel,62.89308176,121583,,,,,,,
,,,,,,1.98875,2.7951,space,0.4076,0,39,39,8,1,9,image/9.jpg,0,0,,R_3S8p45ndEmC6VLP,2,2024-05-29_11h47.31.434,face trait task,2021.2.3,MacIntel,62.89308176,121583,,,,,,,
,,,,,,5.484895833,2.805,space,0.4002,0,40,40,23,1,24,image/24.jpg,0,0,,R_3S8p45ndEmC6VLP,2,2024-05-29_11h47.31.434,face trait task,2021.2.3,MacIntel,62.89308176,121583,,,,,,,
,,,,,,5.519583333,5.0768,space,2.8369,0,41,41,22,1,23,image/23.jpg,0,0,,R_3S8p45ndEmC6VLP,2,2024-05-29_11h47.31.434,face trait task,2021.2.3,MacIntel,62.89308176,121583,,,,,,,
,,,,,,4.005442708,2.0733,space,0.4441,0,42,42,13,1,14,image/14.jpg,0,0,,R_3S8p45ndEmC6VLP,2,2024-05-29_11h47.31.434,face trait task,2021.2.3,MacIntel,62.89308176,121583,,,,,,,
,,,,,,5.962317708,2.2383,space,0.5498,0,43,43,32,1,33,image/33.jpg,0,0,,R_3S8p45ndEmC6VLP,2,2024-05-29_11h47.31.434,face trait task,2021.2.3,MacIntel,62.89308176,121583,,,,,,,
,,,,,,3.995494792,4.4221,space,0.3535,0,44,44,16,1,17,image/17.jpg,0,0,,R_3S8p45ndEmC6VLP,2,2024-05-29_11h47.31.434,face trait task,2021.2.3,MacIntel,62.89308176,121583,,,,,,,
,,,,,,3.986458333,5.6613,space,1.6095,0,45,45,46,1,47,image/47.jpg,0,0,,R_3S8p45ndEmC6VLP,2,2024-05-29_11h47.31.434,face trait task,2021.2.3,MacIntel,62.89308176,121583,,,,,,,
,,,,,,4.538125,3.0269,space,0.5005,0,46,46,15,1,16,image/16.jpg,0,0,,R_3S8p45ndEmC6VLP,2,2024-05-29_11h47.31.434,face trait task,2021.2.3,MacIntel,62.89308176,121583,,,,,,,
,,,,,,1.051484375,2.2255,space,0.3668,0,47,47,51,1,51,image/fill_img.png,1,1,Please move the slider all the way to the LEFT to show that you are paying attention.,R_3S8p45ndEmC6VLP,2,2024-05-29_11h47.31.434,face trait task,2021.2.3,MacIntel,62.89308176,121583,,,,,,,
,,,,,,4.9965625,3.9286,space,0.4391,0,48,48,48,1,49,image/49.jpg,0,0,,R_3S8p45ndEmC6VLP,2,2024-05-29_11h47.31.434,face trait task,2021.2.3,MacIntel,62.89308176,121583,,,,,,,
,,,,,,4.9965625,2.4607,space,0.3867,0,49,49,3,1,4,image/4.jpg,0,0,,R_3S8p45ndEmC6VLP,2,2024-05-29_11h47.31.434,face trait task,2021.2.3,MacIntel,62.89308176,121583,,,,,,,
,,,,,,4.004244792,4.178,space,0.3903,0,50,50,35,1,36,image/36.jpg,0,0,,R_3S8p45ndEmC6VLP,2,2024-05-29_11h47.31.434,face trait task,2021.2.3,MacIntel,62.89308176,121583,,,,,,,
,,,,,,2.987942708,2.3936,space,1.2354,0,51,51,44,1,45,image/45.jpg,0,0,,R_3S8p45ndEmC6VLP,2,2024-05-29_11h47.31.434,face trait task,2021.2.3,MacIntel,62.89308176,121583,,,,,,,
,,,,,,1.005651042,4.7632,space,2.758,0,52,52,18,1,19,image/19.jpg,0,0,,R_3S8p45ndEmC6VLP,2,2024-05-29_11h47.31.434,face trait task,2021.2.3,MacIntel,62.89308176,121583,,,,,,,
,,,,,,,,,,,,,,,,,,,,R_3S8p45ndEmC6VLP,2,2024-05-29_11h47.31.434,face trait task,2021.2.3,MacIntel,62.89308176,121583,0,3,3,3,1,3,friendly.png
