choose_trial,key_resp.keys,key_resp.rt,key_resp_4.keys,key_resp_4.rt,session_trait,slider_face_judge.response,slider_face_judge.rt,key_resp_3.keys,key_resp_3.rt,face_loop.thisRepN,face_loop.thisTrialN,face_loop.thisN,face_loop.thisIndex,face_loop.ran,face_serial,image_name,isCheck,answer,check_question,participant,session,date,expName,psychopyVersion,OS,frameRate,SONAid,session.thisRepN,session.thisTrialN,session.thisN,session.thisIndex,session.ran,session_serial,slider_judge_img
"[0,1,2,3,4,5,6,7,8,9,10,11,12,13,14,15,16,17,18,19,20,21,22,23,24,25,26,27,28,29,30,31,32,33,34,35,36,37,38,39,40,41,42,43,44,45,46,47,48,49,60,52,56]",space,10.9782,space,34.511,trustworthy,3.977778117,2.5069,space,2.7008,0,0,0,48,1,49,image/49.jpg,0,0,,R_3VjvlLbPe9t3xLs,2,2024-05-19_11h32.53.048,face trait task,2021.2.3,Win32,60.60606061,120965,,,,,,,
,,,,,,4.01111145,2.752,space,0.6,0,1,1,27,1,28,image/28.jpg,0,0,,R_3VjvlLbPe9t3xLs,2,2024-05-19_11h32.53.048,face trait task,2021.2.3,Win32,60.60606061,120965,,,,,,,
,,,,,,4,1.8229,space,0.682,0,2,2,31,1,32,image/32.jpg,0,0,,R_3VjvlLbPe9t3xLs,2,2024-05-19_11h32.53.048,face trait task,2021.2.3,Win32,60.60606061,120965,,,,,,,
,,,,,,6.994444784,5.1573,space,0.6163,0,3,3,52,1,57,image/fill_img.png,1,7,Please move the slider all the way to the RIGHT to show that you are paying attention.,R_3VjvlLbPe9t3xLs,2,2024-05-19_11h32.53.048,face trait task,2021.2.3,Win32,60.60606061,120965,,,,,,,
,,,,,,3,3.4828,space,0.6325,0,4,4,40,1,41,image/41.jpg,0,0,,R_3VjvlLbPe9t3xLs,2,2024-05-19_11h32.53.048,face trait task,2021.2.3,Win32,60.60606061,120965,,,,,,,
,,,,,,4.016666667,2.2528,space,0.6532,0,5,5,18,1,19,image/19.jpg,0,0,,R_3VjvlLbPe9t3xLs,2,2024-05-19_11h32.53.048,face trait task,2021.2.3,Win32,60.60606061,120965,,,,,,,
,,,,,,4.016666667,1.8686,space,0.5222,0,6,6,6,1,7,image/7.jpg,0,0,,R_3VjvlLbPe9t3xLs,2,2024-05-19_11h32.53.048,face trait task,2021.2.3,Win32,60.60606061,120965,,,,,,,
,,,,,,4.966666667,3.8739,space,0.3906,0,7,7,28,1,29,image/29.jpg,0,0,,R_3VjvlLbPe9t3xLs,2,2024-05-19_11h32.53.048,face trait task,2021.2.3,Win32,60.60606061,120965,,,,,,,
,,,,,,3.005555725,2.1504,space,0.3879,0,8,8,38,1,39,image/39.jpg,0,0,,R_3VjvlLbPe9t3xLs,2,2024-05-19_11h32.53.048,face trait task,2021.2.3,Win32,60.60606061,120965,,,,,,,
,,,,,,4,2.065,space,0.2945,0,9,9,25,1,26,image/26.jpg,0,0,,R_3VjvlLbPe9t3xLs,2,2024-05-19_11h32.53.048,face trait task,2021.2.3,Win32,60.60606061,120965,,,,,,,
,,,,,,3.977778117,1.908,space,0.2712,0,10,10,16,1,17,image/17.jpg,0,0,,R_3VjvlLbPe9t3xLs,2,2024-05-19_11h32.53.048,face trait task,2021.2.3,Win32,60.60606061,120965,,,,,,,
,,,,,,3.027778117,2.8849,space,0.3913,0,11,11,23,1,24,image/24.jpg,0,0,,R_3VjvlLbPe9t3xLs,2,2024-05-19_11h32.53.048,face trait task,2021.2.3,Win32,60.60606061,120965,,,,,,,
,,,,,,2.972222392,1.5545,space,0.3508,0,12,12,43,1,44,image/44.jpg,0,0,,R_3VjvlLbPe9t3xLs,2,2024-05-19_11h32.53.048,face trait task,2021.2.3,Win32,60.60606061,120965,,,,,,,
,,,,,,2.972222392,1.3844,space,0.6516,0,13,13,46,1,47,image/47.jpg,0,0,,R_3VjvlLbPe9t3xLs,2,2024-05-19_11h32.53.048,face trait task,2021.2.3,Win32,60.60606061,120965,,,,,,,
,,,,,,3.977778117,5.1857,space,1.8988,0,14,14,13,1,14,image/14.jpg,0,0,,R_3VjvlLbPe9t3xLs,2,2024-05-19_11h32.53.048,face trait task,2021.2.3,Win32,60.60606061,120965,,,,,,,
,,,,,,3.994444784,2.0859,space,0.392,0,15,15,36,1,37,image/37.jpg,0,0,,R_3VjvlLbPe9t3xLs,2,2024-05-19_11h32.53.048,face trait task,2021.2.3,Win32,60.60606061,120965,,,,,,,
,,,,,,1.011111196,3.559,space,0.3812,0,16,16,51,1,53,image/fill_img.png,1,1,Please move the slider all the way to the LEFT to show that you are paying attention.,R_3VjvlLbPe9t3xLs,2,2024-05-19_11h32.53.048,face trait task,2021.2.3,Win32,60.60606061,120965,,,,,,,
,,,,,,5.05,2.8919,space,0.4504,0,17,17,35,1,36,image/36.jpg,0,0,,R_3VjvlLbPe9t3xLs,2,2024-05-19_11h32.53.048,face trait task,2021.2.3,Win32,60.60606061,120965,,,,,,,
,,,,,,2.994444784,3.3928,space,0.2405,0,18,18,49,1,50,image/50.jpg,0,0,,R_3VjvlLbPe9t3xLs,2,2024-05-19_11h32.53.048,face trait task,2021.2.3,Win32,60.60606061,120965,,,,,,,
,,,,,,2.994444784,1.3213,space,0.3683,0,19,19,45,1,46,image/46.jpg,0,0,,R_3VjvlLbPe9t3xLs,2,2024-05-19_11h32.53.048,face trait task,2021.2.3,Win32,60.60606061,120965,,,,,,,
,,,,,,4.01111145,3.4399,space,0.4341,0,20,20,15,1,16,image/16.jpg,0,0,,R_3VjvlLbPe9t3xLs,2,2024-05-19_11h32.53.048,face trait task,2021.2.3,Win32,60.60606061,120965,,,,,,,
,,,,,,2.972222392,3.868,space,0.6337,0,21,21,5,1,6,image/6.jpg,0,0,,R_3VjvlLbPe9t3xLs,2,2024-05-19_11h32.53.048,face trait task,2021.2.3,Win32,60.60606061,120965,,,,,,,
,,,,,,3.005555725,1.553,space,0.4169,0,22,22,42,1,43,image/43.jpg,0,0,,R_3VjvlLbPe9t3xLs,2,2024-05-19_11h32.53.048,face trait task,2021.2.3,Win32,60.60606061,120965,,,,,,,
,,,,,,2.994444784,4.4077,space,0.3496,0,23,23,29,1,30,image/30.jpg,0,0,,R_3VjvlLbPe9t3xLs,2,2024-05-19_11h32.53.048,face trait task,2021.2.3,Win32,60.60606061,120965,,,,,,,
,,,,,,3.955555725,3.0433,space,0.4013,0,24,24,0,1,1,image/1.jpg,0,0,,R_3VjvlLbPe9t3xLs,2,2024-05-19_11h32.53.048,face trait task,2021.2.3,Win32,60.60606061,120965,,,,,,,
,,,,,,3.988889058,1.8176,space,0.2893,0,25,25,2,1,3,image/3.jpg,0,0,,R_3VjvlLbPe9t3xLs,2,2024-05-19_11h32.53.048,face trait task,2021.2.3,Win32,60.60606061,120965,,,,,,,
,,,,,,5.027778117,2.4831,space,0.3422,0,26,26,3,1,4,image/4.jpg,0,0,,R_3VjvlLbPe9t3xLs,2,2024-05-19_11h32.53.048,face trait task,2021.2.3,Win32,60.60606061,120965,,,,,,,
,,,,,,3.972222392,2.2172,space,0.2724,0,27,27,32,1,33,image/33.jpg,0,0,,R_3VjvlLbPe9t3xLs,2,2024-05-19_11h32.53.048,face trait task,2021.2.3,Win32,60.60606061,120965,,,,,,,
,,,,,,3.972222392,1.509,space,0.3546,0,28,28,7,1,8,image/8.jpg,0,0,,R_3VjvlLbPe9t3xLs,2,2024-05-19_11h32.53.048,face trait task,2021.2.3,Win32,60.60606061,120965,,,,,,,
,,,,,,2.972222392,2.491,space,0.2705,0,29,29,44,1,45,image/45.jpg,0,0,,R_3VjvlLbPe9t3xLs,2,2024-05-19_11h32.53.048,face trait task,2021.2.3,Win32,60.60606061,120965,,,,,,,
,,,,,,3.027778117,4.5069,space,0.2782,0,30,30,11,1,12,image/12.jpg,0,0,,R_3VjvlLbPe9t3xLs,2,2024-05-19_11h32.53.048,face trait task,2021.2.3,Win32,60.60606061,120965,,,,,,,
,,,,,,3.988889058,2.0759,space,0.2673,0,31,31,34,1,35,image/35.jpg,0,0,,R_3VjvlLbPe9t3xLs,2,2024-05-19_11h32.53.048,face trait task,2021.2.3,Win32,60.60606061,120965,,,,,,,
,,,,,,3.988889058,1.2172,space,0.3057,0,32,32,21,1,22,image/22.jpg,0,0,,R_3VjvlLbPe9t3xLs,2,2024-05-19_11h32.53.048,face trait task,2021.2.3,Win32,60.60606061,120965,,,,,,,
,,,,,,2.988889058,5.7912,space,4.3166,0,33,33,37,1,38,image/38.jpg,0,0,,R_3VjvlLbPe9t3xLs,2,2024-05-19_11h32.53.048,face trait task,2021.2.3,Win32,60.60606061,120965,,,,,,,
,,,,,,3.988889058,3.0838,space,1.5115,0,34,34,19,1,20,image/20.jpg,0,0,,R_3VjvlLbPe9t3xLs,2,2024-05-19_11h32.53.048,face trait task,2021.2.3,Win32,60.60606061,120965,,,,,,,
,,,,,,5.027778117,1.7592,space,0.2529,0,35,35,20,1,21,image/21.jpg,0,0,,R_3VjvlLbPe9t3xLs,2,2024-05-19_11h32.53.048,face trait task,2021.2.3,Win32,60.60606061,120965,,,,,,,
,,,,,,3.083333333,2.0405,space,0.3142,0,36,36,9,1,10,image/10.jpg,0,0,,R_3VjvlLbPe9t3xLs,2,2024-05-19_11h32.53.048,face trait task,2021.2.3,Win32,60.60606061,120965,,,,,,,
,,,,,,4.016666667,3.7767,space,0.5225,0,37,37,1,1,2,image/2.jpg,0,0,,R_3VjvlLbPe9t3xLs,2,2024-05-19_11h32.53.048,face trait task,2021.2.3,Win32,60.60606061,120965,,,,,,,
,,,,,,2.96111145,2.2012,space,0.3027,0,38,38,8,1,9,image/9.jpg,0,0,,R_3VjvlLbPe9t3xLs,2,2024-05-19_11h32.53.048,face trait task,2021.2.3,Win32,60.60606061,120965,,,,,,,
,,,,,,3.01111145,3.1024,space,0.0751,0,39,39,30,1,31,image/31.jpg,0,0,,R_3VjvlLbPe9t3xLs,2,2024-05-19_11h32.53.048,face trait task,2021.2.3,Win32,60.60606061,120965,,,,,,,
,,,,,,4.027778117,2.963,space,0.3733,0,40,40,33,1,34,image/34.jpg,0,0,,R_3VjvlLbPe9t3xLs,2,2024-05-19_11h32.53.048,face trait task,2021.2.3,Win32,60.60606061,120965,,,,,,,
,,,,,,2.994444784,2.1435,space,0.3416,0,41,41,24,1,25,image/25.jpg,0,0,,R_3VjvlLbPe9t3xLs,2,2024-05-19_11h32.53.048,face trait task,2021.2.3,Win32,60.60606061,120965,,,,,,,
,,,,,,2.994444784,1.5519,space,0.924,0,42,42,10,1,11,image/11.jpg,0,0,,R_3VjvlLbPe9t3xLs,2,2024-05-19_11h32.53.048,face trait task,2021.2.3,Win32,60.60606061,120965,,,,,,,
,,,,,,6.955555725,3.1682,space,0.3833,0,43,43,50,1,61,image/fill_img.png,1,7,Please move the slider all the way to the RIGHT to show that you are paying attention.,R_3VjvlLbPe9t3xLs,2,2024-05-19_11h32.53.048,face trait task,2021.2.3,Win32,60.60606061,120965,,,,,,,
,,,,,,4,1.9645,space,0.2963,0,44,44,12,1,13,image/13.jpg,0,0,,R_3VjvlLbPe9t3xLs,2,2024-05-19_11h32.53.048,face trait task,2021.2.3,Win32,60.60606061,120965,,,,,,,
,,,,,,2.95,2.0065,space,0.3512,0,45,45,39,1,40,image/40.jpg,0,0,,R_3VjvlLbPe9t3xLs,2,2024-05-19_11h32.53.048,face trait task,2021.2.3,Win32,60.60606061,120965,,,,,,,
,,,,,,4.005555725,2.3349,space,0.2676,0,46,46,14,1,15,image/15.jpg,0,0,,R_3VjvlLbPe9t3xLs,2,2024-05-19_11h32.53.048,face trait task,2021.2.3,Win32,60.60606061,120965,,,,,,,
,,,,,,3.027778117,1.9848,space,0.324,0,47,47,47,1,48,image/48.jpg,0,0,,R_3VjvlLbPe9t3xLs,2,2024-05-19_11h32.53.048,face trait task,2021.2.3,Win32,60.60606061,120965,,,,,,,
,,,,,,2.944444784,3.231,space,1.8004,0,48,48,22,1,23,image/23.jpg,0,0,,R_3VjvlLbPe9t3xLs,2,2024-05-19_11h32.53.048,face trait task,2021.2.3,Win32,60.60606061,120965,,,,,,,
,,,,,,3.994444784,1.7517,space,0.4684,0,49,49,26,1,27,image/27.jpg,0,0,,R_3VjvlLbPe9t3xLs,2,2024-05-19_11h32.53.048,face trait task,2021.2.3,Win32,60.60606061,120965,,,,,,,
,,,,,,3.994444784,1.3541,space,0.4232,0,50,50,17,1,18,image/18.jpg,0,0,,R_3VjvlLbPe9t3xLs,2,2024-05-19_11h32.53.048,face trait task,2021.2.3,Win32,60.60606061,120965,,,,,,,
,,,,,,3.994444784,1.8264,space,0.3666,0,51,51,4,1,5,image/5.jpg,0,0,,R_3VjvlLbPe9t3xLs,2,2024-05-19_11h32.53.048,face trait task,2021.2.3,Win32,60.60606061,120965,,,,,,,
,,,,,,3.016666667,4.4109,space,0.3337,0,52,52,41,1,42,image/42.jpg,0,0,,R_3VjvlLbPe9t3xLs,2,2024-05-19_11h32.53.048,face trait task,2021.2.3,Win32,60.60606061,120965,,,,,,,
,,,,,,,,,,,,,,,,,,,,R_3VjvlLbPe9t3xLs,2,2024-05-19_11h32.53.048,face trait task,2021.2.3,Win32,60.60606061,120965,0,0,0,2,1,2,trustworthy.png
,,,,,competent,4.022222392,2.2403,space,0.6195,0,0,0,8,1,9,image/9.jpg,0,0,,R_3VjvlLbPe9t3xLs,2,2024-05-19_11h32.53.048,face trait task,2021.2.3,Win32,60.60606061,120965,,,,,,,
,,,,,,5.022222392,3.7807,space,2.7869,0,1,1,32,1,33,image/33.jpg,0,0,,R_3VjvlLbPe9t3xLs,2,2024-05-19_11h32.53.048,face trait task,2021.2.3,Win32,60.60606061,120965,,,,,,,
,,,,,,5.022222392,1.6264,space,0.4961,0,2,2,38,1,39,image/39.jpg,0,0,,R_3VjvlLbPe9t3xLs,2,2024-05-19_11h32.53.048,face trait task,2021.2.3,Win32,60.60606061,120965,,,,,,,
,,,,,,5.022222392,1.3778,space,0.4752,0,3,3,43,1,44,image/44.jpg,0,0,,R_3VjvlLbPe9t3xLs,2,2024-05-19_11h32.53.048,face trait task,2021.2.3,Win32,60.60606061,120965,,,,,,,
,,,,,,5.022222392,2.0601,space,0.5275,0,4,4,41,1,42,image/42.jpg,0,0,,R_3VjvlLbPe9t3xLs,2,2024-05-19_11h32.53.048,face trait task,2021.2.3,Win32,60.60606061,120965,,,,,,,
,,,,,,5.005555725,1.7218,space,0.3807,0,5,5,45,1,46,image/46.jpg,0,0,,R_3VjvlLbPe9t3xLs,2,2024-05-19_11h32.53.048,face trait task,2021.2.3,Win32,60.60606061,120965,,,,,,,
,,,,,,5.005555725,1.292,space,0.5944,0,6,6,18,1,19,image/19.jpg,0,0,,R_3VjvlLbPe9t3xLs,2,2024-05-19_11h32.53.048,face trait task,2021.2.3,Win32,60.60606061,120965,,,,,,,
,,,,,,5.005555725,1.7693,space,0.838,0,7,7,15,1,16,image/16.jpg,0,0,,R_3VjvlLbPe9t3xLs,2,2024-05-19_11h32.53.048,face trait task,2021.2.3,Win32,60.60606061,120965,,,,,,,
,,,,,,5.005555725,1.4775,space,0.979,0,8,8,11,1,12,image/12.jpg,0,0,,R_3VjvlLbPe9t3xLs,2,2024-05-19_11h32.53.048,face trait task,2021.2.3,Win32,60.60606061,120965,,,,,,,
,,,,,,5.977778117,3.531,space,2.5725,0,9,9,31,1,32,image/32.jpg,0,0,,R_3VjvlLbPe9t3xLs,2,2024-05-19_11h32.53.048,face trait task,2021.2.3,Win32,60.60606061,120965,,,,,,,
,,,,,,5.977778117,1.1587,space,0.3931,0,10,10,5,1,6,image/6.jpg,0,0,,R_3VjvlLbPe9t3xLs,2,2024-05-19_11h32.53.048,face trait task,2021.2.3,Win32,60.60606061,120965,,,,,,,
,,,,,,6.955555725,2.4963,space,0.4392,0,11,11,52,1,57,image/fill_img.png,1,7,Please move the slider all the way to the RIGHT to show that you are paying attention.,R_3VjvlLbPe9t3xLs,2,2024-05-19_11h32.53.048,face trait task,2021.2.3,Win32,60.60606061,120965,,,,,,,
,,,,,,6.016666667,4.0862,space,0.4808,0,12,12,21,1,22,image/22.jpg,0,0,,R_3VjvlLbPe9t3xLs,2,2024-05-19_11h32.53.048,face trait task,2021.2.3,Win32,60.60606061,120965,,,,,,,
,,,,,,6.016666667,1.2707,space,0.4712,0,13,13,30,1,31,image/31.jpg,0,0,,R_3VjvlLbPe9t3xLs,2,2024-05-19_11h32.53.048,face trait task,2021.2.3,Win32,60.60606061,120965,,,,,,,
,,,,,,6.016666667,1.3061,space,0.7864,0,14,14,10,1,11,image/11.jpg,0,0,,R_3VjvlLbPe9t3xLs,2,2024-05-19_11h32.53.048,face trait task,2021.2.3,Win32,60.60606061,120965,,,,,,,
,,,,,,6.016666667,1.1949,space,0.7225,0,15,15,1,1,2,image/2.jpg,0,0,,R_3VjvlLbPe9t3xLs,2,2024-05-19_11h32.53.048,face trait task,2021.2.3,Win32,60.60606061,120965,,,,,,,
,,,,,,6.016666667,1.7692,space,0.7013,0,16,16,3,1,4,image/4.jpg,0,0,,R_3VjvlLbPe9t3xLs,2,2024-05-19_11h32.53.048,face trait task,2021.2.3,Win32,60.60606061,120965,,,,,,,
,,,,,,6.016666667,1.2417,space,0.5067,0,17,17,12,1,13,image/13.jpg,0,0,,R_3VjvlLbPe9t3xLs,2,2024-05-19_11h32.53.048,face trait task,2021.2.3,Win32,60.60606061,120965,,,,,,,
,,,,,,6.016666667,1.2069,space,0.3829,0,18,18,49,1,50,image/50.jpg,0,0,,R_3VjvlLbPe9t3xLs,2,2024-05-19_11h32.53.048,face trait task,2021.2.3,Win32,60.60606061,120965,,,,,,,
,,,,,,6.016666667,1.7002,space,0.3675,0,19,19,29,1,30,image/30.jpg,0,0,,R_3VjvlLbPe9t3xLs,2,2024-05-19_11h32.53.048,face trait task,2021.2.3,Win32,60.60606061,120965,,,,,,,
,,,,,,6.016666667,1.467,space,0.5843,0,20,20,26,1,27,image/27.jpg,0,0,,R_3VjvlLbPe9t3xLs,2,2024-05-19_11h32.53.048,face trait task,2021.2.3,Win32,60.60606061,120965,,,,,,,
,,,,,,6.016666667,1.2113,space,0.5541,0,21,21,19,1,20,image/20.jpg,0,0,,R_3VjvlLbPe9t3xLs,2,2024-05-19_11h32.53.048,face trait task,2021.2.3,Win32,60.60606061,120965,,,,,,,
,,,,,,6.016666667,1.5523,space,3.5503,0,22,22,23,1,24,image/24.jpg,0,0,,R_3VjvlLbPe9t3xLs,2,2024-05-19_11h32.53.048,face trait task,2021.2.3,Win32,60.60606061,120965,,,,,,,
,,,,,,6.016666667,1.6624,space,0.8292,0,23,23,36,1,37,image/37.jpg,0,0,,R_3VjvlLbPe9t3xLs,2,2024-05-19_11h32.53.048,face trait task,2021.2.3,Win32,60.60606061,120965,,,,,,,
,,,,,,6.016666667,1.5502,space,0.8856,0,24,24,28,1,29,image/29.jpg,0,0,,R_3VjvlLbPe9t3xLs,2,2024-05-19_11h32.53.048,face trait task,2021.2.3,Win32,60.60606061,120965,,,,,,,
,,,,,,6.016666667,1.9173,space,0.9282,0,25,25,0,1,1,image/1.jpg,0,0,,R_3VjvlLbPe9t3xLs,2,2024-05-19_11h32.53.048,face trait task,2021.2.3,Win32,60.60606061,120965,,,,,,,
,,,,,,6.016666667,1.3845,space,1.5016,0,26,26,47,1,48,image/48.jpg,0,0,,R_3VjvlLbPe9t3xLs,2,2024-05-19_11h32.53.048,face trait task,2021.2.3,Win32,60.60606061,120965,,,,,,,
,,,,,,6.016666667,1.4567,space,0.7335,0,27,27,33,1,34,image/34.jpg,0,0,,R_3VjvlLbPe9t3xLs,2,2024-05-19_11h32.53.048,face trait task,2021.2.3,Win32,60.60606061,120965,,,,,,,
,,,,,,6.016666667,1.3234,space,0.4192,0,28,28,6,1,7,image/7.jpg,0,0,,R_3VjvlLbPe9t3xLs,2,2024-05-19_11h32.53.048,face trait task,2021.2.3,Win32,60.60606061,120965,,,,,,,
,,,,,,5.027778117,2.1663,space,0.4664,0,29,29,13,1,14,image/14.jpg,0,0,,R_3VjvlLbPe9t3xLs,2,2024-05-19_11h32.53.048,face trait task,2021.2.3,Win32,60.60606061,120965,,,,,,,
,,,,,,5.027778117,1.7015,space,0.3251,0,30,30,7,1,8,image/8.jpg,0,0,,R_3VjvlLbPe9t3xLs,2,2024-05-19_11h32.53.048,face trait task,2021.2.3,Win32,60.60606061,120965,,,,,,,
,,,,,,5.027778117,1.2486,space,0.622,0,31,31,35,1,36,image/36.jpg,0,0,,R_3VjvlLbPe9t3xLs,2,2024-05-19_11h32.53.048,face trait task,2021.2.3,Win32,60.60606061,120965,,,,,,,
,,,,,,5.027778117,1.5851,space,0.4694,0,32,32,4,1,5,image/5.jpg,0,0,,R_3VjvlLbPe9t3xLs,2,2024-05-19_11h32.53.048,face trait task,2021.2.3,Win32,60.60606061,120965,,,,,,,
,,,,,,5.01111145,5.8019,space,0.2675,0,33,33,39,1,40,image/40.jpg,0,0,,R_3VjvlLbPe9t3xLs,2,2024-05-19_11h32.53.048,face trait task,2021.2.3,Win32,60.60606061,120965,,,,,,,
,,,,,,6.01111145,2.1724,space,0.3556,0,34,34,37,1,38,image/38.jpg,0,0,,R_3VjvlLbPe9t3xLs,2,2024-05-19_11h32.53.048,face trait task,2021.2.3,Win32,60.60606061,120965,,,,,,,
,,,,,,6.01111145,1.178,space,0.4498,0,35,35,42,1,43,image/43.jpg,0,0,,R_3VjvlLbPe9t3xLs,2,2024-05-19_11h32.53.048,face trait task,2021.2.3,Win32,60.60606061,120965,,,,,,,
,,,,,,6.01111145,1.2016,space,0.3556,0,36,36,14,1,15,image/15.jpg,0,0,,R_3VjvlLbPe9t3xLs,2,2024-05-19_11h32.53.048,face trait task,2021.2.3,Win32,60.60606061,120965,,,,,,,
,,,,,,6.01111145,3.5414,space,0.3724,0,37,37,22,1,23,image/23.jpg,0,0,,R_3VjvlLbPe9t3xLs,2,2024-05-19_11h32.53.048,face trait task,2021.2.3,Win32,60.60606061,120965,,,,,,,
,,,,,,6.01111145,1.6618,space,0.4618,0,38,38,20,1,21,image/21.jpg,0,0,,R_3VjvlLbPe9t3xLs,2,2024-05-19_11h32.53.048,face trait task,2021.2.3,Win32,60.60606061,120965,,,,,,,
,,,,,,6.01111145,2.4249,space,1.4794,0,39,39,9,1,10,image/10.jpg,0,0,,R_3VjvlLbPe9t3xLs,2,2024-05-19_11h32.53.048,face trait task,2021.2.3,Win32,60.60606061,120965,,,,,,,
,,,,,,1.022222392,4.3057,space,0.4594,0,40,40,51,1,53,image/fill_img.png,1,1,Please move the slider all the way to the LEFT to show that you are paying attention.,R_3VjvlLbPe9t3xLs,2,2024-05-19_11h32.53.048,face trait task,2021.2.3,Win32,60.60606061,120965,,,,,,,
,,,,,,6.972222392,2.2921,space,1.8084,0,41,41,50,1,61,image/fill_img.png,1,7,Please move the slider all the way to the RIGHT to show that you are paying attention.,R_3VjvlLbPe9t3xLs,2,2024-05-19_11h32.53.048,face trait task,2021.2.3,Win32,60.60606061,120965,,,,,,,
,,,,,,4.988889058,1.9551,space,0.3666,0,42,42,40,1,41,image/41.jpg,0,0,,R_3VjvlLbPe9t3xLs,2,2024-05-19_11h32.53.048,face trait task,2021.2.3,Win32,60.60606061,120965,,,,,,,
,,,,,,4.988889058,1.2054,space,0.3707,0,43,43,24,1,25,image/25.jpg,0,0,,R_3VjvlLbPe9t3xLs,2,2024-05-19_11h32.53.048,face trait task,2021.2.3,Win32,60.60606061,120965,,,,,,,
,,,,,,5.988889058,2.44,space,0.351,0,44,44,17,1,18,image/18.jpg,0,0,,R_3VjvlLbPe9t3xLs,2,2024-05-19_11h32.53.048,face trait task,2021.2.3,Win32,60.60606061,120965,,,,,,,
,,,,,,5.988889058,1.1863,space,0.3999,0,45,45,44,1,45,image/45.jpg,0,0,,R_3VjvlLbPe9t3xLs,2,2024-05-19_11h32.53.048,face trait task,2021.2.3,Win32,60.60606061,120965,,,,,,,
,,,,,,5.988889058,1.3232,space,0.3402,0,46,46,27,1,28,image/28.jpg,0,0,,R_3VjvlLbPe9t3xLs,2,2024-05-19_11h32.53.048,face trait task,2021.2.3,Win32,60.60606061,120965,,,,,,,
,,,,,,5.988889058,1.5544,space,0.6335,0,47,47,48,1,49,image/49.jpg,0,0,,R_3VjvlLbPe9t3xLs,2,2024-05-19_11h32.53.048,face trait task,2021.2.3,Win32,60.60606061,120965,,,,,,,
,,,,,,5.988889058,1.3625,space,0.4756,0,48,48,25,1,26,image/26.jpg,0,0,,R_3VjvlLbPe9t3xLs,2,2024-05-19_11h32.53.048,face trait task,2021.2.3,Win32,60.60606061,120965,,,,,,,
,,,,,,5.988889058,1.3568,space,0.7046,0,49,49,34,1,35,image/35.jpg,0,0,,R_3VjvlLbPe9t3xLs,2,2024-05-19_11h32.53.048,face trait task,2021.2.3,Win32,60.60606061,120965,,,,,,,
,,,,,,5.988889058,1.7193,space,0.3672,0,50,50,2,1,3,image/3.jpg,0,0,,R_3VjvlLbPe9t3xLs,2,2024-05-19_11h32.53.048,face trait task,2021.2.3,Win32,60.60606061,120965,,,,,,,
,,,,,,5.988889058,1.3246,space,0.4053,0,51,51,16,1,17,image/17.jpg,0,0,,R_3VjvlLbPe9t3xLs,2,2024-05-19_11h32.53.048,face trait task,2021.2.3,Win32,60.60606061,120965,,,,,,,
,,,,,,5.988889058,1.2197,space,0.3503,0,52,52,46,1,47,image/47.jpg,0,0,,R_3VjvlLbPe9t3xLs,2,2024-05-19_11h32.53.048,face trait task,2021.2.3,Win32,60.60606061,120965,,,,,,,
,,,,,,,,,,,,,,,,,,,,R_3VjvlLbPe9t3xLs,2,2024-05-19_11h32.53.048,face trait task,2021.2.3,Win32,60.60606061,120965,0,1,1,1,1,1,competent.png
,,,,,friendly,2.994444784,1.9076,space,0.4436,0,0,0,40,1,41,image/41.jpg,0,0,,R_3VjvlLbPe9t3xLs,2,2024-05-19_11h32.53.048,face trait task,2021.2.3,Win32,60.60606061,120965,,,,,,,
,,,,,,3.983333333,3.3194,space,1.6876,0,1,1,26,1,27,image/27.jpg,0,0,,R_3VjvlLbPe9t3xLs,2,2024-05-19_11h32.53.048,face trait task,2021.2.3,Win32,60.60606061,120965,,,,,,,
,,,,,,4.988889058,3.0072,space,2.0337,0,2,2,2,1,3,image/3.jpg,0,0,,R_3VjvlLbPe9t3xLs,2,2024-05-19_11h32.53.048,face trait task,2021.2.3,Win32,60.60606061,120965,,,,,,,
,,,,,,4.988889058,1.3125,space,0.3818,0,3,3,12,1,13,image/13.jpg,0,0,,R_3VjvlLbPe9t3xLs,2,2024-05-19_11h32.53.048,face trait task,2021.2.3,Win32,60.60606061,120965,,,,,,,
,,,,,,6.983333333,2.77,space,0.3345,0,4,4,52,1,57,image/fill_img.png,1,7,Please move the slider all the way to the RIGHT to show that you are paying attention.,R_3VjvlLbPe9t3xLs,2,2024-05-19_11h32.53.048,face trait task,2021.2.3,Win32,60.60606061,120965,,,,,,,
,,,,,,4.005555725,2.2519,space,0.2851,0,5,5,9,1,10,image/10.jpg,0,0,,R_3VjvlLbPe9t3xLs,2,2024-05-19_11h32.53.048,face trait task,2021.2.3,Win32,60.60606061,120965,,,,,,,
,,,,,,5.044444784,1.8687,space,0.3099,0,6,6,30,1,31,image/31.jpg,0,0,,R_3VjvlLbPe9t3xLs,2,2024-05-19_11h32.53.048,face trait task,2021.2.3,Win32,60.60606061,120965,,,,,,,
,,,,,,4.983333333,1.7349,space,0.3503,0,7,7,36,1,37,image/37.jpg,0,0,,R_3VjvlLbPe9t3xLs,2,2024-05-19_11h32.53.048,face trait task,2021.2.3,Win32,60.60606061,120965,,,,,,,
,,,,,,3.944444784,3.0508,space,0.3581,0,8,8,32,1,33,image/33.jpg,0,0,,R_3VjvlLbPe9t3xLs,2,2024-05-19_11h32.53.048,face trait task,2021.2.3,Win32,60.60606061,120965,,,,,,,
,,,,,,4.983333333,1.8365,space,0.2973,0,9,9,19,1,20,image/20.jpg,0,0,,R_3VjvlLbPe9t3xLs,2,2024-05-19_11h32.53.048,face trait task,2021.2.3,Win32,60.60606061,120965,,,,,,,
,,,,,,4.983333333,1.2852,space,0.3668,0,10,10,6,1,7,image/7.jpg,0,0,,R_3VjvlLbPe9t3xLs,2,2024-05-19_11h32.53.048,face trait task,2021.2.3,Win32,60.60606061,120965,,,,,,,
,,,,,,4.983333333,1.34,space,0.3422,0,11,11,25,1,26,image/26.jpg,0,0,,R_3VjvlLbPe9t3xLs,2,2024-05-19_11h32.53.048,face trait task,2021.2.3,Win32,60.60606061,120965,,,,,,,
,,,,,,4.005555725,2.0838,space,0.3376,0,12,12,47,1,48,image/48.jpg,0,0,,R_3VjvlLbPe9t3xLs,2,2024-05-19_11h32.53.048,face trait task,2021.2.3,Win32,60.60606061,120965,,,,,,,
,,,,,,4.994444784,2.534,space,0.2818,0,13,13,23,1,24,image/24.jpg,0,0,,R_3VjvlLbPe9t3xLs,2,2024-05-19_11h32.53.048,face trait task,2021.2.3,Win32,60.60606061,120965,,,,,,,
,,,,,,3.994444784,2.9016,space,1.7327,0,14,14,49,1,50,image/50.jpg,0,0,,R_3VjvlLbPe9t3xLs,2,2024-05-19_11h32.53.048,face trait task,2021.2.3,Win32,60.60606061,120965,,,,,,,
,,,,,,4.005555725,2.8678,space,0.3493,0,15,15,43,1,44,image/44.jpg,0,0,,R_3VjvlLbPe9t3xLs,2,2024-05-19_11h32.53.048,face trait task,2021.2.3,Win32,60.60606061,120965,,,,,,,
,,,,,,4.005555725,1.3011,space,0.3736,0,16,16,10,1,11,image/11.jpg,0,0,,R_3VjvlLbPe9t3xLs,2,2024-05-19_11h32.53.048,face trait task,2021.2.3,Win32,60.60606061,120965,,,,,,,
,,,,,,4.005555725,1.1531,space,0.3821,0,17,17,42,1,43,image/43.jpg,0,0,,R_3VjvlLbPe9t3xLs,2,2024-05-19_11h32.53.048,face trait task,2021.2.3,Win32,60.60606061,120965,,,,,,,
,,,,,,4.005555725,1.7013,space,0.5702,0,18,18,7,1,8,image/8.jpg,0,0,,R_3VjvlLbPe9t3xLs,2,2024-05-19_11h32.53.048,face trait task,2021.2.3,Win32,60.60606061,120965,,,,,,,
,,,,,,4.005555725,1.8779,space,0.3437,0,19,19,8,1,9,image/9.jpg,0,0,,R_3VjvlLbPe9t3xLs,2,2024-05-19_11h32.53.048,face trait task,2021.2.3,Win32,60.60606061,120965,,,,,,,
,,,,,,4.955555725,2.6519,space,0.3371,0,20,20,33,1,34,image/34.jpg,0,0,,R_3VjvlLbPe9t3xLs,2,2024-05-19_11h32.53.048,face trait task,2021.2.3,Win32,60.60606061,120965,,,,,,,
,,,,,,4.955555725,1.2384,space,0.3686,0,21,21,27,1,28,image/28.jpg,0,0,,R_3VjvlLbPe9t3xLs,2,2024-05-19_11h32.53.048,face trait task,2021.2.3,Win32,60.60606061,120965,,,,,,,
,,,,,,4.01111145,3.9472,space,0.4111,0,22,22,39,1,40,image/40.jpg,0,0,,R_3VjvlLbPe9t3xLs,2,2024-05-19_11h32.53.048,face trait task,2021.2.3,Win32,60.60606061,120965,,,,,,,
,,,,,,4.983333333,3.7242,space,0.4,0,23,23,4,1,5,image/5.jpg,0,0,,R_3VjvlLbPe9t3xLs,2,2024-05-19_11h32.53.048,face trait task,2021.2.3,Win32,60.60606061,120965,,,,,,,
,,,,,,6.983333333,4.0612,space,0.2906,0,24,24,50,1,61,image/fill_img.png,1,7,Please move the slider all the way to the RIGHT to show that you are paying attention.,R_3VjvlLbPe9t3xLs,2,2024-05-19_11h32.53.048,face trait task,2021.2.3,Win32,60.60606061,120965,,,,,,,
,,,,,,4.994444784,3.1489,space,0.3336,0,25,25,15,1,16,image/16.jpg,0,0,,R_3VjvlLbPe9t3xLs,2,2024-05-19_11h32.53.048,face trait task,2021.2.3,Win32,60.60606061,120965,,,,,,,
,,,,,,4.994444784,1.3535,space,0.5937,0,26,26,31,1,32,image/32.jpg,0,0,,R_3VjvlLbPe9t3xLs,2,2024-05-19_11h32.53.048,face trait task,2021.2.3,Win32,60.60606061,120965,,,,,,,
,,,,,,4.994444784,1.3774,space,0.4162,0,27,27,13,1,14,image/14.jpg,0,0,,R_3VjvlLbPe9t3xLs,2,2024-05-19_11h32.53.048,face trait task,2021.2.3,Win32,60.60606061,120965,,,,,,,
,,,,,,4.994444784,1.2364,space,0.3182,0,28,28,46,1,47,image/47.jpg,0,0,,R_3VjvlLbPe9t3xLs,2,2024-05-19_11h32.53.048,face trait task,2021.2.3,Win32,60.60606061,120965,,,,,,,
,,,,,,4.994444784,1.1576,space,0.3332,0,29,29,1,1,2,image/2.jpg,0,0,,R_3VjvlLbPe9t3xLs,2,2024-05-19_11h32.53.048,face trait task,2021.2.3,Win32,60.60606061,120965,,,,,,,
,,,,,,4.994444784,1.2009,space,0.3056,0,30,30,0,1,1,image/1.jpg,0,0,,R_3VjvlLbPe9t3xLs,2,2024-05-19_11h32.53.048,face trait task,2021.2.3,Win32,60.60606061,120965,,,,,,,
,,,,,,3.955555725,2.1863,space,0.3525,0,31,31,11,1,12,image/12.jpg,0,0,,R_3VjvlLbPe9t3xLs,2,2024-05-19_11h32.53.048,face trait task,2021.2.3,Win32,60.60606061,120965,,,,,,,
,,,,,,4.994444784,1.6817,space,0.2024,0,32,32,3,1,4,image/4.jpg,0,0,,R_3VjvlLbPe9t3xLs,2,2024-05-19_11h32.53.048,face trait task,2021.2.3,Win32,60.60606061,120965,,,,,,,
,,,,,,3.983333333,2.2627,space,0.1222,0,33,33,44,1,45,image/45.jpg,0,0,,R_3VjvlLbPe9t3xLs,2,2024-05-19_11h32.53.048,face trait task,2021.2.3,Win32,60.60606061,120965,,,,,,,
,,,,,,4.972222392,1.9366,space,0.4022,0,34,34,21,1,22,image/22.jpg,0,0,,R_3VjvlLbPe9t3xLs,2,2024-05-19_11h32.53.048,face trait task,2021.2.3,Win32,60.60606061,120965,,,,,,,
,,,,,,4.972222392,1.3546,space,0.6524,0,35,35,28,1,29,image/29.jpg,0,0,,R_3VjvlLbPe9t3xLs,2,2024-05-19_11h32.53.048,face trait task,2021.2.3,Win32,60.60606061,120965,,,,,,,
,,,,,,1.005555725,2.7182,space,0.3172,0,36,36,51,1,53,image/fill_img.png,1,1,Please move the slider all the way to the LEFT to show that you are paying attention.,R_3VjvlLbPe9t3xLs,2,2024-05-19_11h32.53.048,face trait task,2021.2.3,Win32,60.60606061,120965,,,,,,,
,,,,,,5.027778117,2.1823,space,0.2556,0,37,37,48,1,49,image/49.jpg,0,0,,R_3VjvlLbPe9t3xLs,2,2024-05-19_11h32.53.048,face trait task,2021.2.3,Win32,60.60606061,120965,,,,,,,
,,,,,,5.027778117,1.6322,space,0.7666,0,38,38,20,1,21,image/21.jpg,0,0,,R_3VjvlLbPe9t3xLs,2,2024-05-19_11h32.53.048,face trait task,2021.2.3,Win32,60.60606061,120965,,,,,,,
,,,,,,4.01111145,2.1671,space,0.3511,0,39,39,38,1,39,image/39.jpg,0,0,,R_3VjvlLbPe9t3xLs,2,2024-05-19_11h32.53.048,face trait task,2021.2.3,Win32,60.60606061,120965,,,,,,,
,,,,,,4.01111145,1.2009,space,0.3452,0,40,40,22,1,23,image/23.jpg,0,0,,R_3VjvlLbPe9t3xLs,2,2024-05-19_11h32.53.048,face trait task,2021.2.3,Win32,60.60606061,120965,,,,,,,
,,,,,,5.016666667,2.7366,space,0.2846,0,41,41,17,1,18,image/18.jpg,0,0,,R_3VjvlLbPe9t3xLs,2,2024-05-19_11h32.53.048,face trait task,2021.2.3,Win32,60.60606061,120965,,,,,,,
,,,,,,5.016666667,1.1856,space,0.7674,0,42,42,16,1,17,image/17.jpg,0,0,,R_3VjvlLbPe9t3xLs,2,2024-05-19_11h32.53.048,face trait task,2021.2.3,Win32,60.60606061,120965,,,,,,,
,,,,,,4.027778117,3.1176,space,0.3002,0,43,43,45,1,46,image/46.jpg,0,0,,R_3VjvlLbPe9t3xLs,2,2024-05-19_11h32.53.048,face trait task,2021.2.3,Win32,60.60606061,120965,,,,,,,
,,,,,,5.022222392,2.4585,space,0.2945,0,44,44,18,1,19,image/19.jpg,0,0,,R_3VjvlLbPe9t3xLs,2,2024-05-19_11h32.53.048,face trait task,2021.2.3,Win32,60.60606061,120965,,,,,,,
,,,,,,5.022222392,1.2223,space,0.6173,0,45,45,29,1,30,image/30.jpg,0,0,,R_3VjvlLbPe9t3xLs,2,2024-05-19_11h32.53.048,face trait task,2021.2.3,Win32,60.60606061,120965,,,,,,,
,,,,,,5.022222392,1.3021,space,0.4336,0,46,46,34,1,35,image/35.jpg,0,0,,R_3VjvlLbPe9t3xLs,2,2024-05-19_11h32.53.048,face trait task,2021.2.3,Win32,60.60606061,120965,,,,,,,
,,,,,,5.022222392,1.2834,space,0.6486,0,47,47,35,1,36,image/36.jpg,0,0,,R_3VjvlLbPe9t3xLs,2,2024-05-19_11h32.53.048,face trait task,2021.2.3,Win32,60.60606061,120965,,,,,,,
,,,,,,4.005555725,2.0114,space,0.3179,0,48,48,37,1,38,image/38.jpg,0,0,,R_3VjvlLbPe9t3xLs,2,2024-05-19_11h32.53.048,face trait task,2021.2.3,Win32,60.60606061,120965,,,,,,,
,,,,,,4.005555725,1.7341,space,0.4205,0,49,49,41,1,42,image/42.jpg,0,0,,R_3VjvlLbPe9t3xLs,2,2024-05-19_11h32.53.048,face trait task,2021.2.3,Win32,60.60606061,120965,,,,,,,
,,,,,,4.005555725,1.3456,space,0.3904,0,50,50,5,1,6,image/6.jpg,0,0,,R_3VjvlLbPe9t3xLs,2,2024-05-19_11h32.53.048,face trait task,2021.2.3,Win32,60.60606061,120965,,,,,,,
,,,,,,4.005555725,1.9655,space,0.4,0,51,51,24,1,25,image/25.jpg,0,0,,R_3VjvlLbPe9t3xLs,2,2024-05-19_11h32.53.048,face trait task,2021.2.3,Win32,60.60606061,120965,,,,,,,
,,,,,,5,3.9257,space,0.1672,0,52,52,14,1,15,image/15.jpg,0,0,,R_3VjvlLbPe9t3xLs,2,2024-05-19_11h32.53.048,face trait task,2021.2.3,Win32,60.60606061,120965,,,,,,,
,,,,,,,,,,,,,,,,,,,,R_3VjvlLbPe9t3xLs,2,2024-05-19_11h32.53.048,face trait task,2021.2.3,Win32,60.60606061,120965,0,2,2,3,1,3,friendly.png
,,,,,critical,3.988889058,3.7101,space,0.6677,0,0,0,48,1,49,image/49.jpg,0,0,,R_3VjvlLbPe9t3xLs,2,2024-05-19_11h32.53.048,face trait task,2021.2.3,Win32,60.60606061,120965,,,,,,,
,,,,,,3.988889058,1.9532,space,2.7133,0,1,1,0,1,1,image/1.jpg,0,0,,R_3VjvlLbPe9t3xLs,2,2024-05-19_11h32.53.048,face trait task,2021.2.3,Win32,60.60606061,120965,,,,,,,
,,,,,,3.988889058,1.615,space,0.6511,0,2,2,38,1,39,image/39.jpg,0,0,,R_3VjvlLbPe9t3xLs,2,2024-05-19_11h32.53.048,face trait task,2021.2.3,Win32,60.60606061,120965,,,,,,,
,,,,,,3.988889058,2.1731,space,0.7576,0,3,3,12,1,13,image/13.jpg,0,0,,R_3VjvlLbPe9t3xLs,2,2024-05-19_11h32.53.048,face trait task,2021.2.3,Win32,60.60606061,120965,,,,,,,
,,,,,,3.988889058,1.9179,space,3.9481,0,4,4,21,1,22,image/22.jpg,0,0,,R_3VjvlLbPe9t3xLs,2,2024-05-19_11h32.53.048,face trait task,2021.2.3,Win32,60.60606061,120965,,,,,,,
,,,,,,3.988889058,1.2937,space,0.6993,0,5,5,39,1,40,image/40.jpg,0,0,,R_3VjvlLbPe9t3xLs,2,2024-05-19_11h32.53.048,face trait task,2021.2.3,Win32,60.60606061,120965,,,,,,,
,,,,,,3.988889058,2.1588,space,0.6191,0,6,6,15,1,16,image/16.jpg,0,0,,R_3VjvlLbPe9t3xLs,2,2024-05-19_11h32.53.048,face trait task,2021.2.3,Win32,60.60606061,120965,,,,,,,
,,,,,,3.988889058,1.4678,space,1.0011,0,7,7,47,1,48,image/48.jpg,0,0,,R_3VjvlLbPe9t3xLs,2,2024-05-19_11h32.53.048,face trait task,2021.2.3,Win32,60.60606061,120965,,,,,,,
,,,,,,3.988889058,1.3483,space,1.0331,0,8,8,16,1,17,image/17.jpg,0,0,,R_3VjvlLbPe9t3xLs,2,2024-05-19_11h32.53.048,face trait task,2021.2.3,Win32,60.60606061,120965,,,,,,,
,,,,,,3.988889058,1.5502,space,0.8168,0,9,9,34,1,35,image/35.jpg,0,0,,R_3VjvlLbPe9t3xLs,2,2024-05-19_11h32.53.048,face trait task,2021.2.3,Win32,60.60606061,120965,,,,,,,
,,,,,,3.988889058,2.3331,space,0.3725,0,10,10,18,1,19,image/19.jpg,0,0,,R_3VjvlLbPe9t3xLs,2,2024-05-19_11h32.53.048,face trait task,2021.2.3,Win32,60.60606061,120965,,,,,,,
,,,,,,3.988889058,1.367,space,0.7327,0,11,11,6,1,7,image/7.jpg,0,0,,R_3VjvlLbPe9t3xLs,2,2024-05-19_11h32.53.048,face trait task,2021.2.3,Win32,60.60606061,120965,,,,,,,
,,,,,,6.972222392,2.9629,space,0.471,0,12,12,50,1,61,image/fill_img.png,1,7,Please move the slider all the way to the RIGHT to show that you are paying attention.,R_3VjvlLbPe9t3xLs,2,2024-05-19_11h32.53.048,face trait task,2021.2.3,Win32,60.60606061,120965,,,,,,,
,,,,,,3.983333333,1.7522,space,0.4351,0,13,13,11,1,12,image/12.jpg,0,0,,R_3VjvlLbPe9t3xLs,2,2024-05-19_11h32.53.048,face trait task,2021.2.3,Win32,60.60606061,120965,,,,,,,
,,,,,,3.983333333,1.9916,space,0.5947,0,14,14,19,1,20,image/20.jpg,0,0,,R_3VjvlLbPe9t3xLs,2,2024-05-19_11h32.53.048,face trait task,2021.2.3,Win32,60.60606061,120965,,,,,,,
,,,,,,3.983333333,1.417,space,0.449,0,15,15,36,1,37,image/37.jpg,0,0,,R_3VjvlLbPe9t3xLs,2,2024-05-19_11h32.53.048,face trait task,2021.2.3,Win32,60.60606061,120965,,,,,,,
,,,,,,3.983333333,2.0865,space,0.7494,0,16,16,26,1,27,image/27.jpg,0,0,,R_3VjvlLbPe9t3xLs,2,2024-05-19_11h32.53.048,face trait task,2021.2.3,Win32,60.60606061,120965,,,,,,,
,,,,,,3.994444784,2.6448,space,0.7532,0,17,17,4,1,5,image/5.jpg,0,0,,R_3VjvlLbPe9t3xLs,2,2024-05-19_11h32.53.048,face trait task,2021.2.3,Win32,60.60606061,120965,,,,,,,
,,,,,,3.994444784,1.5829,space,0.6834,0,18,18,13,1,14,image/14.jpg,0,0,,R_3VjvlLbPe9t3xLs,2,2024-05-19_11h32.53.048,face trait task,2021.2.3,Win32,60.60606061,120965,,,,,,,
,,,,,,3.994444784,1.5178,space,0.4228,0,19,19,25,1,26,image/26.jpg,0,0,,R_3VjvlLbPe9t3xLs,2,2024-05-19_11h32.53.048,face trait task,2021.2.3,Win32,60.60606061,120965,,,,,,,
,,,,,,3.994444784,1.9705,space,0.4862,0,20,20,33,1,34,image/34.jpg,0,0,,R_3VjvlLbPe9t3xLs,2,2024-05-19_11h32.53.048,face trait task,2021.2.3,Win32,60.60606061,120965,,,,,,,
,,,,,,3.994444784,1.3503,space,0.4539,0,21,21,28,1,29,image/29.jpg,0,0,,R_3VjvlLbPe9t3xLs,2,2024-05-19_11h32.53.048,face trait task,2021.2.3,Win32,60.60606061,120965,,,,,,,
,,,,,,3.994444784,1.6833,space,0.4528,0,22,22,49,1,50,image/50.jpg,0,0,,R_3VjvlLbPe9t3xLs,2,2024-05-19_11h32.53.048,face trait task,2021.2.3,Win32,60.60606061,120965,,,,,,,
,,,,,,3.994444784,1.5044,space,1.3338,0,23,23,31,1,32,image/32.jpg,0,0,,R_3VjvlLbPe9t3xLs,2,2024-05-19_11h32.53.048,face trait task,2021.2.3,Win32,60.60606061,120965,,,,,,,
,,,,,,3.994444784,1.3204,space,0.9406,0,24,24,32,1,33,image/33.jpg,0,0,,R_3VjvlLbPe9t3xLs,2,2024-05-19_11h32.53.048,face trait task,2021.2.3,Win32,60.60606061,120965,,,,,,,
,,,,,,3.994444784,1.2932,space,0.9996,0,25,25,24,1,25,image/25.jpg,0,0,,R_3VjvlLbPe9t3xLs,2,2024-05-19_11h32.53.048,face trait task,2021.2.3,Win32,60.60606061,120965,,,,,,,
,,,,,,3.994444784,1.4668,space,0.747,0,26,26,46,1,47,image/47.jpg,0,0,,R_3VjvlLbPe9t3xLs,2,2024-05-19_11h32.53.048,face trait task,2021.2.3,Win32,60.60606061,120965,,,,,,,
,,,,,,3.994444784,1.549,space,1.3279,0,27,27,17,1,18,image/18.jpg,0,0,,R_3VjvlLbPe9t3xLs,2,2024-05-19_11h32.53.048,face trait task,2021.2.3,Win32,60.60606061,120965,,,,,,,
,,,,,,3.994444784,3.8671,space,0.5816,0,28,28,41,1,42,image/42.jpg,0,0,,R_3VjvlLbPe9t3xLs,2,2024-05-19_11h32.53.048,face trait task,2021.2.3,Win32,60.60606061,120965,,,,,,,
,,,,,,3.994444784,3.2365,space,2.2491,0,29,29,27,1,28,image/28.jpg,0,0,,R_3VjvlLbPe9t3xLs,2,2024-05-19_11h32.53.048,face trait task,2021.2.3,Win32,60.60606061,120965,,,,,,,
,,,,,,3.994444784,1.1949,space,0.6878,0,30,30,14,1,15,image/15.jpg,0,0,,R_3VjvlLbPe9t3xLs,2,2024-05-19_11h32.53.048,face trait task,2021.2.3,Win32,60.60606061,120965,,,,,,,
,,,,,,3.994444784,1.3256,space,1.1697,0,31,31,8,1,9,image/9.jpg,0,0,,R_3VjvlLbPe9t3xLs,2,2024-05-19_11h32.53.048,face trait task,2021.2.3,Win32,60.60606061,120965,,,,,,,
,,,,,,3.994444784,1.8461,space,0.7339,0,32,32,9,1,10,image/10.jpg,0,0,,R_3VjvlLbPe9t3xLs,2,2024-05-19_11h32.53.048,face trait task,2021.2.3,Win32,60.60606061,120965,,,,,,,
,,,,,,6.944444784,2.7849,space,0.3662,0,33,33,52,1,57,image/fill_img.png,1,7,Please move the slider all the way to the RIGHT to show that you are paying attention.,R_3VjvlLbPe9t3xLs,2,2024-05-19_11h32.53.048,face trait task,2021.2.3,Win32,60.60606061,120965,,,,,,,
,,,,,,4.016666667,2.8212,space,0.7665,0,34,34,23,1,24,image/24.jpg,0,0,,R_3VjvlLbPe9t3xLs,2,2024-05-19_11h32.53.048,face trait task,2021.2.3,Win32,60.60606061,120965,,,,,,,
,,,,,,4.016666667,1.2367,space,0.7762,0,35,35,5,1,6,image/6.jpg,0,0,,R_3VjvlLbPe9t3xLs,2,2024-05-19_11h32.53.048,face trait task,2021.2.3,Win32,60.60606061,120965,,,,,,,
,,,,,,3.983333333,1.992,space,1.0843,0,36,36,2,1,3,image/3.jpg,0,0,,R_3VjvlLbPe9t3xLs,2,2024-05-19_11h32.53.048,face trait task,2021.2.3,Win32,60.60606061,120965,,,,,,,
,,,,,,3.983333333,1.3989,space,1.0005,0,37,37,35,1,36,image/36.jpg,0,0,,R_3VjvlLbPe9t3xLs,2,2024-05-19_11h32.53.048,face trait task,2021.2.3,Win32,60.60606061,120965,,,,,,,
,,,,,,3.983333333,1.3967,space,1.6886,0,38,38,42,1,43,image/43.jpg,0,0,,R_3VjvlLbPe9t3xLs,2,2024-05-19_11h32.53.048,face trait task,2021.2.3,Win32,60.60606061,120965,,,,,,,
,,,,,,3.983333333,2.1779,space,1.0458,0,39,39,40,1,41,image/41.jpg,0,0,,R_3VjvlLbPe9t3xLs,2,2024-05-19_11h32.53.048,face trait task,2021.2.3,Win32,60.60606061,120965,,,,,,,
,,,,,,3.983333333,2.3521,space,1.6435,0,40,40,29,1,30,image/30.jpg,0,0,,R_3VjvlLbPe9t3xLs,2,2024-05-19_11h32.53.048,face trait task,2021.2.3,Win32,60.60606061,120965,,,,,,,
,,,,,,3.983333333,1.4228,space,0.7428,0,41,41,37,1,38,image/38.jpg,0,0,,R_3VjvlLbPe9t3xLs,2,2024-05-19_11h32.53.048,face trait task,2021.2.3,Win32,60.60606061,120965,,,,,,,
,,,,,,3.983333333,1.1962,space,2.3173,0,42,42,22,1,23,image/23.jpg,0,0,,R_3VjvlLbPe9t3xLs,2,2024-05-19_11h32.53.048,face trait task,2021.2.3,Win32,60.60606061,120965,,,,,,,
,,,,,,1.038889058,7.3156,space,0.3828,0,43,43,51,1,53,image/fill_img.png,1,1,Please move the slider all the way to the LEFT to show that you are paying attention.,R_3VjvlLbPe9t3xLs,2,2024-05-19_11h32.53.048,face trait task,2021.2.3,Win32,60.60606061,120965,,,,,,,
,,,,,,3.994444784,2.301,space,0.3666,0,44,44,44,1,45,image/45.jpg,0,0,,R_3VjvlLbPe9t3xLs,2,2024-05-19_11h32.53.048,face trait task,2021.2.3,Win32,60.60606061,120965,,,,,,,
,,,,,,3.994444784,1.3234,space,1.7507,0,45,45,30,1,31,image/31.jpg,0,0,,R_3VjvlLbPe9t3xLs,2,2024-05-19_11h32.53.048,face trait task,2021.2.3,Win32,60.60606061,120965,,,,,,,
,,,,,,3.994444784,2.144,space,0.72,0,46,46,3,1,4,image/4.jpg,0,0,,R_3VjvlLbPe9t3xLs,2,2024-05-19_11h32.53.048,face trait task,2021.2.3,Win32,60.60606061,120965,,,,,,,
,,,,,,3.994444784,2.0935,space,1.2169,0,47,47,43,1,44,image/44.jpg,0,0,,R_3VjvlLbPe9t3xLs,2,2024-05-19_11h32.53.048,face trait task,2021.2.3,Win32,60.60606061,120965,,,,,,,
,,,,,,3.994444784,2.5003,space,1.8999,0,48,48,10,1,11,image/11.jpg,0,0,,R_3VjvlLbPe9t3xLs,2,2024-05-19_11h32.53.048,face trait task,2021.2.3,Win32,60.60606061,120965,,,,,,,
,,,,,,3.994444784,1.3615,space,0.908,0,49,49,20,1,21,image/21.jpg,0,0,,R_3VjvlLbPe9t3xLs,2,2024-05-19_11h32.53.048,face trait task,2021.2.3,Win32,60.60606061,120965,,,,,,,
,,,,,,3.994444784,1.478,space,1.0698,0,50,50,7,1,8,image/8.jpg,0,0,,R_3VjvlLbPe9t3xLs,2,2024-05-19_11h32.53.048,face trait task,2021.2.3,Win32,60.60606061,120965,,,,,,,
,,,,,,3.994444784,1.7413,space,0.7426,0,51,51,45,1,46,image/46.jpg,0,0,,R_3VjvlLbPe9t3xLs,2,2024-05-19_11h32.53.048,face trait task,2021.2.3,Win32,60.60606061,120965,,,,,,,
,,,,,,3.994444784,1.8037,space,1.0803,0,52,52,1,1,2,image/2.jpg,0,0,,R_3VjvlLbPe9t3xLs,2,2024-05-19_11h32.53.048,face trait task,2021.2.3,Win32,60.60606061,120965,,,,,,,
,,,,,,,,,,,,,,,,,,,,R_3VjvlLbPe9t3xLs,2,2024-05-19_11h32.53.048,face trait task,2021.2.3,Win32,60.60606061,120965,0,3,3,0,1,0,critical.png
