chooserow,ParID,pre_instru_resp_2.keys,pre_instru_resp_2.rt,pre_instru_resp_3.keys,pre_instru_resp_3.rt,pre_instru_resp_9.keys,pre_instru_resp_9.rt,pre_instru_resp_8.keys,pre_instru_resp_8.rt,pre_instru_resp_4.keys,pre_instru_resp_4.rt,pre_instru_resp_5.keys,pre_instru_resp_5.rt,pre_instru_resp_6.keys,pre_instru_resp_6.rt,key_resp_3.keys,key_resp_3.rt,key_resp_4.keys,key_resp_4.rt,key_resp_5.keys,key_resp_5.rt,key_resp_6.keys,key_resp_6.rt,key_resp_7.keys,key_resp_7.rt,trials_2.thisRepN,trials_2.thisTrialN,trials_2.thisN,trials_2.thisIndex,trials_2.ran,participant,session,date,expName,psychopyVersion,OS,frameRate,SONAid,pre_instru_resp.keys,pre_instru_resp.rt,clicked,judge_2.x,judge_2.y,judge_2.leftButton,judge_2.midButton,judge_2.rightButton,judge_2.clicked_name,trials.thisRepN,trials.thisTrialN,trials.thisN,trials.thisIndex,trials.ran,prac_answer,prac_dot_sti,dotlefttext,dotrighttext,prac_acc,judge.x,judge.y,judge.leftButton,judge.midButton,judge.rightButton,judge.clicked_name,clicked_guilt,slider_guilt.response,slider_guilt.rt,key_guilt.keys,share_slider.response,share_slider.rt,key_share.keys,slider_apology.response,slider_apology.rt,key_apology.keys,slider_hide.response,slider_hide.rt,slider_forgiveness.response,slider_forgiveness.rt,key_forgiveness.keys,slider_mad.response,slider_mad.rt,trialseq.thisRepN,trialseq.thisTrialN,trialseq.thisN,trialseq.thisIndex,trialseq.ran,type_trial,stipic,DV,picture,answer,number,key_apology.rt,key_guilt.rt,key_share.rt,key_forgiveness.rt
"[26,77,98,64,168,128,84,146,92,176,101,11,126,56,180,120,162,186,171,141,104,148,43,150,55,181,79,157,110,73,115,66,140,112,194,142,51,91,13,163,201,70]",R_3Vxfev3MGsXgbK1,space,1.7528,space,6.4484,space,18.1767,space,40.62,space,6.77,space,7.8986,space,3.1116,2,9.8452,1,11.8572,2,10.9948,1,9.5708,3,3.7061,0,0,0,0,1,R_3Vxfev3MGsXgbK1,1,2024-05-13_17h19.59.730,interaction task,2021.2.3,MacIntel,60.24096386,120801,,,,,,,,,,,,,,,,,,,,,,,,,,,,,,,,,,,,,,,,,,,,,,,,,,,,,,,,,
,,,,space,0.0459,space,20.4019,space,16.612,space,36.3942,space,9.3095,space,2.2141,3,4.6158,1,3.8011,2,5.2303,2,2.9341,2,3.7972,1,0,1,0,1,R_3Vxfev3MGsXgbK1,1,2024-05-13_17h19.59.730,interaction task,2021.2.3,MacIntel,60.24096386,120801,,,,,,,,,,,,,,,,,,,,,,,,,,,,,,,,,,,,,,,,,,,,,,,,,,,,,,,,,
,,,,space,0.1021,space,2.0475,space,0.2501,space,0.2491,space,7.8671,space,22.3055,3,2.5534,1,20.0188,3,7.6096,2,1.7656,2,0.6787,2,0,2,0,1,R_3Vxfev3MGsXgbK1,1,2024-05-13_17h19.59.730,interaction task,2021.2.3,MacIntel,60.24096386,120801,,,,,,,,,,,,,,,,,,,,,,,,,,,,,,,,,,,,,,,,,,,,,,,,,,,,,,,,,
,,,,,,,,,,,,,,,,,,,,,,,,,,,,,,,R_3Vxfev3MGsXgbK1,1,2024-05-13_17h19.59.730,interaction task,2021.2.3,MacIntel,60.24096386,120801,space,5.4068,"[""LeftButton_2""]",-0.303960503,-0.302560764,1,0,0,LeftButton_2,0,0,0,2,1,RightButton_2,9dot1.png,Greater,Smaller,,,,,,,,,,,,,,,,,,,,,,,,,,,,,,,,,,,,,,,
,,,,,,,,,,,,,,,,,,,,,,,,,,,,,,,R_3Vxfev3MGsXgbK1,1,2024-05-13_17h19.59.730,interaction task,2021.2.3,MacIntel,60.24096386,120801,,,"[""RightButton_2""]",0.284564887,-0.323098958,1,0,0,RightButton_2,0,1,1,0,1,RightButton_2,11dot1.png,Smaller,Greater,,,,,,,,,,,,,,,,,,,,,,,,,,,,,,,,,,,,,,,
,,,,,,,,,,,,,,,,,,,,,,,,,,,,,,,R_3Vxfev3MGsXgbK1,1,2024-05-13_17h19.59.730,interaction task,2021.2.3,MacIntel,60.24096386,120801,,,"[""RightButton_2""]",0.286653646,-0.323342014,1,0,0,RightButton_2,0,2,2,1,1,LeftButton_2,11dot1.png,Greater,Smaller,,,,,,,,,,,,,,,,,,,,,,,,,,,,,,,,,,,,,,,
,,,,,,,,,,,,,,,,,,,,,,,,,,,,,,,R_3Vxfev3MGsXgbK1,1,2024-05-13_17h19.59.730,interaction task,2021.2.3,MacIntel,60.24096386,120801,,,,,,,,,,,,,,,,,Greater,Smaller,0.2,-0.32132704,-0.530798611,1,0,0,LeftButton,"[""LeftButton""]",,,,,,,,,,,,,,,,,0,0,0,0,1,0,both_right.png,2,RandomDot36.png,No answer,19,,,,
,,,,,,,,,,,,,,,,,,,,,,,,,,,,,,,R_3Vxfev3MGsXgbK1,1,2024-05-13_17h19.59.730,interaction task,2021.2.3,MacIntel,60.24096386,120801,,,,,,,,,,,,,,,,,Greater,Smaller,,0.290869141,-0.5409375,1,0,0,RightButton,"[""RightButton""]",,,,,,,50,11.9995,space,31,17.9119,,,,,,0,1,1,1,1,1,both_wrong.png,2,RandomDot13.png,No answer,21,1.2637,,,
,,,,,,,,,,,,,,,,,,,,,,,,,,,,,,,R_3Vxfev3MGsXgbK1,1,2024-05-13_17h19.59.730,interaction task,2021.2.3,MacIntel,60.24096386,120801,,,,,,,,,,,,,,,,,Greater,Smaller,,-0.297357856,-0.500060764,1,0,0,LeftButton,"[""LeftButton""]",1,5.3306,space,,,,,,,,,,,,,,0,2,2,2,1,2,only_sub_right.png,0,RandomDot16.png,No answer,20,,1.5167,,
,,,,,,,,,,,,,,,,,,,,,,,,,,,,,,,R_3Vxfev3MGsXgbK1,1,2024-05-13_17h19.59.730,interaction task,2021.2.3,MacIntel,60.24096386,120801,,,,,,,,,,,,,,,,,Greater,Smaller,,0.353884549,-0.496284722,1,0,0,RightButton,"[""RightButton""]",,,,3.48196072,10.7645,space,,,,,,,,,,,0,3,3,3,1,1,both_wrong.png,1,RandomDot6.png,No answer,20,,,1.3635,
,,,,,,,,,,,,,,,,,,,,,,,,,,,,,,,R_3Vxfev3MGsXgbK1,1,2024-05-13_17h19.59.730,interaction task,2021.2.3,MacIntel,60.24096386,120801,,,,,,,,,,,,,,,,,Greater,Smaller,,0.275954861,-0.508949653,1,0,0,RightButton,"[""RightButton""]",,,,,,,81,5.3825,space,14,7.5148,,,,,,0,4,4,4,1,3,only_sub_wrong.png,2,RandomDot13.png,No answer,21,0.9864,,,
,,,,,,,,,,,,,,,,,,,,,,,,,,,,,,,R_3Vxfev3MGsXgbK1,1,2024-05-13_17h19.59.730,interaction task,2021.2.3,MacIntel,60.24096386,120801,,,,,,,,,,,,,,,,,Smaller,Greater,,-0.229844835,-0.467621528,1,0,0,LeftButton,"[""LeftButton""]",,,,,,,1,7.7809,space,8,11.5448,,,,,,0,5,5,5,1,2,only_sub_right.png,2,RandomDot22.png,No answer,20,0.8736,,,
,,,,,,,,,,,,,,,,,,,,,,,,,,,,,,,R_3Vxfev3MGsXgbK1,1,2024-05-13_17h19.59.730,interaction task,2021.2.3,MacIntel,60.24096386,120801,,,,,,,,,,,,,,,,,Greater,Smaller,,-0.311751302,-0.480017361,1,0,0,LeftButton,"[""LeftButton""]",,,,,,,,,,,,48.05454721,4.1944,space,46.10142221,7.8312,0,6,6,6,1,1,both_wrong.png,3,RandomDot6.png,No answer,20,,,,1.5663
,,,,,,,,,,,,,,,,,,,,,,,,,,,,,,,R_3Vxfev3MGsXgbK1,1,2024-05-13_17h19.59.730,interaction task,2021.2.3,MacIntel,60.24096386,120801,,,,,,,,,,,,,,,,,Greater,Smaller,,-0.293408203,-0.511510417,1,0,0,LeftButton,"[""LeftButton""]",70,3.551,space,,,,,,,,,,,,,,0,7,7,7,1,3,only_sub_wrong.png,0,RandomDot38.png,No answer,21,,0.7391,,
,,,,,,,,,,,,,,,,,,,,,,,,,,,,,,,R_3Vxfev3MGsXgbK1,1,2024-05-13_17h19.59.730,interaction task,2021.2.3,MacIntel,60.24096386,120801,,,,,,,,,,,,,,,,,Smaller,Greater,,0.316427951,-0.511527778,1,0,0,RightButton,"[""RightButton""]",,,,,,,,,,,,49.17249754,4.7116,space,41.4246633,8.592,0,8,8,8,1,1,both_wrong.png,3,RandomDot7.png,No answer,21,,,,0.5536
,,,,,,,,,,,,,,,,,,,,,,,,,,,,,,,R_3Vxfev3MGsXgbK1,1,2024-05-13_17h19.59.730,interaction task,2021.2.3,MacIntel,60.24096386,120801,,,,,,,,,,,,,,,,,Smaller,Greater,,0.247591146,-0.528810764,1,0,0,RightButton,"[""RightButton""]",,,,,,,68,3.609,space,18,6.8142,,,,,,0,9,9,9,1,3,only_sub_wrong.png,2,RandomDot40.png,No answer,20,1.2724,,,
,,,,,,,,,,,,,,,,,,,,,,,,,,,,,,,R_3Vxfev3MGsXgbK1,1,2024-05-13_17h19.59.730,interaction task,2021.2.3,MacIntel,60.24096386,120801,,,,,,,,,,,,,,,,,Greater,Smaller,,0.291069878,-0.530442708,1,0,0,RightButton,"[""RightButton""]",10,4.1022,space,,,,,,,,,,,,,,0,10,10,10,1,2,only_sub_right.png,0,RandomDot18.png,No answer,21,,1.9295,,
,,,,,,,,,,,,,,,,,,,,,,,,,,,,,,,R_3Vxfev3MGsXgbK1,1,2024-05-13_17h19.59.730,interaction task,2021.2.3,MacIntel,60.24096386,120801,,,,,,,,,,,,,,,,,Smaller,Greater,,0.3293023,-0.539722222,1,0,0,RightButton,"[""RightButton""]",,,,,,,,,,,,,,,,,0,11,11,11,1,0,both_right.png,0,RandomDot38.png,No answer,21,,,,
,,,,,,,,,,,,,,,,,,,,,,,,,,,,,,,R_3Vxfev3MGsXgbK1,1,2024-05-13_17h19.59.730,interaction task,2021.2.3,MacIntel,60.24096386,120801,,,,,,,,,,,,,,,,,Smaller,Greater,,-0.326453993,-0.490946181,1,0,0,LeftButton,"[""LeftButton""]",,,,,,,4,7.782,space,8,10.1046,,,,,,0,12,12,12,1,2,only_sub_right.png,2,RandomDot34.png,No answer,20,0.4683,,,
,,,,,,,,,,,,,,,,,,,,,,,,,,,,,,,R_3Vxfev3MGsXgbK1,1,2024-05-13_17h19.59.730,interaction task,2021.2.3,MacIntel,60.24096386,120801,,,,,,,,,,,,,,,,,Smaller,Greater,,-0.329985894,-0.491796875,1,0,0,LeftButton,"[""LeftButton""]",51,2.3178,space,,,,,,,,,,,,,,0,13,13,13,1,1,both_wrong.png,0,RandomDot39.png,No answer,21,,0.2679,,
,,,,,,,,,,,,,,,,,,,,,,,,,,,,,,,R_3Vxfev3MGsXgbK1,1,2024-05-13_17h19.59.730,interaction task,2021.2.3,MacIntel,60.24096386,120801,,,,,,,,,,,,,,,,,Greater,Smaller,,-0.285129123,-0.524670139,1,0,0,LeftButton,"[""LeftButton""]",,,,,,,,,,,,49.01083316,3.1156,space,49.46349344,4.8159,0,14,14,14,1,3,only_sub_wrong.png,3,RandomDot20.png,No answer,19,,,,0.3177
,,,,,,,,,,,,,,,,,,,,,,,,,,,,,,,R_3Vxfev3MGsXgbK1,1,2024-05-13_17h19.59.730,interaction task,2021.2.3,MacIntel,60.24096386,120801,,,,,,,,,,,,,,,,,Greater,Smaller,,-0.234624566,-0.508342014,1,0,0,LeftButton,"[""LeftButton""]",,,,,,,3,6.2666,space,7,8.6679,,,,,,0,15,15,15,1,2,only_sub_right.png,2,RandomDot21.png,No answer,21,0.4347,,,
,,,,,,,,,,,,,,,,,,,,,,,,,,,,,,,R_3Vxfev3MGsXgbK1,1,2024-05-13_17h19.59.730,interaction task,2021.2.3,MacIntel,60.24096386,120801,,,,,,,,,,,,,,,,,Smaller,Greater,,-0.363232422,-0.526171875,1,0,0,LeftButton,"[""LeftButton""]",,,,4.014024523,7.0127,space,,,,,,,,,,,0,16,16,16,1,3,only_sub_wrong.png,1,RandomDot15.png,No answer,21,,,0.7659,
,,,,,,,,,,,,,,,,,,,,,,,,,,,,,,,R_3Vxfev3MGsXgbK1,1,2024-05-13_17h19.59.730,interaction task,2021.2.3,MacIntel,60.24096386,120801,,,,,,,,,,,,,,,,,Smaller,Greater,,0.310167101,-0.5075,1,0,0,RightButton,"[""RightButton""]",,,,,,,,,,,,50.30250421,2.5301,space,49.34073811,3.5301,0,17,17,17,1,3,only_sub_wrong.png,3,RandomDot9.png,No answer,19,,,,0.1689
,,,,,,,,,,,,,,,,,,,,,,,,,,,,,,,R_3Vxfev3MGsXgbK1,1,2024-05-13_17h19.59.730,interaction task,2021.2.3,MacIntel,60.24096386,120801,,,,,,,,,,,,,,,,,Greater,Smaller,,0.299235026,-0.497482639,1,0,0,RightButton,"[""RightButton""]",,,,,,,69,6.848,space,9,8.9173,,,,,,0,18,18,18,1,3,only_sub_wrong.png,2,RandomDot23.png,No answer,20,0.6131,,,
,,,,,,,,,,,,,,,,,,,,,,,,,,,,,,,R_3Vxfev3MGsXgbK1,1,2024-05-13_17h19.59.730,interaction task,2021.2.3,MacIntel,60.24096386,120801,,,,,,,,,,,,,,,,,Smaller,Greater,,-0.296625434,-0.510928819,1,0,0,LeftButton,"[""LeftButton""]",,,,,,,,,,,,49.56597222,8.7627,space,48.4041807,9.7142,0,19,19,19,1,2,only_sub_right.png,3,RandomDot7.png,No answer,20,,,,0.2851
,,,,,,,,,,,,,,,,,,,,,,,,,,,,,,,R_3Vxfev3MGsXgbK1,1,2024-05-13_17h19.59.730,interaction task,2021.2.3,MacIntel,60.24096386,120801,,,,,,,,,,,,,,,,,Smaller,Greater,,-0.291433377,-0.510425347,1,0,0,LeftButton,"[""LeftButton""]",1,2.1528,space,,,,,,,,,,,,,,0,20,20,20,1,2,only_sub_right.png,0,RandomDot29.png,No answer,20,,0.7892,,
,,,,,,,,,,,,,,,,,,,,,,,,,,,,,,,R_3Vxfev3MGsXgbK1,1,2024-05-13_17h19.59.730,interaction task,2021.2.3,MacIntel,60.24096386,120801,,,,,,,,,,,,,,,,,Greater,Smaller,,0.303629557,-0.511935764,1,0,0,RightButton,"[""RightButton""]",50,3.0004,space,,,,,,,,,,,,,,0,21,21,21,1,3,only_sub_wrong.png,0,RandomDot12.png,No answer,20,,0.1806,,
,,,,,,,,,,,,,,,,,,,,,,,,,,,,,,,R_3Vxfev3MGsXgbK1,1,2024-05-13_17h19.59.730,interaction task,2021.2.3,MacIntel,60.24096386,120801,,,,,,,,,,,,,,,,,Smaller,Greater,,-0.32852105,-0.501796875,1,0,0,LeftButton,"[""LeftButton""]",,,,,,,,,,,,,,,,,0,22,22,22,1,0,both_right.png,3,RandomDot3.png,No answer,21,,,,
,,,,,,,,,,,,,,,,,,,,,,,,,,,,,,,R_3Vxfev3MGsXgbK1,1,2024-05-13_17h19.59.730,interaction task,2021.2.3,MacIntel,60.24096386,120801,,,,,,,,,,,,,,,,,Smaller,Greater,,-0.315521918,-0.498229167,1,0,0,LeftButton,"[""LeftButton""]",71,2.0536,space,,,,,,,,,,,,,,0,23,23,23,1,3,only_sub_wrong.png,0,RandomDot16.png,No answer,21,,0.4338,,
,,,,,,,,,,,,,,,,,,,,,,,,,,,,,,,R_3Vxfev3MGsXgbK1,1,2024-05-13_17h19.59.730,interaction task,2021.2.3,MacIntel,60.24096386,120801,,,,,,,,,,,,,,,,,Smaller,Greater,,-0.247710503,-0.507421875,1,0,0,LeftButton,"[""LeftButton""]",20,2.0865,space,,,,,,,,,,,,,,0,24,24,24,1,1,both_wrong.png,0,RandomDot28.png,No answer,19,,0.4688,,
,,,,,,,,,,,,,,,,,,,,,,,,,,,,,,,R_3Vxfev3MGsXgbK1,1,2024-05-13_17h19.59.730,interaction task,2021.2.3,MacIntel,60.24096386,120801,,,,,,,,,,,,,,,,,Greater,Smaller,,0.278238932,-0.526006944,1,0,0,RightButton,"[""RightButton""]",,,,,,,,,,,,48.3712998,4.1598,space,48.81738391,5.3961,0,25,25,25,1,3,only_sub_wrong.png,3,RandomDot3.png,No answer,19,,,,0.2367
,,,,,,,,,,,,,,,,,,,,,,,,,,,,,,,R_3Vxfev3MGsXgbK1,1,2024-05-13_17h19.59.730,interaction task,2021.2.3,MacIntel,60.24096386,120801,,,,,,,,,,,,,,,,,Smaller,Greater,,-0.262792969,-0.498706597,1,0,0,LeftButton,"[""LeftButton""]",,,,,,,50,5.2456,space,10,7.6104,,,,,,0,26,26,26,1,1,both_wrong.png,2,RandomDot24.png,No answer,21,0.2376,,,
,,,,,,,,,,,,,,,,,,,,,,,,,,,,,,,R_3Vxfev3MGsXgbK1,1,2024-05-13_17h19.59.730,interaction task,2021.2.3,MacIntel,60.24096386,120801,,,,,,,,,,,,,,,,,Greater,Smaller,,0.264577908,-0.535434028,1,0,0,RightButton,"[""RightButton""]",,,,4.076687283,6.6119,space,,,,,,,,,,,0,27,27,27,1,3,only_sub_wrong.png,1,RandomDot8.png,No answer,21,,,0.9856,
,,,,,,,,,,,,,,,,,,,,,,,,,,,,,,,R_3Vxfev3MGsXgbK1,1,2024-05-13_17h19.59.730,interaction task,2021.2.3,MacIntel,60.24096386,120801,,,,,,,,,,,,,,,,,Greater,Smaller,,0.216617839,-0.532795139,1,0,0,RightButton,"[""RightButton""]",,,,4.041883681,4.3288,space,,,,,,,,,,,0,28,28,28,1,2,only_sub_right.png,1,RandomDot6.png,No answer,21,,,0.2509,
,,,,,,,,,,,,,,,,,,,,,,,,,,,,,,,R_3Vxfev3MGsXgbK1,1,2024-05-13_17h19.59.730,interaction task,2021.2.3,MacIntel,60.24096386,120801,,,,,,,,,,,,,,,,,Greater,Smaller,,-0.323942057,-0.540199653,1,0,0,LeftButton,"[""LeftButton""]",,,,,,,75,6.5453,space,7,10.3303,,,,,,0,29,29,29,1,1,both_wrong.png,2,RandomDot24.png,No answer,19,0.3152,,,
,,,,,,,,,,,,,,,,,,,,,,,,,,,,,,,R_3Vxfev3MGsXgbK1,1,2024-05-13_17h19.59.730,interaction task,2021.2.3,MacIntel,60.24096386,120801,,,,,,,,,,,,,,,,,Smaller,Greater,,-0.271636285,-0.479548611,1,0,0,LeftButton,"[""LeftButton""]",,,,2.936930339,2.5348,space,,,,,,,,,,,0,30,30,30,1,2,only_sub_right.png,1,RandomDot14.png,No answer,20,,,0.3196,
,,,,,,,,,,,,,,,,,,,,,,,,,,,,,,,R_3Vxfev3MGsXgbK1,1,2024-05-13_17h19.59.730,interaction task,2021.2.3,MacIntel,60.24096386,120801,,,,,,,,,,,,,,,,,Smaller,Greater,,0.267659505,-0.498932292,1,0,0,RightButton,"[""RightButton""]",,,,3.984944661,4.4461,space,,,,,,,,,,,0,31,31,31,1,1,both_wrong.png,1,RandomDot10.png,No answer,19,,,0.4009,
,,,,,,,,,,,,,,,,,,,,,,,,,,,,,,,R_3Vxfev3MGsXgbK1,1,2024-05-13_17h19.59.730,interaction task,2021.2.3,MacIntel,60.24096386,120801,,,,,,,,,,,,,,,,,Smaller,Greater,,-0.245117188,-0.536779514,1,0,0,LeftButton,"[""LeftButton""]",,,,,,,,,,,,48.20689534,10.3448,space,48.53625228,11.4148,0,32,32,32,1,2,only_sub_right.png,3,RandomDot8.png,No answer,19,,,,0.1227
,,,,,,,,,,,,,,,,,,,,,,,,,,,,,,,R_3Vxfev3MGsXgbK1,1,2024-05-13_17h19.59.730,interaction task,2021.2.3,MacIntel,60.24096386,120801,,,,,,,,,,,,,,,,,Greater,Smaller,,0.226665582,-0.5059375,1,0,0,RightButton,"[""RightButton""]",,,,2.070909288,6.4637,space,,,,,,,,,,,0,33,33,33,1,2,only_sub_right.png,1,RandomDot32.png,No answer,19,,,0.4688,
,,,,,,,,,,,,,,,,,,,,,,,,,,,,,,,R_3Vxfev3MGsXgbK1,1,2024-05-13_17h19.59.730,interaction task,2021.2.3,MacIntel,60.24096386,120801,,,,,,,,,,,,,,,,,Greater,Smaller,,-0.288395182,-0.494305556,1,0,0,LeftButton,"[""LeftButton""]",,,,,,,,,,,,,,,,,0,34,34,34,1,4,both_right.png,10,RandomDot41.png,LeftButton,5,,,,
,,,,,,,,,,,,,,,,,,,,,,,,,,,,,,,R_3Vxfev3MGsXgbK1,1,2024-05-13_17h19.59.730,interaction task,2021.2.3,MacIntel,60.24096386,120801,,,,,,,,,,,,,,,,,Smaller,Greater,,-0.368240017,-0.530451389,1,0,0,LeftButton,"[""LeftButton""]",,,,,,,,,,,,54.17422927,2.6954,space,51.9492889,3.6142,0,35,35,35,1,2,only_sub_right.png,3,RandomDot18.png,No answer,20,,,,0.2462
,,,,,,,,,,,,,,,,,,,,,,,,,,,,,,,R_3Vxfev3MGsXgbK1,1,2024-05-13_17h19.59.730,interaction task,2021.2.3,MacIntel,60.24096386,120801,,,,,,,,,,,,,,,,,Greater,Smaller,,0.319254557,-0.503298611,1,0,0,RightButton,"[""RightButton""]",51,2.1728,space,,,,,,,,,,,,,,0,36,36,36,1,1,both_wrong.png,0,RandomDot14.png,No answer,19,,0.3853,,
,,,,,,,,,,,,,,,,,,,,,,,,,,,,,,,R_3Vxfev3MGsXgbK1,1,2024-05-13_17h19.59.730,interaction task,2021.2.3,MacIntel,60.24096386,120801,,,,,,,,,,,,,,,,,Smaller,Greater,,0.273247613,-0.489548611,1,0,0,RightButton,"[""RightButton""]",,,,,,,,,,,,49.13632856,2.1295,space,48.37568392,2.9299,0,37,37,37,1,1,both_wrong.png,3,RandomDot23.png,No answer,20,,,,0.3202
,,,,,,,,,,,,,,,,,,,,,,,,,,,,,,,R_3Vxfev3MGsXgbK1,1,2024-05-13_17h19.59.730,interaction task,2021.2.3,MacIntel,60.24096386,120801,,,,,,,,,,,,,,,,,Greater,Smaller,,0.303949653,-0.530407986,1,0,0,RightButton,"[""RightButton""]",,,,,,,,,,,,,,,,,0,38,38,38,1,0,both_right.png,1,RandomDot28.png,No answer,21,,,,
,,,,,,,,,,,,,,,,,,,,,,,,,,,,,,,R_3Vxfev3MGsXgbK1,1,2024-05-13_17h19.59.730,interaction task,2021.2.3,MacIntel,60.24096386,120801,,,,,,,,,,,,,,,,,Smaller,Greater,,-0.24968533,-0.525538194,1,0,0,LeftButton,"[""LeftButton""]",,,,4.921847873,3.452,space,,,,,,,,,,,0,39,39,39,1,3,only_sub_wrong.png,1,RandomDot6.png,No answer,20,,,0.4502,
,,,,,,,,,,,,,,,,,,,,,,,,,,,,,,,R_3Vxfev3MGsXgbK1,1,2024-05-13_17h19.59.730,interaction task,2021.2.3,MacIntel,60.24096386,120801,,,,,,,,,,,,,,,,,Smaller,Greater,,-0.20023329,-0.527491319,1,0,0,LeftButton,"[""LeftButton""]",,,,,,,,,,,,,,,,,0,40,40,40,1,5,both_right.png,10,RandomDot42.png,LeftButton,19,,,,
,,,,,,,,,,,,,,,,,,,,,,,,,,,,,,,R_3Vxfev3MGsXgbK1,1,2024-05-13_17h19.59.730,interaction task,2021.2.3,MacIntel,60.24096386,120801,,,,,,,,,,,,,,,,,Smaller,Greater,,-0.236827257,-0.503454861,1,0,0,LeftButton,"[""LeftButton""]",,,,2.624159071,4.0838,space,,,,,,,,,,,0,41,41,41,1,1,both_wrong.png,1,RandomDot29.png,No answer,19,,,2.1033,
