chooserow,ParID,pre_instru_resp_2.keys,pre_instru_resp_2.rt,pre_instru_resp_3.keys,pre_instru_resp_3.rt,pre_instru_resp_9.keys,pre_instru_resp_9.rt,pre_instru_resp_8.keys,pre_instru_resp_8.rt,pre_instru_resp_4.keys,pre_instru_resp_4.rt,pre_instru_resp_5.keys,pre_instru_resp_5.rt,pre_instru_resp_6.keys,pre_instru_resp_6.rt,key_resp_3.keys,key_resp_3.rt,key_resp_4.keys,key_resp_4.rt,key_resp_5.keys,key_resp_5.rt,key_resp_6.keys,key_resp_6.rt,key_resp_7.keys,key_resp_7.rt,trials_2.thisRepN,trials_2.thisTrialN,trials_2.thisN,trials_2.thisIndex,trials_2.ran,participant,session,date,expName,psychopyVersion,OS,frameRate,SONAid,pre_instru_resp.keys,pre_instru_resp.rt,clicked,judge_2.x,judge_2.y,judge_2.leftButton,judge_2.midButton,judge_2.rightButton,judge_2.clicked_name,trials.thisRepN,trials.thisTrialN,trials.thisN,trials.thisIndex,trials.ran,prac_answer,prac_dot_sti,dotlefttext,dotrighttext,prac_acc,judge.x,judge.y,judge.leftButton,judge.midButton,judge.rightButton,judge.clicked_name,clicked_guilt,slider_guilt.response,slider_guilt.rt,key_guilt.keys,key_guilt.rt,share_slider.response,share_slider.rt,key_share.keys,slider_apology.response,slider_apology.rt,key_apology.keys,slider_hide.response,slider_hide.rt,slider_forgiveness.response,slider_forgiveness.rt,key_forgiveness.keys,slider_mad.response,slider_mad.rt,trialseq.thisRepN,trialseq.thisTrialN,trialseq.thisN,trialseq.thisIndex,trialseq.ran,type_trial,stipic,DV,picture,answer,number,key_forgiveness.rt,key_apology.rt,key_share.rt
"[53,192,188,199,129,171,70,174,76,149,130,187,152,161,158,142,6,73,169,137,190,97,118,61,99,110,43,50,121,30,91,88,68,111,143,79,105,16,164,51,85,150]",R_3z8wN509TuVnNc6,space,3.902,space,5.087,space,332.299,space,23.275,space,23.092,space,7.834,space,6.111,3,8.245,1,18.171,1,16.572,2,9.902,3,8.118,0,0,0,0,1,R_3z8wN509TuVnNc6,1,2024-04-10_18h56.17.527,interaction task,2021.2.3,MacIntel,58.82352941,120769,,,,,,,,,,,,,,,,,,,,,,,,,,,,,,,,,,,,,,,,,,,,,,,,,,,,,,,,,
,,,,space,5.296,space,7.035,space,10.826,space,26.138,space,3.063,space,1.299,3,1.929,1,2.071,3,3.846,2,13.493,2,2.229,1,0,1,0,1,R_3z8wN509TuVnNc6,1,2024-04-10_18h56.17.527,interaction task,2021.2.3,MacIntel,58.82352941,120769,,,,,,,,,,,,,,,,,,,,,,,,,,,,,,,,,,,,,,,,,,,,,,,,,,,,,,,,,
,,,,,,,,,,,,,,,,,,,,,,,,,,,,,,,R_3z8wN509TuVnNc6,1,2024-04-10_18h56.17.527,interaction task,2021.2.3,MacIntel,58.82352941,120769,space,4.196,"[""RightButton_2""]",0.354166667,-0.306666667,1,0,0,RightButton_2,0,0,0,1,1,RightButton_2,9dot1.png,Greater,Smaller,,,,,,,,,,,,,,,,,,,,,,,,,,,,,,,,,,,,,,,
,,,,,,,,,,,,,,,,,,,,,,,,,,,,,,,R_3z8wN509TuVnNc6,1,2024-04-10_18h56.17.527,interaction task,2021.2.3,MacIntel,58.82352941,120769,,,"[""RightButton_2""]",0.234722222,-0.293333333,1,0,0,RightButton_2,0,1,1,0,1,RightButton_2,11dot2.png,Smaller,Greater,,,,,,,,,,,,,,,,,,,,,,,,,,,,,,,,,,,,,,,
,,,,,,,,,,,,,,,,,,,,,,,,,,,,,,,R_3z8wN509TuVnNc6,1,2024-04-10_18h56.17.527,interaction task,2021.2.3,MacIntel,58.82352941,120769,,,"[""LeftButton_2""]",-0.330555556,-0.302222222,1,0,0,LeftButton_2,0,2,2,2,1,LeftButton_2,9dot2.png,Smaller,Greater,,,,,,,,,,,,,,,,,,,,,,,,,,,,,,,,,,,,,,,
,,,,,,,,,,,,,,,,,,,,,,,,,,,,,,,R_3z8wN509TuVnNc6,1,2024-04-10_18h56.17.527,interaction task,2021.2.3,MacIntel,58.82352941,120769,,,,,,,,,,,,,,,,,Greater,Smaller,0.6,-0.331944444,-0.522222222,1,0,0,LeftButton,"[""LeftButton""]",19,6.074,space,1.576,,,,,,,,,,,,,,0,0,0,0,1,1,both_wrong.png,0,RandomDot32.png,No answer,19,,,
,,,,,,,,,,,,,,,,,,,,,,,,,,,,,,,R_3z8wN509TuVnNc6,1,2024-04-10_18h56.17.527,interaction task,2021.2.3,MacIntel,58.82352941,120769,,,,,,,,,,,,,,,,,Greater,Smaller,,-0.363888889,-0.491111111,1,0,0,LeftButton,"[""LeftButton""]",,,,,,,,,,,,,,,,,,0,1,1,1,1,4,both_right.png,10,RandomDot41.png,LeftButton,5,,,
,,,,,,,,,,,,,,,,,,,,,,,,,,,,,,,R_3z8wN509TuVnNc6,1,2024-04-10_18h56.17.527,interaction task,2021.2.3,MacIntel,58.82352941,120769,,,,,,,,,,,,,,,,,Smaller,Greater,,-0.240277778,-0.515555556,1,0,0,LeftButton,"[""LeftButton""]",,,,,,,,,,,,,90.12345679,6.514,space,89.70258137,10.911,0,2,2,2,1,3,only_sub_wrong.png,3,RandomDot22.png,No answer,21,1.321,,
,,,,,,,,,,,,,,,,,,,,,,,,,,,,,,,R_3z8wN509TuVnNc6,1,2024-04-10_18h56.17.527,interaction task,2021.2.3,MacIntel,58.82352941,120769,,,,,,,,,,,,,,,,,Greater,Smaller,,0.276388889,-0.515555556,1,0,0,RightButton,"[""RightButton""]",,,,,,,,,,,,,,,,,,0,3,3,3,1,5,both_right.png,10,RandomDot42.png,RightButton,19,,,
,,,,,,,,,,,,,,,,,,,,,,,,,,,,,,,R_3z8wN509TuVnNc6,1,2024-04-10_18h56.17.527,interaction task,2021.2.3,MacIntel,58.82352941,120769,,,,,,,,,,,,,,,,,Smaller,Greater,,0.241666667,-0.511111111,1,0,0,RightButton,"[""RightButton""]",,,,,,,,0,35.537,space,1,40.368,,,,,,0,4,4,4,1,2,only_sub_right.png,2,RandomDot37.png,No answer,19,,1.173,
,,,,,,,,,,,,,,,,,,,,,,,,,,,,,,,R_3z8wN509TuVnNc6,1,2024-04-10_18h56.17.527,interaction task,2021.2.3,MacIntel,58.82352941,120769,,,,,,,,,,,,,,,,,Greater,Smaller,,0.25,-0.535555556,1,0,0,RightButton,"[""RightButton""]",,,,,,,,39,5.234,space,19,13.266,,,,,,0,5,5,5,1,3,only_sub_wrong.png,2,RandomDot23.png,No answer,20,,0.838,
,,,,,,,,,,,,,,,,,,,,,,,,,,,,,,,R_3z8wN509TuVnNc6,1,2024-04-10_18h56.17.527,interaction task,2021.2.3,MacIntel,58.82352941,120769,,,,,,,,,,,,,,,,,Smaller,Greater,,0.288888889,-0.535555556,1,0,0,RightButton,"[""RightButton""]",,,,,2,10.722,space,,,,,,,,,,,0,6,6,6,1,1,both_wrong.png,1,RandomDot29.png,No answer,19,,,0.902
,,,,,,,,,,,,,,,,,,,,,,,,,,,,,,,R_3z8wN509TuVnNc6,1,2024-04-10_18h56.17.527,interaction task,2021.2.3,MacIntel,58.82352941,120769,,,,,,,,,,,,,,,,,Smaller,Greater,,-0.297222222,-0.5,1,0,0,LeftButton,"[""LeftButton""]",,,,,,,,50,4.579,space,30,8.716,,,,,,0,7,7,7,1,3,only_sub_wrong.png,2,RandomDot15.png,No answer,21,,1.034,
,,,,,,,,,,,,,,,,,,,,,,,,,,,,,,,R_3z8wN509TuVnNc6,1,2024-04-10_18h56.17.527,interaction task,2021.2.3,MacIntel,58.82352941,120769,,,,,,,,,,,,,,,,,Greater,Smaller,,-0.227777778,-0.522222222,1,0,0,LeftButton,"[""LeftButton""]",,,,,,,,50,5.396,space,41,7.064,,,,,,0,8,8,8,1,1,both_wrong.png,2,RandomDot9.png,No answer,21,,1.186,
,,,,,,,,,,,,,,,,,,,,,,,,,,,,,,,R_3z8wN509TuVnNc6,1,2024-04-10_18h56.17.527,interaction task,2021.2.3,MacIntel,58.82352941,120769,,,,,,,,,,,,,,,,,Greater,Smaller,,0.295833333,-0.528888889,1,0,0,RightButton,"[""RightButton""]",60,3.257,space,0.666,,,,,,,,,,,,,,0,9,9,9,1,3,only_sub_wrong.png,0,RandomDot24.png,No answer,20,,,
,,,,,,,,,,,,,,,,,,,,,,,,,,,,,,,R_3z8wN509TuVnNc6,1,2024-04-10_18h56.17.527,interaction task,2021.2.3,MacIntel,58.82352941,120769,,,,,,,,,,,,,,,,,Smaller,Greater,,-0.320833333,-0.535555556,1,0,0,LeftButton,"[""LeftButton""]",,,,,,,,0,2.828,space,20,5.396,,,,,,0,10,10,10,1,2,only_sub_right.png,2,RandomDot8.png,No answer,21,,0.589,
,,,,,,,,,,,,,,,,,,,,,,,,,,,,,,,R_3z8wN509TuVnNc6,1,2024-04-10_18h56.17.527,interaction task,2021.2.3,MacIntel,58.82352941,120769,,,,,,,,,,,,,,,,,Smaller,Greater,,-0.313888889,-0.508888889,1,0,0,LeftButton,"[""LeftButton""]",,,,,,,,,,,,,59.53984287,2.845,space,61.22334456,4.215,0,11,11,11,1,3,only_sub_wrong.png,3,RandomDot18.png,No answer,21,0.336,,
,,,,,,,,,,,,,,,,,,,,,,,,,,,,,,,R_3z8wN509TuVnNc6,1,2024-04-10_18h56.17.527,interaction task,2021.2.3,MacIntel,58.82352941,120769,,,,,,,,,,,,,,,,,Smaller,Greater,,0.247222222,-0.48,1,0,0,RightButton,"[""RightButton""]",21,2.17,space,0.652,,,,,,,,,,,,,,0,12,12,12,1,3,only_sub_wrong.png,0,RandomDot9.png,No answer,19,,,
,,,,,,,,,,,,,,,,,,,,,,,,,,,,,,,R_3z8wN509TuVnNc6,1,2024-04-10_18h56.17.527,interaction task,2021.2.3,MacIntel,58.82352941,120769,,,,,,,,,,,,,,,,,Greater,Smaller,,-0.244444444,-0.488888889,1,0,0,LeftButton,"[""LeftButton""]",,,,,3.020833333,4.869,space,,,,,,,,,,,0,13,13,13,1,3,only_sub_wrong.png,1,RandomDot36.png,No answer,19,,,0.667
,,,,,,,,,,,,,,,,,,,,,,,,,,,,,,,R_3z8wN509TuVnNc6,1,2024-04-10_18h56.17.527,interaction task,2021.2.3,MacIntel,58.82352941,120769,,,,,,,,,,,,,,,,,Greater,Smaller,,0.256944444,-0.495555556,1,0,0,RightButton,"[""RightButton""]",,,,,2.993055556,2.254,space,,,,,,,,,,,0,14,14,14,1,3,only_sub_wrong.png,1,RandomDot1.png,No answer,19,,,1.757
,,,,,,,,,,,,,,,,,,,,,,,,,,,,,,,R_3z8wN509TuVnNc6,1,2024-04-10_18h56.17.527,interaction task,2021.2.3,MacIntel,58.82352941,120769,,,,,,,,,,,,,,,,,Smaller,Greater,,0.2625,-0.528888889,1,0,0,RightButton,"[""RightButton""]",,,,,,,,,,,,,100,5.212,space,0,7.065,0,15,15,15,1,2,only_sub_right.png,3,RandomDot18.png,No answer,20,0.417,,
,,,,,,,,,,,,,,,,,,,,,,,,,,,,,,,R_3z8wN509TuVnNc6,1,2024-04-10_18h56.17.527,interaction task,2021.2.3,MacIntel,58.82352941,120769,,,,,,,,,,,,,,,,,Smaller,Greater,,0.2375,-0.528888889,1,0,0,RightButton,"[""RightButton""]",,,,,,,,,,,,,,,,,,0,16,16,16,1,0,both_right.png,0,RandomDot22.png,No answer,19,,,
,,,,,,,,,,,,,,,,,,,,,,,,,,,,,,,R_3z8wN509TuVnNc6,1,2024-04-10_18h56.17.527,interaction task,2021.2.3,MacIntel,58.82352941,120769,,,,,,,,,,,,,,,,,Greater,Smaller,,-0.244444444,-0.508888889,1,0,0,LeftButton,"[""LeftButton""]",,,,,,,,50,3.95,space,50,4.882,,,,,,0,17,17,17,1,1,both_wrong.png,2,RandomDot24.png,No answer,19,,0.304,
,,,,,,,,,,,,,,,,,,,,,,,,,,,,,,,R_3z8wN509TuVnNc6,1,2024-04-10_18h56.17.527,interaction task,2021.2.3,MacIntel,58.82352941,120769,,,,,,,,,,,,,,,,,Greater,Smaller,,-0.258333333,-0.473333333,1,0,0,LeftButton,"[""LeftButton""]",,,,,,,,50,3.683,space,50,4.715,,,,,,0,18,18,18,1,3,only_sub_wrong.png,2,RandomDot1.png,No answer,20,,0.254,
,,,,,,,,,,,,,,,,,,,,,,,,,,,,,,,R_3z8wN509TuVnNc6,1,2024-04-10_18h56.17.527,interaction task,2021.2.3,MacIntel,58.82352941,120769,,,,,,,,,,,,,,,,,Greater,Smaller,,0.305555556,-0.528888889,1,0,0,RightButton,"[""RightButton""]",,,,,,,,,,,,,99.52300786,3.265,space,0.336700337,5.347,0,19,19,19,1,2,only_sub_right.png,3,RandomDot23.png,No answer,20,0.471,,
,,,,,,,,,,,,,,,,,,,,,,,,,,,,,,,R_3z8wN509TuVnNc6,1,2024-04-10_18h56.17.527,interaction task,2021.2.3,MacIntel,58.82352941,120769,,,,,,,,,,,,,,,,,Smaller,Greater,,0.268055556,-0.537777778,1,0,0,RightButton,"[""RightButton""]",,,,,,,,,,,,,71.74523008,6.566,space,59.96071829,7.714,0,20,20,20,1,3,only_sub_wrong.png,3,RandomDot7.png,No answer,19,0.352,,
,,,,,,,,,,,,,,,,,,,,,,,,,,,,,,,R_3z8wN509TuVnNc6,1,2024-04-10_18h56.17.527,interaction task,2021.2.3,MacIntel,58.82352941,120769,,,,,,,,,,,,,,,,,Greater,Smaller,,-0.251388889,-0.488888889,1,0,0,LeftButton,"[""LeftButton""]",0,9.191,space,0.409,,,,,,,,,,,,,,0,21,21,21,1,2,only_sub_right.png,0,RandomDot8.png,No answer,20,,,
,,,,,,,,,,,,,,,,,,,,,,,,,,,,,,,R_3z8wN509TuVnNc6,1,2024-04-10_18h56.17.527,interaction task,2021.2.3,MacIntel,58.82352941,120769,,,,,,,,,,,,,,,,,Smaller,Greater,,0.255555556,-0.508888889,1,0,0,RightButton,"[""RightButton""]",,,,,1.013888889,2.295,space,,,,,,,,,,,0,22,22,22,1,2,only_sub_right.png,1,RandomDot34.png,No answer,19,,,0.32
,,,,,,,,,,,,,,,,,,,,,,,,,,,,,,,R_3z8wN509TuVnNc6,1,2024-04-10_18h56.17.527,interaction task,2021.2.3,MacIntel,58.82352941,120769,,,,,,,,,,,,,,,,,Greater,Smaller,,0.291666667,-0.508888889,1,0,0,RightButton,"[""RightButton""]",,,,,1.986111111,2.383,space,,,,,,,,,,,0,23,23,23,1,1,both_wrong.png,1,RandomDot23.png,No answer,21,,,0.434
,,,,,,,,,,,,,,,,,,,,,,,,,,,,,,,R_3z8wN509TuVnNc6,1,2024-04-10_18h56.17.527,interaction task,2021.2.3,MacIntel,58.82352941,120769,,,,,,,,,,,,,,,,,Greater,Smaller,,-0.3,-0.52,1,0,0,LeftButton,"[""LeftButton""]",0,3.856,space,0.643,,,,,,,,,,,,,,0,24,24,24,1,2,only_sub_right.png,0,RandomDot21.png,No answer,19,,,
,,,,,,,,,,,,,,,,,,,,,,,,,,,,,,,R_3z8wN509TuVnNc6,1,2024-04-10_18h56.17.527,interaction task,2021.2.3,MacIntel,58.82352941,120769,,,,,,,,,,,,,,,,,Greater,Smaller,,-0.305555556,-0.537777778,1,0,0,LeftButton,"[""LeftButton""]",,,,,0.951388889,1.932,space,,,,,,,,,,,0,25,25,25,1,2,only_sub_right.png,1,RandomDot6.png,No answer,21,,,0.353
,,,,,,,,,,,,,,,,,,,,,,,,,,,,,,,R_3z8wN509TuVnNc6,1,2024-04-10_18h56.17.527,interaction task,2021.2.3,MacIntel,58.82352941,120769,,,,,,,,,,,,,,,,,Smaller,Greater,,-0.245833333,-0.54,1,0,0,LeftButton,"[""LeftButton""]",,,,,,,,,,,,,,,,,,0,26,26,26,1,0,both_right.png,3,RandomDot3.png,No answer,21,,,
,,,,,,,,,,,,,,,,,,,,,,,,,,,,,,,R_3z8wN509TuVnNc6,1,2024-04-10_18h56.17.527,interaction task,2021.2.3,MacIntel,58.82352941,120769,,,,,,,,,,,,,,,,,Greater,Smaller,,-0.273611111,-0.528888889,1,0,0,LeftButton,"[""LeftButton""]",20,3.055,space,0.453,,,,,,,,,,,,,,0,27,27,27,1,1,both_wrong.png,0,RandomDot12.png,No answer,21,,,
,,,,,,,,,,,,,,,,,,,,,,,,,,,,,,,R_3z8wN509TuVnNc6,1,2024-04-10_18h56.17.527,interaction task,2021.2.3,MacIntel,58.82352941,120769,,,,,,,,,,,,,,,,,Greater,Smaller,,-0.230555556,-0.488888889,1,0,0,LeftButton,"[""LeftButton""]",,,,,,,,0,2.633,space,0,5.848,,,,,,0,28,28,28,1,2,only_sub_right.png,2,RandomDot18.png,No answer,19,,0.429,
,,,,,,,,,,,,,,,,,,,,,,,,,,,,,,,R_3z8wN509TuVnNc6,1,2024-04-10_18h56.17.527,interaction task,2021.2.3,MacIntel,58.82352941,120769,,,,,,,,,,,,,,,,,Smaller,Greater,,0.338888889,-0.533333333,1,0,0,RightButton,"[""RightButton""]",,,,,,,,,,,,,,,,,,0,29,29,29,1,0,both_right.png,2,RandomDot24.png,No answer,21,,,
,,,,,,,,,,,,,,,,,,,,,,,,,,,,,,,R_3z8wN509TuVnNc6,1,2024-04-10_18h56.17.527,interaction task,2021.2.3,MacIntel,58.82352941,120769,,,,,,,,,,,,,,,,,Smaller,Greater,,0.325,-0.526666667,1,0,0,RightButton,"[""RightButton""]",,,,,,,,,,,,,89.00112233,4.465,space,70.2020202,6.067,0,30,30,30,1,1,both_wrong.png,3,RandomDot23.png,No answer,20,0.837,,
,,,,,,,,,,,,,,,,,,,,,,,,,,,,,,,R_3z8wN509TuVnNc6,1,2024-04-10_18h56.17.527,interaction task,2021.2.3,MacIntel,58.82352941,120769,,,,,,,,,,,,,,,,,Greater,Smaller,,-0.248611111,-0.511111111,1,0,0,LeftButton,"[""LeftButton""]",,,,,,,,,,,,,89.56228956,3.137,space,48.45679012,4.532,0,31,31,31,1,1,both_wrong.png,3,RandomDot30.png,No answer,20,0.324,,
,,,,,,,,,,,,,,,,,,,,,,,,,,,,,,,R_3z8wN509TuVnNc6,1,2024-04-10_18h56.17.527,interaction task,2021.2.3,MacIntel,58.82352941,120769,,,,,,,,,,,,,,,,,Smaller,Greater,,-0.251388889,-0.515555556,1,0,0,LeftButton,"[""LeftButton""]",,,,,2.013888889,1.521,space,,,,,,,,,,,0,32,32,32,1,1,both_wrong.png,1,RandomDot8.png,No answer,21,,,0.703
,,,,,,,,,,,,,,,,,,,,,,,,,,,,,,,R_3z8wN509TuVnNc6,1,2024-04-10_18h56.17.527,interaction task,2021.2.3,MacIntel,58.82352941,120769,,,,,,,,,,,,,,,,,Greater,Smaller,,-0.2375,-0.502222222,1,0,0,LeftButton,"[""LeftButton""]",,,,,0.979166667,1.953,space,,,,,,,,,,,0,33,33,33,1,2,only_sub_right.png,1,RandomDot4.png,No answer,19,,,0.326
,,,,,,,,,,,,,,,,,,,,,,,,,,,,,,,R_3z8wN509TuVnNc6,1,2024-04-10_18h56.17.527,interaction task,2021.2.3,MacIntel,58.82352941,120769,,,,,,,,,,,,,,,,,Smaller,Greater,,0.326388889,-0.511111111,1,0,0,RightButton,"[""RightButton""]",,,,,,,,,,,,,99.94388328,6.482,space,0,8.532,0,34,34,34,1,2,only_sub_right.png,3,RandomDot31.png,No answer,19,0.278,,
,,,,,,,,,,,,,,,,,,,,,,,,,,,,,,,R_3z8wN509TuVnNc6,1,2024-04-10_18h56.17.527,interaction task,2021.2.3,MacIntel,58.82352941,120769,,,,,,,,,,,,,,,,,Smaller,Greater,,-0.375,-0.508888889,1,0,0,LeftButton,"[""LeftButton""]",,,,,,,,50,3.323,space,50,4.349,,,,,,0,35,35,35,1,1,both_wrong.png,2,RandomDot24.png,No answer,21,,0.727,
,,,,,,,,,,,,,,,,,,,,,,,,,,,,,,,R_3z8wN509TuVnNc6,1,2024-04-10_18h56.17.527,interaction task,2021.2.3,MacIntel,58.82352941,120769,,,,,,,,,,,,,,,,,Smaller,Greater,,0.2125,-0.537777778,1,0,0,RightButton,"[""RightButton""]",1,3.462,space,0.306,,,,,,,,,,,,,,0,36,36,36,1,2,only_sub_right.png,0,RandomDot17.png,No answer,20,,,
,,,,,,,,,,,,,,,,,,,,,,,,,,,,,,,R_3z8wN509TuVnNc6,1,2024-04-10_18h56.17.527,interaction task,2021.2.3,MacIntel,58.82352941,120769,,,,,,,,,,,,,,,,,Greater,Smaller,,0.275,-0.495555556,1,0,0,RightButton,"[""RightButton""]",,,,,,,,,,,,,,,,,,0,37,37,37,1,0,both_right.png,1,RandomDot12.png,No answer,21,,,
,,,,,,,,,,,,,,,,,,,,,,,,,,,,,,,R_3z8wN509TuVnNc6,1,2024-04-10_18h56.17.527,interaction task,2021.2.3,MacIntel,58.82352941,120769,,,,,,,,,,,,,,,,,Smaller,Greater,,0.218055556,-0.526666667,1,0,0,RightButton,"[""RightButton""]",,,,,2.972222222,1.187,space,,,,,,,,,,,0,38,38,38,1,3,only_sub_wrong.png,1,RandomDot40.png,No answer,19,,,0.626
,,,,,,,,,,,,,,,,,,,,,,,,,,,,,,,R_3z8wN509TuVnNc6,1,2024-04-10_18h56.17.527,interaction task,2021.2.3,MacIntel,58.82352941,120769,,,,,,,,,,,,,,,,,Greater,Smaller,,-0.263888889,-0.468888889,1,0,0,LeftButton,"[""LeftButton""]",19,2.439,space,0.688,,,,,,,,,,,,,,0,39,39,39,1,1,both_wrong.png,0,RandomDot14.png,No answer,19,,,
,,,,,,,,,,,,,,,,,,,,,,,,,,,,,,,R_3z8wN509TuVnNc6,1,2024-04-10_18h56.17.527,interaction task,2021.2.3,MacIntel,58.82352941,120769,,,,,,,,,,,,,,,,,Greater,Smaller,,0.302777778,-0.482222222,1,0,0,RightButton,"[""RightButton""]",,,,,,,,,,,,,80.02244669,3.998,space,50.14029181,5.762,0,40,40,40,1,1,both_wrong.png,3,RandomDot40.png,No answer,21,2.104,,
,,,,,,,,,,,,,,,,,,,,,,,,,,,,,,,R_3z8wN509TuVnNc6,1,2024-04-10_18h56.17.527,interaction task,2021.2.3,MacIntel,58.82352941,120769,,,,,,,,,,,,,,,,,Smaller,Greater,,-0.234722222,-0.54,1,0,0,LeftButton,"[""LeftButton""]",51,4.955,space,2.76,,,,,,,,,,,,,,0,41,41,41,1,3,only_sub_wrong.png,0,RandomDot16.png,No answer,21,,,
