key_resp.keys,key_resp.rt,key_resp_4.keys,key_resp_4.rt,slider_face_judge.response,slider_face_judge.rt,key_resp_3.keys,key_resp_3.rt,face_loop.thisRepN,face_loop.thisTrialN,face_loop.thisN,face_loop.thisIndex,face_loop.ran,face_serial,image_name,isCheck,participant,session,date,expName,psychopyVersion,OS,frameRate,SONAid,session.thisRepN,session.thisTrialN,session.thisN,session.thisIndex,session.ran,session_serial,slider_judge_img
space,1.865,space,1.346,3.96,4.777,space,0.518,0,0,0,29,1,30,image/30.jpg,0,R_3zJ5QiBCzzLGrFb,2,2024-04-14_16h07.09.831,face trait task,2021.2.3,MacIntel,62.5,120769,,,,,,,
,,,,3.026666667,2.357,space,0.401,0,1,1,46,1,47,image/47.jpg,0,R_3zJ5QiBCzzLGrFb,2,2024-04-14_16h07.09.831,face trait task,2021.2.3,MacIntel,62.5,120769,,,,,,,
,,,,1.953333333,1.756,space,0.538,0,2,2,34,1,35,image/35.jpg,0,R_3zJ5QiBCzzLGrFb,2,2024-04-14_16h07.09.831,face trait task,2021.2.3,MacIntel,62.5,120769,,,,,,,
,,,,4.933333333,1.739,space,0.293,0,3,3,20,1,21,image/21.jpg,0,R_3zJ5QiBCzzLGrFb,2,2024-04-14_16h07.09.831,face trait task,2021.2.3,MacIntel,62.5,120769,,,,,,,
,,,,2.986666667,1.572,space,0.304,0,4,4,14,1,15,image/15.jpg,0,R_3zJ5QiBCzzLGrFb,2,2024-04-14_16h07.09.831,face trait task,2021.2.3,MacIntel,62.5,120769,,,,,,,
,,,,2.953333333,1.539,space,0.268,0,5,5,28,1,29,image/29.jpg,0,R_3zJ5QiBCzzLGrFb,2,2024-04-14_16h07.09.831,face trait task,2021.2.3,MacIntel,62.5,120769,,,,,,,
,,,,2.006666667,1.506,space,0.243,0,6,6,16,1,17,image/17.jpg,0,R_3zJ5QiBCzzLGrFb,2,2024-04-14_16h07.09.831,face trait task,2021.2.3,MacIntel,62.5,120769,,,,,,,
,,,,4.986666667,2.657,space,0.311,0,7,7,44,1,45,image/45.jpg,0,R_3zJ5QiBCzzLGrFb,2,2024-04-14_16h07.09.831,face trait task,2021.2.3,MacIntel,62.5,120769,,,,,,,
,,,,3.946666667,1.82,space,0.354,0,8,8,51,1,57,image/57.jpg,1,R_3zJ5QiBCzzLGrFb,2,2024-04-14_16h07.09.831,face trait task,2021.2.3,MacIntel,62.5,120769,,,,,,,
,,,,1.92,1.671,space,0.536,0,9,9,40,1,41,image/41.jpg,0,R_3zJ5QiBCzzLGrFb,2,2024-04-14_16h07.09.831,face trait task,2021.2.3,MacIntel,62.5,120769,,,,,,,
,,,,5.993333333,3.739,space,0.37,0,10,10,4,1,5,image/5.jpg,0,R_3zJ5QiBCzzLGrFb,2,2024-04-14_16h07.09.831,face trait task,2021.2.3,MacIntel,62.5,120769,,,,,,,
,,,,2.966666667,1.906,space,0.705,0,11,11,36,1,37,image/37.jpg,0,R_3zJ5QiBCzzLGrFb,2,2024-04-14_16h07.09.831,face trait task,2021.2.3,MacIntel,62.5,120769,,,,,,,
,,,,1.02,2.225,space,0.505,0,12,12,32,1,33,image/33.jpg,0,R_3zJ5QiBCzzLGrFb,2,2024-04-14_16h07.09.831,face trait task,2021.2.3,MacIntel,62.5,120769,,,,,,,
,,,,2.986666667,2.387,space,0.543,0,13,13,37,1,38,image/38.jpg,0,R_3zJ5QiBCzzLGrFb,2,2024-04-14_16h07.09.831,face trait task,2021.2.3,MacIntel,62.5,120769,,,,,,,
,,,,5.02,1.937,space,0.385,0,14,14,17,1,18,image/18.jpg,0,R_3zJ5QiBCzzLGrFb,2,2024-04-14_16h07.09.831,face trait task,2021.2.3,MacIntel,62.5,120769,,,,,,,
,,,,3.98,1.636,space,0.32,0,15,15,47,1,48,image/48.jpg,0,R_3zJ5QiBCzzLGrFb,2,2024-04-14_16h07.09.831,face trait task,2021.2.3,MacIntel,62.5,120769,,,,,,,
,,,,3.006666667,2.191,space,0.354,0,16,16,39,1,40,image/40.jpg,0,R_3zJ5QiBCzzLGrFb,2,2024-04-14_16h07.09.831,face trait task,2021.2.3,MacIntel,62.5,120769,,,,,,,
,,,,6,2.809,space,0.619,0,17,17,19,1,20,image/20.jpg,0,R_3zJ5QiBCzzLGrFb,2,2024-04-14_16h07.09.831,face trait task,2021.2.3,MacIntel,62.5,120769,,,,,,,
,,,,6,1.491,space,0.52,0,18,18,41,1,42,image/42.jpg,0,R_3zJ5QiBCzzLGrFb,2,2024-04-14_16h07.09.831,face trait task,2021.2.3,MacIntel,62.5,120769,,,,,,,
,,,,4.013333333,2.173,space,0.503,0,19,19,24,1,25,image/25.jpg,0,R_3zJ5QiBCzzLGrFb,2,2024-04-14_16h07.09.831,face trait task,2021.2.3,MacIntel,62.5,120769,,,,,,,
,,,,4.966666667,2.94,space,0.472,0,20,20,43,1,44,image/44.jpg,0,R_3zJ5QiBCzzLGrFb,2,2024-04-14_16h07.09.831,face trait task,2021.2.3,MacIntel,62.5,120769,,,,,,,
,,,,4.966666667,1.554,space,0.937,0,21,21,12,1,13,image/13.jpg,0,R_3zJ5QiBCzzLGrFb,2,2024-04-14_16h07.09.831,face trait task,2021.2.3,MacIntel,62.5,120769,,,,,,,
,,,,4.966666667,1.137,space,0.971,0,22,22,45,1,46,image/46.jpg,0,R_3zJ5QiBCzzLGrFb,2,2024-04-14_16h07.09.831,face trait task,2021.2.3,MacIntel,62.5,120769,,,,,,,
,,,,2.96,2.12,space,0.442,0,23,23,15,1,16,image/16.jpg,0,R_3zJ5QiBCzzLGrFb,2,2024-04-14_16h07.09.831,face trait task,2021.2.3,MacIntel,62.5,120769,,,,,,,
,,,,4.98,1.704,space,0.342,0,24,24,48,1,49,image/49.jpg,0,R_3zJ5QiBCzzLGrFb,2,2024-04-14_16h07.09.831,face trait task,2021.2.3,MacIntel,62.5,120769,,,,,,,
,,,,3.966666667,2.405,space,0.669,0,25,25,27,1,28,image/28.jpg,0,R_3zJ5QiBCzzLGrFb,2,2024-04-14_16h07.09.831,face trait task,2021.2.3,MacIntel,62.5,120769,,,,,,,
,,,,4.973333333,1.489,space,0.519,0,26,26,22,1,23,image/23.jpg,0,R_3zJ5QiBCzzLGrFb,2,2024-04-14_16h07.09.831,face trait task,2021.2.3,MacIntel,62.5,120769,,,,,,,
,,,,3.98,1.854,space,0.587,0,27,27,38,1,39,image/39.jpg,0,R_3zJ5QiBCzzLGrFb,2,2024-04-14_16h07.09.831,face trait task,2021.2.3,MacIntel,62.5,120769,,,,,,,
,,,,5.986666667,1.658,space,0.693,0,28,28,21,1,22,image/22.jpg,0,R_3zJ5QiBCzzLGrFb,2,2024-04-14_16h07.09.831,face trait task,2021.2.3,MacIntel,62.5,120769,,,,,,,
,,,,6.946666667,3.22,space,1.976,0,29,29,6,1,7,image/7.jpg,0,R_3zJ5QiBCzzLGrFb,2,2024-04-14_16h07.09.831,face trait task,2021.2.3,MacIntel,62.5,120769,,,,,,,
,,,,6.946666667,1.125,space,0.853,0,30,30,49,1,50,image/50.jpg,0,R_3zJ5QiBCzzLGrFb,2,2024-04-14_16h07.09.831,face trait task,2021.2.3,MacIntel,62.5,120769,,,,,,,
,,,,6.006666667,2.604,space,0.487,0,31,31,25,1,26,image/26.jpg,0,R_3zJ5QiBCzzLGrFb,2,2024-04-14_16h07.09.831,face trait task,2021.2.3,MacIntel,62.5,120769,,,,,,,
,,,,5.02,2.91,space,0.905,0,32,32,50,1,60,image/60.jpg,1,R_3zJ5QiBCzzLGrFb,2,2024-04-14_16h07.09.831,face trait task,2021.2.3,MacIntel,62.5,120769,,,,,,,
,,,,5.973333333,2.723,space,0.838,0,33,33,3,1,4,image/4.jpg,0,R_3zJ5QiBCzzLGrFb,2,2024-04-14_16h07.09.831,face trait task,2021.2.3,MacIntel,62.5,120769,,,,,,,
,,,,4,1.907,space,0.42,0,34,34,0,1,1,image/1.jpg,0,R_3zJ5QiBCzzLGrFb,2,2024-04-14_16h07.09.831,face trait task,2021.2.3,MacIntel,62.5,120769,,,,,,,
,,,,4.946666667,1.841,space,0.618,0,35,35,33,1,34,image/34.jpg,0,R_3zJ5QiBCzzLGrFb,2,2024-04-14_16h07.09.831,face trait task,2021.2.3,MacIntel,62.5,120769,,,,,,,
,,,,3.993333333,4.156,space,1.969,0,36,36,1,1,2,image/2.jpg,0,R_3zJ5QiBCzzLGrFb,2,2024-04-14_16h07.09.831,face trait task,2021.2.3,MacIntel,62.5,120769,,,,,,,
,,,,2.946666667,2.055,space,0.737,0,37,37,8,1,9,image/9.jpg,0,R_3zJ5QiBCzzLGrFb,2,2024-04-14_16h07.09.831,face trait task,2021.2.3,MacIntel,62.5,120769,,,,,,,
,,,,4.98,2.739,space,0.489,0,38,38,52,1,54,image/54.jpg,1,R_3zJ5QiBCzzLGrFb,2,2024-04-14_16h07.09.831,face trait task,2021.2.3,MacIntel,62.5,120769,,,,,,,
,,,,2.94,1.671,space,0.339,0,39,39,31,1,32,image/32.jpg,0,R_3zJ5QiBCzzLGrFb,2,2024-04-14_16h07.09.831,face trait task,2021.2.3,MacIntel,62.5,120769,,,,,,,
,,,,2.926666667,1.521,space,0.687,0,40,40,42,1,43,image/43.jpg,0,R_3zJ5QiBCzzLGrFb,2,2024-04-14_16h07.09.831,face trait task,2021.2.3,MacIntel,62.5,120769,,,,,,,
,,,,2.926666667,1.102,space,0.35,0,41,41,10,1,11,image/11.jpg,0,R_3zJ5QiBCzzLGrFb,2,2024-04-14_16h07.09.831,face trait task,2021.2.3,MacIntel,62.5,120769,,,,,,,
,,,,3.98,2.654,space,0.285,0,42,42,18,1,19,image/19.jpg,0,R_3zJ5QiBCzzLGrFb,2,2024-04-14_16h07.09.831,face trait task,2021.2.3,MacIntel,62.5,120769,,,,,,,
,,,,3.98,1.125,space,0.37,0,43,43,9,1,10,image/10.jpg,0,R_3zJ5QiBCzzLGrFb,2,2024-04-14_16h07.09.831,face trait task,2021.2.3,MacIntel,62.5,120769,,,,,,,
,,,,3.98,1.955,space,0.525,0,44,44,5,1,6,image/6.jpg,0,R_3zJ5QiBCzzLGrFb,2,2024-04-14_16h07.09.831,face trait task,2021.2.3,MacIntel,62.5,120769,,,,,,,
,,,,3.98,2.938,space,0.437,0,45,45,23,1,24,image/24.jpg,0,R_3zJ5QiBCzzLGrFb,2,2024-04-14_16h07.09.831,face trait task,2021.2.3,MacIntel,62.5,120769,,,,,,,
,,,,4.98,2.355,space,0.454,0,46,46,30,1,31,image/31.jpg,0,R_3zJ5QiBCzzLGrFb,2,2024-04-14_16h07.09.831,face trait task,2021.2.3,MacIntel,62.5,120769,,,,,,,
,,,,3.993333333,2.019,space,0.673,0,47,47,26,1,27,image/27.jpg,0,R_3zJ5QiBCzzLGrFb,2,2024-04-14_16h07.09.831,face trait task,2021.2.3,MacIntel,62.5,120769,,,,,,,
,,,,5.966666667,2.639,space,0.341,0,48,48,11,1,12,image/12.jpg,0,R_3zJ5QiBCzzLGrFb,2,2024-04-14_16h07.09.831,face trait task,2021.2.3,MacIntel,62.5,120769,,,,,,,
,,,,4.966666667,2.369,space,0.329,0,49,49,35,1,36,image/36.jpg,0,R_3zJ5QiBCzzLGrFb,2,2024-04-14_16h07.09.831,face trait task,2021.2.3,MacIntel,62.5,120769,,,,,,,
,,,,2.973333333,3.002,space,0.571,0,50,50,13,1,14,image/14.jpg,0,R_3zJ5QiBCzzLGrFb,2,2024-04-14_16h07.09.831,face trait task,2021.2.3,MacIntel,62.5,120769,,,,,,,
,,,,2.973333333,2.623,space,0.37,0,51,51,2,1,3,image/3.jpg,0,R_3zJ5QiBCzzLGrFb,2,2024-04-14_16h07.09.831,face trait task,2021.2.3,MacIntel,62.5,120769,,,,,,,
,,,,4.946666667,2.321,space,0.411,0,52,52,7,1,8,image/8.jpg,0,R_3zJ5QiBCzzLGrFb,2,2024-04-14_16h07.09.831,face trait task,2021.2.3,MacIntel,62.5,120769,,,,,,,
,,,,,,,,,,,,,,,,R_3zJ5QiBCzzLGrFb,2,2024-04-14_16h07.09.831,face trait task,2021.2.3,MacIntel,62.5,120769,0,0,0,1,1,1,competent.png
,,,,3.026666667,2.514,space,0.27,0,0,0,36,1,37,image/37.jpg,0,R_3zJ5QiBCzzLGrFb,2,2024-04-14_16h07.09.831,face trait task,2021.2.3,MacIntel,62.5,120769,,,,,,,
,,,,1.96,1.573,space,0.306,0,1,1,25,1,26,image/26.jpg,0,R_3zJ5QiBCzzLGrFb,2,2024-04-14_16h07.09.831,face trait task,2021.2.3,MacIntel,62.5,120769,,,,,,,
,,,,4.993333333,1.856,space,0.387,0,2,2,4,1,5,image/5.jpg,0,R_3zJ5QiBCzzLGrFb,2,2024-04-14_16h07.09.831,face trait task,2021.2.3,MacIntel,62.5,120769,,,,,,,
,,,,3.006666667,1.824,space,0.405,0,3,3,34,1,35,image/35.jpg,0,R_3zJ5QiBCzzLGrFb,2,2024-04-14_16h07.09.831,face trait task,2021.2.3,MacIntel,62.5,120769,,,,,,,
,,,,4.973333333,2.705,space,0.301,0,4,4,49,1,50,image/50.jpg,0,R_3zJ5QiBCzzLGrFb,2,2024-04-14_16h07.09.831,face trait task,2021.2.3,MacIntel,62.5,120769,,,,,,,
,,,,3.98,1.972,space,0.201,0,5,5,28,1,29,image/29.jpg,0,R_3zJ5QiBCzzLGrFb,2,2024-04-14_16h07.09.831,face trait task,2021.2.3,MacIntel,62.5,120769,,,,,,,
,,,,4.966666667,2.654,space,0.355,0,6,6,50,1,60,image/60.jpg,1,R_3zJ5QiBCzzLGrFb,2,2024-04-14_16h07.09.831,face trait task,2021.2.3,MacIntel,62.5,120769,,,,,,,
,,,,4.966666667,1.155,space,0.314,0,7,7,10,1,11,image/11.jpg,0,R_3zJ5QiBCzzLGrFb,2,2024-04-14_16h07.09.831,face trait task,2021.2.3,MacIntel,62.5,120769,,,,,,,
,,,,4.033333333,1.518,space,0.236,0,8,8,2,1,3,image/3.jpg,0,R_3zJ5QiBCzzLGrFb,2,2024-04-14_16h07.09.831,face trait task,2021.2.3,MacIntel,62.5,120769,,,,,,,
,,,,4.96,1.642,space,0.227,0,9,9,17,1,18,image/18.jpg,0,R_3zJ5QiBCzzLGrFb,2,2024-04-14_16h07.09.831,face trait task,2021.2.3,MacIntel,62.5,120769,,,,,,,
,,,,5.993333333,1.594,space,0.187,0,10,10,11,1,12,image/12.jpg,0,R_3zJ5QiBCzzLGrFb,2,2024-04-14_16h07.09.831,face trait task,2021.2.3,MacIntel,62.5,120769,,,,,,,
,,,,4.986666667,2.555,space,0.378,0,11,11,52,1,54,image/54.jpg,1,R_3zJ5QiBCzzLGrFb,2,2024-04-14_16h07.09.831,face trait task,2021.2.3,MacIntel,62.5,120769,,,,,,,
,,,,5.046666667,2.021,space,0.355,0,12,12,45,1,46,image/46.jpg,0,R_3zJ5QiBCzzLGrFb,2,2024-04-14_16h07.09.831,face trait task,2021.2.3,MacIntel,62.5,120769,,,,,,,
,,,,5.986666667,1.807,space,0.538,0,13,13,24,1,25,image/25.jpg,0,R_3zJ5QiBCzzLGrFb,2,2024-04-14_16h07.09.831,face trait task,2021.2.3,MacIntel,62.5,120769,,,,,,,
,,,,4,2.14,space,0.158,0,14,14,46,1,47,image/47.jpg,0,R_3zJ5QiBCzzLGrFb,2,2024-04-14_16h07.09.831,face trait task,2021.2.3,MacIntel,62.5,120769,,,,,,,
,,,,4,2.755,space,1.821,0,15,15,12,1,13,image/13.jpg,0,R_3zJ5QiBCzzLGrFb,2,2024-04-14_16h07.09.831,face trait task,2021.2.3,MacIntel,62.5,120769,,,,,,,
,,,,3.046666667,1.492,space,0.438,0,16,16,32,1,33,image/33.jpg,0,R_3zJ5QiBCzzLGrFb,2,2024-04-14_16h07.09.831,face trait task,2021.2.3,MacIntel,62.5,120769,,,,,,,
,,,,3.973333333,2.072,space,0.372,0,17,17,38,1,39,image/39.jpg,0,R_3zJ5QiBCzzLGrFb,2,2024-04-14_16h07.09.831,face trait task,2021.2.3,MacIntel,62.5,120769,,,,,,,
,,,,3.98,2.206,space,0.306,0,18,18,39,1,40,image/40.jpg,0,R_3zJ5QiBCzzLGrFb,2,2024-04-14_16h07.09.831,face trait task,2021.2.3,MacIntel,62.5,120769,,,,,,,
,,,,5.04,1.606,space,0.322,0,19,19,35,1,36,image/36.jpg,0,R_3zJ5QiBCzzLGrFb,2,2024-04-14_16h07.09.831,face trait task,2021.2.3,MacIntel,62.5,120769,,,,,,,
,,,,5.04,1.192,space,0.988,0,20,20,22,1,23,image/23.jpg,0,R_3zJ5QiBCzzLGrFb,2,2024-04-14_16h07.09.831,face trait task,2021.2.3,MacIntel,62.5,120769,,,,,,,
,,,,2.966666667,1.805,space,0.29,0,21,21,16,1,17,image/17.jpg,0,R_3zJ5QiBCzzLGrFb,2,2024-04-14_16h07.09.831,face trait task,2021.2.3,MacIntel,62.5,120769,,,,,,,
,,,,1.973333333,2.039,space,2.904,0,22,22,40,1,41,image/41.jpg,0,R_3zJ5QiBCzzLGrFb,2,2024-04-14_16h07.09.831,face trait task,2021.2.3,MacIntel,62.5,120769,,,,,,,
,,,,1.02,3.489,space,0.408,0,23,23,29,1,30,image/30.jpg,0,R_3zJ5QiBCzzLGrFb,2,2024-04-14_16h07.09.831,face trait task,2021.2.3,MacIntel,62.5,120769,,,,,,,
,,,,5,2.417,space,0.453,0,24,24,3,1,4,image/4.jpg,0,R_3zJ5QiBCzzLGrFb,2,2024-04-14_16h07.09.831,face trait task,2021.2.3,MacIntel,62.5,120769,,,,,,,
,,,,3.993333333,2.624,space,0.269,0,25,25,18,1,19,image/19.jpg,0,R_3zJ5QiBCzzLGrFb,2,2024-04-14_16h07.09.831,face trait task,2021.2.3,MacIntel,62.5,120769,,,,,,,
,,,,2.966666667,1.608,space,0.362,0,26,26,15,1,16,image/16.jpg,0,R_3zJ5QiBCzzLGrFb,2,2024-04-14_16h07.09.831,face trait task,2021.2.3,MacIntel,62.5,120769,,,,,,,
,,,,5.006666667,1.79,space,0.355,0,27,27,6,1,7,image/7.jpg,0,R_3zJ5QiBCzzLGrFb,2,2024-04-14_16h07.09.831,face trait task,2021.2.3,MacIntel,62.5,120769,,,,,,,
,,,,3.986666667,1.624,space,0.271,0,28,28,31,1,32,image/32.jpg,0,R_3zJ5QiBCzzLGrFb,2,2024-04-14_16h07.09.831,face trait task,2021.2.3,MacIntel,62.5,120769,,,,,,,
,,,,2.96,2.594,space,0.323,0,29,29,23,1,24,image/24.jpg,0,R_3zJ5QiBCzzLGrFb,2,2024-04-14_16h07.09.831,face trait task,2021.2.3,MacIntel,62.5,120769,,,,,,,
,,,,5.98,1.702,space,0.271,0,30,30,20,1,21,image/21.jpg,0,R_3zJ5QiBCzzLGrFb,2,2024-04-14_16h07.09.831,face trait task,2021.2.3,MacIntel,62.5,120769,,,,,,,
,,,,3.013333333,2.157,space,0.341,0,31,31,14,1,15,image/15.jpg,0,R_3zJ5QiBCzzLGrFb,2,2024-04-14_16h07.09.831,face trait task,2021.2.3,MacIntel,62.5,120769,,,,,,,
,,,,5.04,2.006,space,0.351,0,32,32,44,1,45,image/45.jpg,0,R_3zJ5QiBCzzLGrFb,2,2024-04-14_16h07.09.831,face trait task,2021.2.3,MacIntel,62.5,120769,,,,,,,
,,,,3.98,2.122,space,0.237,0,33,33,5,1,6,image/6.jpg,0,R_3zJ5QiBCzzLGrFb,2,2024-04-14_16h07.09.831,face trait task,2021.2.3,MacIntel,62.5,120769,,,,,,,
,,,,2.993333333,2.055,space,0.272,0,34,34,26,1,27,image/27.jpg,0,R_3zJ5QiBCzzLGrFb,2,2024-04-14_16h07.09.831,face trait task,2021.2.3,MacIntel,62.5,120769,,,,,,,
,,,,1.04,3.508,space,0.387,0,35,35,27,1,28,image/28.jpg,0,R_3zJ5QiBCzzLGrFb,2,2024-04-14_16h07.09.831,face trait task,2021.2.3,MacIntel,62.5,120769,,,,,,,
,,,,2.98,2.072,space,0.676,0,36,36,0,1,1,image/1.jpg,0,R_3zJ5QiBCzzLGrFb,2,2024-04-14_16h07.09.831,face trait task,2021.2.3,MacIntel,62.5,120769,,,,,,,
,,,,6.033333333,2.188,space,0.268,0,37,37,41,1,42,image/42.jpg,0,R_3zJ5QiBCzzLGrFb,2,2024-04-14_16h07.09.831,face trait task,2021.2.3,MacIntel,62.5,120769,,,,,,,
,,,,4.966666667,2.24,space,0.304,0,38,38,51,1,57,image/57.jpg,1,R_3zJ5QiBCzzLGrFb,2,2024-04-14_16h07.09.831,face trait task,2021.2.3,MacIntel,62.5,120769,,,,,,,
,,,,4.02,3.97,space,0.309,0,39,39,42,1,43,image/43.jpg,0,R_3zJ5QiBCzzLGrFb,2,2024-04-14_16h07.09.831,face trait task,2021.2.3,MacIntel,62.5,120769,,,,,,,
,,,,1.96,1.839,space,0.253,0,40,40,37,1,38,image/38.jpg,0,R_3zJ5QiBCzzLGrFb,2,2024-04-14_16h07.09.831,face trait task,2021.2.3,MacIntel,62.5,120769,,,,,,,
,,,,3.013333333,1.758,space,0.389,0,41,41,21,1,22,image/22.jpg,0,R_3zJ5QiBCzzLGrFb,2,2024-04-14_16h07.09.831,face trait task,2021.2.3,MacIntel,62.5,120769,,,,,,,
,,,,3.013333333,1.203,space,0.49,0,42,42,13,1,14,image/14.jpg,0,R_3zJ5QiBCzzLGrFb,2,2024-04-14_16h07.09.831,face trait task,2021.2.3,MacIntel,62.5,120769,,,,,,,
,,,,6.993333333,1.94,space,0.754,0,43,43,33,1,34,image/34.jpg,0,R_3zJ5QiBCzzLGrFb,2,2024-04-14_16h07.09.831,face trait task,2021.2.3,MacIntel,62.5,120769,,,,,,,
,,,,4.986666667,1.886,space,0.39,0,44,44,7,1,8,image/8.jpg,0,R_3zJ5QiBCzzLGrFb,2,2024-04-14_16h07.09.831,face trait task,2021.2.3,MacIntel,62.5,120769,,,,,,,
,,,,5,3.794,space,1.537,0,45,45,19,1,20,image/20.jpg,0,R_3zJ5QiBCzzLGrFb,2,2024-04-14_16h07.09.831,face trait task,2021.2.3,MacIntel,62.5,120769,,,,,,,
,,,,6,1.759,space,0.261,0,46,46,48,1,49,image/49.jpg,0,R_3zJ5QiBCzzLGrFb,2,2024-04-14_16h07.09.831,face trait task,2021.2.3,MacIntel,62.5,120769,,,,,,,
,,,,4.026666667,2.521,space,0.336,0,47,47,8,1,9,image/9.jpg,0,R_3zJ5QiBCzzLGrFb,2,2024-04-14_16h07.09.831,face trait task,2021.2.3,MacIntel,62.5,120769,,,,,,,
,,,,3.993333333,3.907,space,0.241,0,48,48,47,1,48,image/48.jpg,0,R_3zJ5QiBCzzLGrFb,2,2024-04-14_16h07.09.831,face trait task,2021.2.3,MacIntel,62.5,120769,,,,,,,
,,,,6.02,1.988,space,0.272,0,49,49,43,1,44,image/44.jpg,0,R_3zJ5QiBCzzLGrFb,2,2024-04-14_16h07.09.831,face trait task,2021.2.3,MacIntel,62.5,120769,,,,,,,
,,,,3.993333333,2.273,space,0.187,0,50,50,9,1,10,image/10.jpg,0,R_3zJ5QiBCzzLGrFb,2,2024-04-14_16h07.09.831,face trait task,2021.2.3,MacIntel,62.5,120769,,,,,,,
,,,,1.013333333,4.303,space,0.375,0,51,51,30,1,31,image/31.jpg,0,R_3zJ5QiBCzzLGrFb,2,2024-04-14_16h07.09.831,face trait task,2021.2.3,MacIntel,62.5,120769,,,,,,,
,,,,4,2.52,space,0.39,0,52,52,1,1,2,image/2.jpg,0,R_3zJ5QiBCzzLGrFb,2,2024-04-14_16h07.09.831,face trait task,2021.2.3,MacIntel,62.5,120769,,,,,,,
,,,,,,,,,,,,,,,,R_3zJ5QiBCzzLGrFb,2,2024-04-14_16h07.09.831,face trait task,2021.2.3,MacIntel,62.5,120769,0,1,1,3,1,3,friendly.png
,,,,6.96,2.216,space,0.586,0,0,0,33,1,34,image/34.jpg,0,R_3zJ5QiBCzzLGrFb,2,2024-04-14_16h07.09.831,face trait task,2021.2.3,MacIntel,62.5,120769,,,,,,,
,,,,3,3.391,space,0.419,0,1,1,34,1,35,image/35.jpg,0,R_3zJ5QiBCzzLGrFb,2,2024-04-14_16h07.09.831,face trait task,2021.2.3,MacIntel,62.5,120769,,,,,,,
,,,,3.98,2.504,space,0.293,0,2,2,1,1,2,image/2.jpg,0,R_3zJ5QiBCzzLGrFb,2,2024-04-14_16h07.09.831,face trait task,2021.2.3,MacIntel,62.5,120769,,,,,,,
,,,,1.96,2.724,space,0.637,0,3,3,25,1,26,image/26.jpg,0,R_3zJ5QiBCzzLGrFb,2,2024-04-14_16h07.09.831,face trait task,2021.2.3,MacIntel,62.5,120769,,,,,,,
,,,,1.96,2.707,space,0.426,0,4,4,28,1,29,image/29.jpg,0,R_3zJ5QiBCzzLGrFb,2,2024-04-14_16h07.09.831,face trait task,2021.2.3,MacIntel,62.5,120769,,,,,,,
,,,,2.986666667,3.291,space,2.022,0,5,5,37,1,38,image/38.jpg,0,R_3zJ5QiBCzzLGrFb,2,2024-04-14_16h07.09.831,face trait task,2021.2.3,MacIntel,62.5,120769,,,,,,,
,,,,5.96,2.057,space,0.718,0,6,6,44,1,45,image/45.jpg,0,R_3zJ5QiBCzzLGrFb,2,2024-04-14_16h07.09.831,face trait task,2021.2.3,MacIntel,62.5,120769,,,,,,,
,,,,4.026666667,1.889,space,0.656,0,7,7,5,1,6,image/6.jpg,0,R_3zJ5QiBCzzLGrFb,2,2024-04-14_16h07.09.831,face trait task,2021.2.3,MacIntel,62.5,120769,,,,,,,
,,,,4.986666667,2.287,space,0.578,0,8,8,51,1,57,image/57.jpg,1,R_3zJ5QiBCzzLGrFb,2,2024-04-14_16h07.09.831,face trait task,2021.2.3,MacIntel,62.5,120769,,,,,,,
,,,,3.966666667,3.672,space,0.553,0,9,9,26,1,27,image/27.jpg,0,R_3zJ5QiBCzzLGrFb,2,2024-04-14_16h07.09.831,face trait task,2021.2.3,MacIntel,62.5,120769,,,,,,,
,,,,2.973333333,1.725,space,0.453,0,10,10,40,1,41,image/41.jpg,0,R_3zJ5QiBCzzLGrFb,2,2024-04-14_16h07.09.831,face trait task,2021.2.3,MacIntel,62.5,120769,,,,,,,
,,,,1.986666667,1.772,space,0.388,0,11,11,16,1,17,image/17.jpg,0,R_3zJ5QiBCzzLGrFb,2,2024-04-14_16h07.09.831,face trait task,2021.2.3,MacIntel,62.5,120769,,,,,,,
,,,,3.98,1.954,space,0.322,0,12,12,7,1,8,image/8.jpg,0,R_3zJ5QiBCzzLGrFb,2,2024-04-14_16h07.09.831,face trait task,2021.2.3,MacIntel,62.5,120769,,,,,,,
,,,,4.973333333,1.638,space,0.561,0,13,13,4,1,5,image/5.jpg,0,R_3zJ5QiBCzzLGrFb,2,2024-04-14_16h07.09.831,face trait task,2021.2.3,MacIntel,62.5,120769,,,,,,,
,,,,3.993333333,1.506,space,0.527,0,14,14,36,1,37,image/37.jpg,0,R_3zJ5QiBCzzLGrFb,2,2024-04-14_16h07.09.831,face trait task,2021.2.3,MacIntel,62.5,120769,,,,,,,
,,,,6.013333333,1.64,space,0.404,0,15,15,11,1,12,image/12.jpg,0,R_3zJ5QiBCzzLGrFb,2,2024-04-14_16h07.09.831,face trait task,2021.2.3,MacIntel,62.5,120769,,,,,,,
,,,,3,1.954,space,0.553,0,16,16,0,1,1,image/1.jpg,0,R_3zJ5QiBCzzLGrFb,2,2024-04-14_16h07.09.831,face trait task,2021.2.3,MacIntel,62.5,120769,,,,,,,
,,,,3.98,1.856,space,0.319,0,17,17,19,1,20,image/20.jpg,0,R_3zJ5QiBCzzLGrFb,2,2024-04-14_16h07.09.831,face trait task,2021.2.3,MacIntel,62.5,120769,,,,,,,
,,,,3.98,3.836,space,0.438,0,18,18,8,1,9,image/9.jpg,0,R_3zJ5QiBCzzLGrFb,2,2024-04-14_16h07.09.831,face trait task,2021.2.3,MacIntel,62.5,120769,,,,,,,
,,,,2.973333333,1.754,space,0.819,0,19,19,29,1,30,image/30.jpg,0,R_3zJ5QiBCzzLGrFb,2,2024-04-14_16h07.09.831,face trait task,2021.2.3,MacIntel,62.5,120769,,,,,,,
,,,,1.98,1.853,space,0.573,0,20,20,38,1,39,image/39.jpg,0,R_3zJ5QiBCzzLGrFb,2,2024-04-14_16h07.09.831,face trait task,2021.2.3,MacIntel,62.5,120769,,,,,,,
,,,,3.033333333,2.054,space,0.734,0,21,21,46,1,47,image/47.jpg,0,R_3zJ5QiBCzzLGrFb,2,2024-04-14_16h07.09.831,face trait task,2021.2.3,MacIntel,62.5,120769,,,,,,,
,,,,1.96,2.042,space,0.577,0,22,22,15,1,16,image/16.jpg,0,R_3zJ5QiBCzzLGrFb,2,2024-04-14_16h07.09.831,face trait task,2021.2.3,MacIntel,62.5,120769,,,,,,,
,,,,2.026666667,3.588,space,0.442,0,23,23,30,1,31,image/31.jpg,0,R_3zJ5QiBCzzLGrFb,2,2024-04-14_16h07.09.831,face trait task,2021.2.3,MacIntel,62.5,120769,,,,,,,
,,,,5.006666667,2.322,space,0.571,0,24,24,6,1,7,image/7.jpg,0,R_3zJ5QiBCzzLGrFb,2,2024-04-14_16h07.09.831,face trait task,2021.2.3,MacIntel,62.5,120769,,,,,,,
,,,,2.993333333,2.121,space,0.789,0,25,25,14,1,15,image/15.jpg,0,R_3zJ5QiBCzzLGrFb,2,2024-04-14_16h07.09.831,face trait task,2021.2.3,MacIntel,62.5,120769,,,,,,,
,,,,6.04,4.138,space,2.021,0,26,26,17,1,18,image/18.jpg,0,R_3zJ5QiBCzzLGrFb,2,2024-04-14_16h07.09.831,face trait task,2021.2.3,MacIntel,62.5,120769,,,,,,,
,,,,5.026666667,2.19,space,0.556,0,27,27,21,1,22,image/22.jpg,0,R_3zJ5QiBCzzLGrFb,2,2024-04-14_16h07.09.831,face trait task,2021.2.3,MacIntel,62.5,120769,,,,,,,
,,,,3.973333333,1.435,space,0.585,0,28,28,2,1,3,image/3.jpg,0,R_3zJ5QiBCzzLGrFb,2,2024-04-14_16h07.09.831,face trait task,2021.2.3,MacIntel,62.5,120769,,,,,,,
,,,,5,1.853,space,0.517,0,29,29,18,1,19,image/19.jpg,0,R_3zJ5QiBCzzLGrFb,2,2024-04-14_16h07.09.831,face trait task,2021.2.3,MacIntel,62.5,120769,,,,,,,
,,,,3.96,1.92,space,0.856,0,30,30,10,1,11,image/11.jpg,0,R_3zJ5QiBCzzLGrFb,2,2024-04-14_16h07.09.831,face trait task,2021.2.3,MacIntel,62.5,120769,,,,,,,
,,,,2.966666667,2.068,space,0.601,0,31,31,13,1,14,image/14.jpg,0,R_3zJ5QiBCzzLGrFb,2,2024-04-14_16h07.09.831,face trait task,2021.2.3,MacIntel,62.5,120769,,,,,,,
,,,,2.033333333,2.285,space,0.72,0,32,32,27,1,28,image/28.jpg,0,R_3zJ5QiBCzzLGrFb,2,2024-04-14_16h07.09.831,face trait task,2021.2.3,MacIntel,62.5,120769,,,,,,,
,,,,2.953333333,1.705,space,0.838,0,33,33,23,1,24,image/24.jpg,0,R_3zJ5QiBCzzLGrFb,2,2024-04-14_16h07.09.831,face trait task,2021.2.3,MacIntel,62.5,120769,,,,,,,
,,,,4.98,2.039,space,0.429,0,34,34,24,1,25,image/25.jpg,0,R_3zJ5QiBCzzLGrFb,2,2024-04-14_16h07.09.831,face trait task,2021.2.3,MacIntel,62.5,120769,,,,,,,
,,,,6.993333333,2.441,space,0.968,0,35,35,20,1,21,image/21.jpg,0,R_3zJ5QiBCzzLGrFb,2,2024-04-14_16h07.09.831,face trait task,2021.2.3,MacIntel,62.5,120769,,,,,,,
,,,,5.013333333,1.954,space,0.599,0,36,36,9,1,10,image/10.jpg,0,R_3zJ5QiBCzzLGrFb,2,2024-04-14_16h07.09.831,face trait task,2021.2.3,MacIntel,62.5,120769,,,,,,,
,,,,2.96,3.909,space,2.284,0,37,37,42,1,43,image/43.jpg,0,R_3zJ5QiBCzzLGrFb,2,2024-04-14_16h07.09.831,face trait task,2021.2.3,MacIntel,62.5,120769,,,,,,,
,,,,3.986666667,1.903,space,1.418,0,38,38,22,1,23,image/23.jpg,0,R_3zJ5QiBCzzLGrFb,2,2024-04-14_16h07.09.831,face trait task,2021.2.3,MacIntel,62.5,120769,,,,,,,
,,,,5,2.089,space,0.837,0,39,39,52,1,54,image/54.jpg,1,R_3zJ5QiBCzzLGrFb,2,2024-04-14_16h07.09.831,face trait task,2021.2.3,MacIntel,62.5,120769,,,,,,,
,,,,5.013333333,6.52,space,1.491,0,40,40,3,1,4,image/4.jpg,0,R_3zJ5QiBCzzLGrFb,2,2024-04-14_16h07.09.831,face trait task,2021.2.3,MacIntel,62.5,120769,,,,,,,
,,,,2.973333333,2.437,space,0.743,0,41,41,12,1,13,image/13.jpg,0,R_3zJ5QiBCzzLGrFb,2,2024-04-14_16h07.09.831,face trait task,2021.2.3,MacIntel,62.5,120769,,,,,,,
,,,,5.966666667,2.122,space,0.459,0,42,42,48,1,49,image/49.jpg,0,R_3zJ5QiBCzzLGrFb,2,2024-04-14_16h07.09.831,face trait task,2021.2.3,MacIntel,62.5,120769,,,,,,,
,,,,4.946666667,2.27,space,0.459,0,43,43,43,1,44,image/44.jpg,0,R_3zJ5QiBCzzLGrFb,2,2024-04-14_16h07.09.831,face trait task,2021.2.3,MacIntel,62.5,120769,,,,,,,
,,,,2.98,1.837,space,0.769,0,44,44,45,1,46,image/46.jpg,0,R_3zJ5QiBCzzLGrFb,2,2024-04-14_16h07.09.831,face trait task,2021.2.3,MacIntel,62.5,120769,,,,,,,
,,,,2.986666667,1.621,space,0.772,0,45,45,32,1,33,image/33.jpg,0,R_3zJ5QiBCzzLGrFb,2,2024-04-14_16h07.09.831,face trait task,2021.2.3,MacIntel,62.5,120769,,,,,,,
,,,,1.993333333,2.671,space,0.678,0,46,46,31,1,32,image/32.jpg,0,R_3zJ5QiBCzzLGrFb,2,2024-04-14_16h07.09.831,face trait task,2021.2.3,MacIntel,62.5,120769,,,,,,,
,,,,2.98,1.54,space,0.369,0,47,47,47,1,48,image/48.jpg,0,R_3zJ5QiBCzzLGrFb,2,2024-04-14_16h07.09.831,face trait task,2021.2.3,MacIntel,62.5,120769,,,,,,,
,,,,3.986666667,2.371,space,0.497,0,48,48,35,1,36,image/36.jpg,0,R_3zJ5QiBCzzLGrFb,2,2024-04-14_16h07.09.831,face trait task,2021.2.3,MacIntel,62.5,120769,,,,,,,
,,,,5.98,2.005,space,0.446,0,49,49,41,1,42,image/42.jpg,0,R_3zJ5QiBCzzLGrFb,2,2024-04-14_16h07.09.831,face trait task,2021.2.3,MacIntel,62.5,120769,,,,,,,
,,,,4.973333333,2.103,space,0.435,0,50,50,50,1,60,image/60.jpg,1,R_3zJ5QiBCzzLGrFb,2,2024-04-14_16h07.09.831,face trait task,2021.2.3,MacIntel,62.5,120769,,,,,,,
,,,,3.006666667,1.97,space,0.452,0,51,51,39,1,40,image/40.jpg,0,R_3zJ5QiBCzzLGrFb,2,2024-04-14_16h07.09.831,face trait task,2021.2.3,MacIntel,62.5,120769,,,,,,,
,,,,4.993333333,2.603,space,0.321,0,52,52,49,1,50,image/50.jpg,0,R_3zJ5QiBCzzLGrFb,2,2024-04-14_16h07.09.831,face trait task,2021.2.3,MacIntel,62.5,120769,,,,,,,
,,,,,,,,,,,,,,,,R_3zJ5QiBCzzLGrFb,2,2024-04-14_16h07.09.831,face trait task,2021.2.3,MacIntel,62.5,120769,0,2,2,2,1,2,trustworthy.png
,,,,4.98,2.258,space,0.572,0,0,0,50,1,60,image/60.jpg,1,R_3zJ5QiBCzzLGrFb,2,2024-04-14_16h07.09.831,face trait task,2021.2.3,MacIntel,62.5,120769,,,,,,,
,,,,5,3.455,space,0.399,0,1,1,17,1,18,image/18.jpg,0,R_3zJ5QiBCzzLGrFb,2,2024-04-14_16h07.09.831,face trait task,2021.2.3,MacIntel,62.5,120769,,,,,,,
,,,,2.953333333,1.935,space,0.492,0,2,2,9,1,10,image/10.jpg,0,R_3zJ5QiBCzzLGrFb,2,2024-04-14_16h07.09.831,face trait task,2021.2.3,MacIntel,62.5,120769,,,,,,,
,,,,3.986666667,1.805,space,0.517,0,3,3,36,1,37,image/37.jpg,0,R_3zJ5QiBCzzLGrFb,2,2024-04-14_16h07.09.831,face trait task,2021.2.3,MacIntel,62.5,120769,,,,,,,
,,,,5.013333333,1.74,space,0.638,0,4,4,20,1,21,image/21.jpg,0,R_3zJ5QiBCzzLGrFb,2,2024-04-14_16h07.09.831,face trait task,2021.2.3,MacIntel,62.5,120769,,,,,,,
,,,,6.953333333,2.586,space,0.957,0,5,5,16,1,17,image/17.jpg,0,R_3zJ5QiBCzzLGrFb,2,2024-04-14_16h07.09.831,face trait task,2021.2.3,MacIntel,62.5,120769,,,,,,,
,,,,5.973333333,1.571,space,0.601,0,6,6,15,1,16,image/16.jpg,0,R_3zJ5QiBCzzLGrFb,2,2024-04-14_16h07.09.831,face trait task,2021.2.3,MacIntel,62.5,120769,,,,,,,
,,,,5.006666667,1.655,space,0.403,0,7,7,31,1,32,image/32.jpg,0,R_3zJ5QiBCzzLGrFb,2,2024-04-14_16h07.09.831,face trait task,2021.2.3,MacIntel,62.5,120769,,,,,,,
,,,,5.006666667,1.553,space,0.543,0,8,8,51,1,57,image/57.jpg,1,R_3zJ5QiBCzzLGrFb,2,2024-04-14_16h07.09.831,face trait task,2021.2.3,MacIntel,62.5,120769,,,,,,,
,,,,6.966666667,2.004,space,0.537,0,9,9,27,1,28,image/28.jpg,0,R_3zJ5QiBCzzLGrFb,2,2024-04-14_16h07.09.831,face trait task,2021.2.3,MacIntel,62.5,120769,,,,,,,
,,,,2.96,3.085,space,0.523,0,10,10,40,1,41,image/41.jpg,0,R_3zJ5QiBCzzLGrFb,2,2024-04-14_16h07.09.831,face trait task,2021.2.3,MacIntel,62.5,120769,,,,,,,
,,,,3.993333333,2.122,space,0.596,0,11,11,8,1,9,image/9.jpg,0,R_3zJ5QiBCzzLGrFb,2,2024-04-14_16h07.09.831,face trait task,2021.2.3,MacIntel,62.5,120769,,,,,,,
,,,,5.006666667,1.473,space,0.352,0,12,12,10,1,11,image/11.jpg,0,R_3zJ5QiBCzzLGrFb,2,2024-04-14_16h07.09.831,face trait task,2021.2.3,MacIntel,62.5,120769,,,,,,,
,,,,6.006666667,1.954,space,0.655,0,13,13,25,1,26,image/26.jpg,0,R_3zJ5QiBCzzLGrFb,2,2024-04-14_16h07.09.831,face trait task,2021.2.3,MacIntel,62.5,120769,,,,,,,
,,,,2.033333333,1.986,space,0.533,0,14,14,32,1,33,image/33.jpg,0,R_3zJ5QiBCzzLGrFb,2,2024-04-14_16h07.09.831,face trait task,2021.2.3,MacIntel,62.5,120769,,,,,,,
,,,,2.953333333,1.673,space,0.424,0,15,15,39,1,40,image/40.jpg,0,R_3zJ5QiBCzzLGrFb,2,2024-04-14_16h07.09.831,face trait task,2021.2.3,MacIntel,62.5,120769,,,,,,,
,,,,5,2.054,space,0.588,0,16,16,52,1,54,image/54.jpg,1,R_3zJ5QiBCzzLGrFb,2,2024-04-14_16h07.09.831,face trait task,2021.2.3,MacIntel,62.5,120769,,,,,,,
,,,,5.973333333,2.24,space,0.653,0,17,17,14,1,15,image/15.jpg,0,R_3zJ5QiBCzzLGrFb,2,2024-04-14_16h07.09.831,face trait task,2021.2.3,MacIntel,62.5,120769,,,,,,,
,,,,3.973333333,1.955,space,0.952,0,18,18,28,1,29,image/29.jpg,0,R_3zJ5QiBCzzLGrFb,2,2024-04-14_16h07.09.831,face trait task,2021.2.3,MacIntel,62.5,120769,,,,,,,
,,,,2.953333333,2.438,space,0.47,0,19,19,7,1,8,image/8.jpg,0,R_3zJ5QiBCzzLGrFb,2,2024-04-14_16h07.09.831,face trait task,2021.2.3,MacIntel,62.5,120769,,,,,,,
,,,,2.993333333,5.657,space,0.441,0,20,20,22,1,23,image/23.jpg,0,R_3zJ5QiBCzzLGrFb,2,2024-04-14_16h07.09.831,face trait task,2021.2.3,MacIntel,62.5,120769,,,,,,,
,,,,5.966666667,3.006,space,0.569,0,21,21,21,1,22,image/22.jpg,0,R_3zJ5QiBCzzLGrFb,2,2024-04-14_16h07.09.831,face trait task,2021.2.3,MacIntel,62.5,120769,,,,,,,
,,,,5.013333333,2.385,space,0.828,0,22,22,12,1,13,image/13.jpg,0,R_3zJ5QiBCzzLGrFb,2,2024-04-14_16h07.09.831,face trait task,2021.2.3,MacIntel,62.5,120769,,,,,,,
,,,,6.986666667,2.221,space,0.952,0,23,23,19,1,20,image/20.jpg,0,R_3zJ5QiBCzzLGrFb,2,2024-04-14_16h07.09.831,face trait task,2021.2.3,MacIntel,62.5,120769,,,,,,,
,,,,2.026666667,2.092,space,0.441,0,24,24,37,1,38,image/38.jpg,0,R_3zJ5QiBCzzLGrFb,2,2024-04-14_16h07.09.831,face trait task,2021.2.3,MacIntel,62.5,120769,,,,,,,
,,,,4.013333333,1.887,space,0.722,0,25,25,13,1,14,image/14.jpg,0,R_3zJ5QiBCzzLGrFb,2,2024-04-14_16h07.09.831,face trait task,2021.2.3,MacIntel,62.5,120769,,,,,,,
,,,,1.013333333,3.535,space,0.603,0,26,26,24,1,25,image/25.jpg,0,R_3zJ5QiBCzzLGrFb,2,2024-04-14_16h07.09.831,face trait task,2021.2.3,MacIntel,62.5,120769,,,,,,,
,,,,3.966666667,2.123,space,0.47,0,27,27,1,1,2,image/2.jpg,0,R_3zJ5QiBCzzLGrFb,2,2024-04-14_16h07.09.831,face trait task,2021.2.3,MacIntel,62.5,120769,,,,,,,
,,,,1.033333333,2.989,space,0.682,0,28,28,33,1,34,image/34.jpg,0,R_3zJ5QiBCzzLGrFb,2,2024-04-14_16h07.09.831,face trait task,2021.2.3,MacIntel,62.5,120769,,,,,,,
,,,,3.98,1.955,space,0.418,0,29,29,38,1,39,image/39.jpg,0,R_3zJ5QiBCzzLGrFb,2,2024-04-14_16h07.09.831,face trait task,2021.2.3,MacIntel,62.5,120769,,,,,,,
,,,,5.96,1.887,space,0.652,0,30,30,29,1,30,image/30.jpg,0,R_3zJ5QiBCzzLGrFb,2,2024-04-14_16h07.09.831,face trait task,2021.2.3,MacIntel,62.5,120769,,,,,,,
,,,,1.093333333,2.071,space,0.67,0,31,31,35,1,36,image/36.jpg,0,R_3zJ5QiBCzzLGrFb,2,2024-04-14_16h07.09.831,face trait task,2021.2.3,MacIntel,62.5,120769,,,,,,,
,,,,3.98,1.538,space,0.785,0,32,32,45,1,46,image/46.jpg,0,R_3zJ5QiBCzzLGrFb,2,2024-04-14_16h07.09.831,face trait task,2021.2.3,MacIntel,62.5,120769,,,,,,,
,,,,2.006666667,2.454,space,0.57,0,33,33,11,1,12,image/12.jpg,0,R_3zJ5QiBCzzLGrFb,2,2024-04-14_16h07.09.831,face trait task,2021.2.3,MacIntel,62.5,120769,,,,,,,
,,,,4.013333333,2.004,space,0.559,0,34,34,42,1,43,image/43.jpg,0,R_3zJ5QiBCzzLGrFb,2,2024-04-14_16h07.09.831,face trait task,2021.2.3,MacIntel,62.5,120769,,,,,,,
,,,,6.013333333,1.788,space,0.474,0,35,35,18,1,19,image/19.jpg,0,R_3zJ5QiBCzzLGrFb,2,2024-04-14_16h07.09.831,face trait task,2021.2.3,MacIntel,62.5,120769,,,,,,,
,,,,3.02,1.989,space,0.423,0,36,36,6,1,7,image/7.jpg,0,R_3zJ5QiBCzzLGrFb,2,2024-04-14_16h07.09.831,face trait task,2021.2.3,MacIntel,62.5,120769,,,,,,,
,,,,1.973333333,2.055,space,0.416,0,37,37,4,1,5,image/5.jpg,0,R_3zJ5QiBCzzLGrFb,2,2024-04-14_16h07.09.831,face trait task,2021.2.3,MacIntel,62.5,120769,,,,,,,
,,,,1.986666667,3.256,space,0.45,0,38,38,48,1,49,image/49.jpg,0,R_3zJ5QiBCzzLGrFb,2,2024-04-14_16h07.09.831,face trait task,2021.2.3,MacIntel,62.5,120769,,,,,,,
,,,,3,4.555,space,2.316,0,39,39,3,1,4,image/4.jpg,0,R_3zJ5QiBCzzLGrFb,2,2024-04-14_16h07.09.831,face trait task,2021.2.3,MacIntel,62.5,120769,,,,,,,
,,,,3,1.825,space,0.502,0,40,40,44,1,45,image/45.jpg,0,R_3zJ5QiBCzzLGrFb,2,2024-04-14_16h07.09.831,face trait task,2021.2.3,MacIntel,62.5,120769,,,,,,,
,,,,4.986666667,4.269,space,0.562,0,41,41,47,1,48,image/48.jpg,0,R_3zJ5QiBCzzLGrFb,2,2024-04-14_16h07.09.831,face trait task,2021.2.3,MacIntel,62.5,120769,,,,,,,
,,,,4.02,2.238,space,0.388,0,42,42,26,1,27,image/27.jpg,0,R_3zJ5QiBCzzLGrFb,2,2024-04-14_16h07.09.831,face trait task,2021.2.3,MacIntel,62.5,120769,,,,,,,
,,,,6.026666667,3.636,space,0.435,0,43,43,0,1,1,image/1.jpg,0,R_3zJ5QiBCzzLGrFb,2,2024-04-14_16h07.09.831,face trait task,2021.2.3,MacIntel,62.5,120769,,,,,,,
,,,,3.993333333,4.236,space,2.093,0,44,44,2,1,3,image/3.jpg,0,R_3zJ5QiBCzzLGrFb,2,2024-04-14_16h07.09.831,face trait task,2021.2.3,MacIntel,62.5,120769,,,,,,,
,,,,1.993333333,3.637,space,0.453,0,45,45,41,1,42,image/42.jpg,0,R_3zJ5QiBCzzLGrFb,2,2024-04-14_16h07.09.831,face trait task,2021.2.3,MacIntel,62.5,120769,,,,,,,
,,,,2.953333333,6.686,space,0.441,0,46,46,46,1,47,image/47.jpg,0,R_3zJ5QiBCzzLGrFb,2,2024-04-14_16h07.09.831,face trait task,2021.2.3,MacIntel,62.5,120769,,,,,,,
,,,,1.92,1.92,space,0.672,0,47,47,49,1,50,image/50.jpg,0,R_3zJ5QiBCzzLGrFb,2,2024-04-14_16h07.09.831,face trait task,2021.2.3,MacIntel,62.5,120769,,,,,,,
,,,,6.98,1.821,space,0.45,0,48,48,30,1,31,image/31.jpg,0,R_3zJ5QiBCzzLGrFb,2,2024-04-14_16h07.09.831,face trait task,2021.2.3,MacIntel,62.5,120769,,,,,,,
,,,,3.953333333,4.67,space,1.49,0,49,49,43,1,44,image/44.jpg,0,R_3zJ5QiBCzzLGrFb,2,2024-04-14_16h07.09.831,face trait task,2021.2.3,MacIntel,62.5,120769,,,,,,,
,,,,2.98,3.071,space,1.652,0,50,50,23,1,24,image/24.jpg,0,R_3zJ5QiBCzzLGrFb,2,2024-04-14_16h07.09.831,face trait task,2021.2.3,MacIntel,62.5,120769,,,,,,,
,,,,2.98,1.304,space,0.557,0,51,51,5,1,6,image/6.jpg,0,R_3zJ5QiBCzzLGrFb,2,2024-04-14_16h07.09.831,face trait task,2021.2.3,MacIntel,62.5,120769,,,,,,,
,,,,2,2.653,space,0.395,0,52,52,34,1,35,image/35.jpg,0,R_3zJ5QiBCzzLGrFb,2,2024-04-14_16h07.09.831,face trait task,2021.2.3,MacIntel,62.5,120769,,,,,,,
,,,,,,,,,,,,,,,,R_3zJ5QiBCzzLGrFb,2,2024-04-14_16h07.09.831,face trait task,2021.2.3,MacIntel,62.5,120769,0,3,3,0,1,0,critical.png
