choose_trial,key_resp.keys,key_resp.rt,key_resp_4.keys,key_resp_4.rt,session_trait,slider_face_judge.response,slider_face_judge.rt,key_resp_3.keys,key_resp_3.rt,face_loop.thisRepN,face_loop.thisTrialN,face_loop.thisN,face_loop.thisIndex,face_loop.ran,face_serial,image_name,isCheck,answer,check_question,participant,session,date,expName,psychopyVersion,OS,frameRate,SONAid,session.thisRepN,session.thisTrialN,session.thisN,session.thisIndex,session.ran,session_serial,slider_judge_img
"[0,1,2,3,4,5,6,7,8,9,10,11,12,13,14,15,16,17,18,19,20,21,22,23,24,25,26,27,28,29,30,31,32,33,34,35,36,37,38,39,40,41,42,43,44,45,46,47,48,49,50,55,50]",space,8.9171,space,30.0665,friendly,4.011380208,3.2025,space,1.0263,0,0,0,1,1,2,image/2.jpg,0,0,,R_53TWARpLPmUzLYZ,2,2024-05-28_12h06.35.148,face trait task,2021.2.3,MacIntel,59.17159763,120542,,,,,,,
,,,,,,3.0034375,4.4641,space,1.8041,0,1,1,16,1,17,image/17.jpg,0,0,,R_53TWARpLPmUzLYZ,2,2024-05-28_12h06.35.148,face trait task,2021.2.3,MacIntel,59.17159763,120542,,,,,,,
,,,,,,1.056015625,3.5278,space,1.2555,0,2,2,30,1,31,image/31.jpg,0,0,,R_53TWARpLPmUzLYZ,2,2024-05-28_12h06.35.148,face trait task,2021.2.3,MacIntel,59.17159763,120542,,,,,,,
,,,,,,3.991015625,4.9805,space,0.4236,0,3,3,47,1,48,image/48.jpg,0,0,,R_53TWARpLPmUzLYZ,2,2024-05-28_12h06.35.148,face trait task,2021.2.3,MacIntel,59.17159763,120542,,,,,,,
,,,,,,3.745416667,4.1256,space,1.3043,0,4,4,10,1,11,image/11.jpg,0,0,,R_53TWARpLPmUzLYZ,2,2024-05-28_12h06.35.148,face trait task,2021.2.3,MacIntel,59.17159763,120542,,,,,,,
,,,,,,4.367473958,3.2146,space,1.2664,0,5,5,4,1,5,image/5.jpg,0,0,,R_53TWARpLPmUzLYZ,2,2024-05-28_12h06.35.148,face trait task,2021.2.3,MacIntel,59.17159763,120542,,,,,,,
,,,,,,4.442630208,2.5638,space,2.0187,0,6,6,48,1,49,image/49.jpg,0,0,,R_53TWARpLPmUzLYZ,2,2024-05-28_12h06.35.148,face trait task,2021.2.3,MacIntel,59.17159763,120542,,,,,,,
,,,,,,1.011692708,4.3948,space,1.1111,0,7,7,50,1,51,image/fill_img.png,1,1,Please move the slider all the way to the LEFT to show that you are paying attention.,R_53TWARpLPmUzLYZ,2,2024-05-28_12h06.35.148,face trait task,2021.2.3,MacIntel,59.17159763,120542,,,,,,,
,,,,,,4.330416667,3.9783,space,0.668,0,8,8,20,1,21,image/21.jpg,0,0,,R_53TWARpLPmUzLYZ,2,2024-05-28_12h06.35.148,face trait task,2021.2.3,MacIntel,59.17159763,120542,,,,,,,
,,,,,,2.978854167,3.1641,space,1.8848,0,9,9,29,1,30,image/30.jpg,0,0,,R_53TWARpLPmUzLYZ,2,2024-05-28_12h06.35.148,face trait task,2021.2.3,MacIntel,59.17159763,120542,,,,,,,
,,,,,,3.611510417,2.5024,space,2.1209,0,10,10,32,1,33,image/33.jpg,0,0,,R_53TWARpLPmUzLYZ,2,2024-05-28_12h06.35.148,face trait task,2021.2.3,MacIntel,59.17159763,120542,,,,,,,
,,,,,,4.182421875,6.5664,space,2.6207,0,11,11,46,1,47,image/47.jpg,0,0,,R_53TWARpLPmUzLYZ,2,2024-05-28_12h06.35.148,face trait task,2021.2.3,MacIntel,59.17159763,120542,,,,,,,
,,,,,,3.542864583,3.3778,space,1.2216,0,12,12,0,1,1,image/1.jpg,0,0,,R_53TWARpLPmUzLYZ,2,2024-05-28_12h06.35.148,face trait task,2021.2.3,MacIntel,59.17159763,120542,,,,,,,
,,,,,,2.023020833,4.9922,space,0.4928,0,13,13,27,1,28,image/28.jpg,0,0,,R_53TWARpLPmUzLYZ,2,2024-05-28_12h06.35.148,face trait task,2021.2.3,MacIntel,59.17159763,120542,,,,,,,
,,,,,,1.003645833,2.8592,space,1.6559,0,14,14,39,1,40,image/40.jpg,0,0,,R_53TWARpLPmUzLYZ,2,2024-05-28_12h06.35.148,face trait task,2021.2.3,MacIntel,59.17159763,120542,,,,,,,
,,,,,,1.00203125,2.7812,space,1.0671,0,15,15,45,1,46,image/46.jpg,0,0,,R_53TWARpLPmUzLYZ,2,2024-05-28_12h06.35.148,face trait task,2021.2.3,MacIntel,59.17159763,120542,,,,,,,
,,,,,,1.2046875,2.1301,space,0.9342,0,16,16,18,1,19,image/19.jpg,0,0,,R_53TWARpLPmUzLYZ,2,2024-05-28_12h06.35.148,face trait task,2021.2.3,MacIntel,59.17159763,120542,,,,,,,
,,,,,,6.023541667,4.3482,space,3.0025,0,17,17,34,1,35,image/35.jpg,0,0,,R_53TWARpLPmUzLYZ,2,2024-05-28_12h06.35.148,face trait task,2021.2.3,MacIntel,59.17159763,120542,,,,,,,
,,,,,,4.404635417,2.2485,space,1.3556,0,18,18,22,1,23,image/23.jpg,0,0,,R_53TWARpLPmUzLYZ,2,2024-05-28_12h06.35.148,face trait task,2021.2.3,MacIntel,59.17159763,120542,,,,,,,
,,,,,,4.9975,3.1907,space,0.5427,0,19,19,11,1,12,image/12.jpg,0,0,,R_53TWARpLPmUzLYZ,2,2024-05-28_12h06.35.148,face trait task,2021.2.3,MacIntel,59.17159763,120542,,,,,,,
,,,,,,1.97984375,2.6628,space,1.3379,0,20,20,37,1,38,image/38.jpg,0,0,,R_53TWARpLPmUzLYZ,2,2024-05-28_12h06.35.148,face trait task,2021.2.3,MacIntel,59.17159763,120542,,,,,,,
,,,,,,2.417864583,4.9146,space,2.721,0,21,21,15,1,16,image/16.jpg,0,0,,R_53TWARpLPmUzLYZ,2,2024-05-28_12h06.35.148,face trait task,2021.2.3,MacIntel,59.17159763,120542,,,,,,,
,,,,,,3.336744792,1.9691,space,1.3839,0,22,22,14,1,15,image/15.jpg,0,0,,R_53TWARpLPmUzLYZ,2,2024-05-28_12h06.35.148,face trait task,2021.2.3,MacIntel,59.17159763,120542,,,,,,,
,,,,,,1.029583333,2.0973,space,0.8352,0,23,23,38,1,39,image/39.jpg,0,0,,R_53TWARpLPmUzLYZ,2,2024-05-28_12h06.35.148,face trait task,2021.2.3,MacIntel,59.17159763,120542,,,,,,,
,,,,,,6.9296875,4.0452,space,2.3066,0,24,24,51,1,56,image/fill_img.png,1,7,Please move the slider all the way to the RIGHT to show that you are paying attention.,R_53TWARpLPmUzLYZ,2,2024-05-28_12h06.35.148,face trait task,2021.2.3,MacIntel,59.17159763,120542,,,,,,,
,,,,,,5.022942708,2.6013,space,2.3695,0,25,25,40,1,41,image/41.jpg,0,0,,R_53TWARpLPmUzLYZ,2,2024-05-28_12h06.35.148,face trait task,2021.2.3,MacIntel,59.17159763,120542,,,,,,,
,,,,,,3.263828125,2.9483,space,0.7513,0,26,26,6,1,7,image/7.jpg,0,0,,R_53TWARpLPmUzLYZ,2,2024-05-28_12h06.35.148,face trait task,2021.2.3,MacIntel,59.17159763,120542,,,,,,,
,,,,,,3.232473958,1.9289,space,1.1508,0,27,27,28,1,29,image/29.jpg,0,0,,R_53TWARpLPmUzLYZ,2,2024-05-28_12h06.35.148,face trait task,2021.2.3,MacIntel,59.17159763,120542,,,,,,,
,,,,,,4.33984375,2.2977,space,2.1014,0,28,28,25,1,26,image/26.jpg,0,0,,R_53TWARpLPmUzLYZ,2,2024-05-28_12h06.35.148,face trait task,2021.2.3,MacIntel,59.17159763,120542,,,,,,,
,,,,,,4.30671875,2.315,space,0.8708,0,29,29,12,1,13,image/13.jpg,0,0,,R_53TWARpLPmUzLYZ,2,2024-05-28_12h06.35.148,face trait task,2021.2.3,MacIntel,59.17159763,120542,,,,,,,
,,,,,,3.544140625,1.8147,space,0.9722,0,30,30,24,1,25,image/25.jpg,0,0,,R_53TWARpLPmUzLYZ,2,2024-05-28_12h06.35.148,face trait task,2021.2.3,MacIntel,59.17159763,120542,,,,,,,
,,,,,,2.681458333,3.7162,space,2.2357,0,31,31,5,1,6,image/6.jpg,0,0,,R_53TWARpLPmUzLYZ,2,2024-05-28_12h06.35.148,face trait task,2021.2.3,MacIntel,59.17159763,120542,,,,,,,
,,,,,,4.965026042,2.3973,space,0.2853,0,32,32,31,1,32,image/32.jpg,0,0,,R_53TWARpLPmUzLYZ,2,2024-05-28_12h06.35.148,face trait task,2021.2.3,MacIntel,59.17159763,120542,,,,,,,
,,,,,,1.966875,3.7465,space,0.9192,0,33,33,23,1,24,image/24.jpg,0,0,,R_53TWARpLPmUzLYZ,2,2024-05-28_12h06.35.148,face trait task,2021.2.3,MacIntel,59.17159763,120542,,,,,,,
,,,,,,5.04234375,1.7967,space,1.1223,0,34,34,36,1,37,image/37.jpg,0,0,,R_53TWARpLPmUzLYZ,2,2024-05-28_12h06.35.148,face trait task,2021.2.3,MacIntel,59.17159763,120542,,,,,,,
,,,,,,3.670807292,3.7588,space,0.4716,0,35,35,19,1,20,image/20.jpg,0,0,,R_53TWARpLPmUzLYZ,2,2024-05-28_12h06.35.148,face trait task,2021.2.3,MacIntel,59.17159763,120542,,,,,,,
,,,,,,3.991588542,2.0805,space,1.0375,0,36,36,7,1,8,image/8.jpg,0,0,,R_53TWARpLPmUzLYZ,2,2024-05-28_12h06.35.148,face trait task,2021.2.3,MacIntel,59.17159763,120542,,,,,,,
,,,,,,2.029401042,3.7982,space,1.0855,0,37,37,26,1,27,image/27.jpg,0,0,,R_53TWARpLPmUzLYZ,2,2024-05-28_12h06.35.148,face trait task,2021.2.3,MacIntel,59.17159763,120542,,,,,,,
,,,,,,5.028411458,3.3465,space,1.1849,0,38,38,33,1,34,image/34.jpg,0,0,,R_53TWARpLPmUzLYZ,2,2024-05-28_12h06.35.148,face trait task,2021.2.3,MacIntel,59.17159763,120542,,,,,,,
,,,,,,1,3.7949,space,1.2516,0,39,39,52,1,51,image/fill_img.png,1,1,Please move the slider all the way to the LEFT to show that you are paying attention.,R_53TWARpLPmUzLYZ,2,2024-05-28_12h06.35.148,face trait task,2021.2.3,MacIntel,59.17159763,120542,,,,,,,
,,,,,,1.934010417,2.1444,space,0.7187,0,40,40,21,1,22,image/22.jpg,0,0,,R_53TWARpLPmUzLYZ,2,2024-05-28_12h06.35.148,face trait task,2021.2.3,MacIntel,59.17159763,120542,,,,,,,
,,,,,,3.455494792,2.3817,space,0.5851,0,41,41,43,1,44,image/44.jpg,0,0,,R_53TWARpLPmUzLYZ,2,2024-05-28_12h06.35.148,face trait task,2021.2.3,MacIntel,59.17159763,120542,,,,,,,
,,,,,,6.007760417,3.4467,space,1.19,0,42,42,2,1,3,image/3.jpg,0,0,,R_53TWARpLPmUzLYZ,2,2024-05-28_12h06.35.148,face trait task,2021.2.3,MacIntel,59.17159763,120542,,,,,,,
,,,,,,2.980260417,3.4412,space,0.3097,0,43,43,41,1,42,image/42.jpg,0,0,,R_53TWARpLPmUzLYZ,2,2024-05-28_12h06.35.148,face trait task,2021.2.3,MacIntel,59.17159763,120542,,,,,,,
,,,,,,4.0334375,3.3447,space,0.2836,0,44,44,35,1,36,image/36.jpg,0,0,,R_53TWARpLPmUzLYZ,2,2024-05-28_12h06.35.148,face trait task,2021.2.3,MacIntel,59.17159763,120542,,,,,,,
,,,,,,3.128932292,1.5473,space,0.4685,0,45,45,9,1,10,image/10.jpg,0,0,,R_53TWARpLPmUzLYZ,2,2024-05-28_12h06.35.148,face trait task,2021.2.3,MacIntel,59.17159763,120542,,,,,,,
,,,,,,2.222864583,1.7968,space,0.4185,0,46,46,8,1,9,image/9.jpg,0,0,,R_53TWARpLPmUzLYZ,2,2024-05-28_12h06.35.148,face trait task,2021.2.3,MacIntel,59.17159763,120542,,,,,,,
,,,,,,6.8709375,2.911,space,1.5386,0,47,47,3,1,4,image/4.jpg,0,0,,R_53TWARpLPmUzLYZ,2,2024-05-28_12h06.35.148,face trait task,2021.2.3,MacIntel,59.17159763,120542,,,,,,,
,,,,,,4.97296875,2.831,space,0.3852,0,48,48,49,1,50,image/50.jpg,0,0,,R_53TWARpLPmUzLYZ,2,2024-05-28_12h06.35.148,face trait task,2021.2.3,MacIntel,59.17159763,120542,,,,,,,
,,,,,,4.992760417,2.8343,space,0.3816,0,49,49,17,1,18,image/18.jpg,0,0,,R_53TWARpLPmUzLYZ,2,2024-05-28_12h06.35.148,face trait task,2021.2.3,MacIntel,59.17159763,120542,,,,,,,
,,,,,,3.309739583,1.9977,space,0.3172,0,50,50,42,1,43,image/43.jpg,0,0,,R_53TWARpLPmUzLYZ,2,2024-05-28_12h06.35.148,face trait task,2021.2.3,MacIntel,59.17159763,120542,,,,,,,
,,,,,,2.666171875,1.5639,space,0.5833,0,51,51,13,1,14,image/14.jpg,0,0,,R_53TWARpLPmUzLYZ,2,2024-05-28_12h06.35.148,face trait task,2021.2.3,MacIntel,59.17159763,120542,,,,,,,
,,,,,,3.615833333,1.6653,space,0.7834,0,52,52,44,1,45,image/45.jpg,0,0,,R_53TWARpLPmUzLYZ,2,2024-05-28_12h06.35.148,face trait task,2021.2.3,MacIntel,59.17159763,120542,,,,,,,
,,,,,,,,,,,,,,,,,,,,R_53TWARpLPmUzLYZ,2,2024-05-28_12h06.35.148,face trait task,2021.2.3,MacIntel,59.17159763,120542,0,0,0,3,1,3,friendly.png
,,,,,critical,6.928307292,5.6509,space,0.9555,0,0,0,38,1,39,image/39.jpg,0,0,,R_53TWARpLPmUzLYZ,2,2024-05-28_12h06.35.148,face trait task,2021.2.3,MacIntel,59.17159763,120542,,,,,,,
,,,,,,2.136328125,5.5029,space,3.284,0,1,1,44,1,45,image/45.jpg,0,0,,R_53TWARpLPmUzLYZ,2,2024-05-28_12h06.35.148,face trait task,2021.2.3,MacIntel,59.17159763,120542,,,,,,,
,,,,,,6.001666667,3.5924,space,0.6999,0,2,2,39,1,40,image/40.jpg,0,0,,R_53TWARpLPmUzLYZ,2,2024-05-28_12h06.35.148,face trait task,2021.2.3,MacIntel,59.17159763,120542,,,,,,,
,,,,,,1,4.7952,space,1.2348,0,3,3,52,1,51,image/fill_img.png,1,1,Please move the slider all the way to the LEFT to show that you are paying attention.,R_53TWARpLPmUzLYZ,2,2024-05-28_12h06.35.148,face trait task,2021.2.3,MacIntel,59.17159763,120542,,,,,,,
,,,,,,1.0275,2.3458,space,0.6147,0,4,4,36,1,37,image/37.jpg,0,0,,R_53TWARpLPmUzLYZ,2,2024-05-28_12h06.35.148,face trait task,2021.2.3,MacIntel,59.17159763,120542,,,,,,,
,,,,,,4.8946875,6.0285,space,0.6397,0,5,5,41,1,42,image/42.jpg,0,0,,R_53TWARpLPmUzLYZ,2,2024-05-28_12h06.35.148,face trait task,2021.2.3,MacIntel,59.17159763,120542,,,,,,,
,,,,,,2.964661458,3.8989,space,1.5511,0,6,6,22,1,23,image/23.jpg,0,0,,R_53TWARpLPmUzLYZ,2,2024-05-28_12h06.35.148,face trait task,2021.2.3,MacIntel,59.17159763,120542,,,,,,,
,,,,,,6.42375,3.5816,space,0.6337,0,7,7,27,1,28,image/28.jpg,0,0,,R_53TWARpLPmUzLYZ,2,2024-05-28_12h06.35.148,face trait task,2021.2.3,MacIntel,59.17159763,120542,,,,,,,
,,,,,,1.018723958,3.1972,space,1.0508,0,8,8,34,1,35,image/35.jpg,0,0,,R_53TWARpLPmUzLYZ,2,2024-05-28_12h06.35.148,face trait task,2021.2.3,MacIntel,59.17159763,120542,,,,,,,
,,,,,,4.001848958,5.9468,space,0.8549,0,9,9,31,1,32,image/32.jpg,0,0,,R_53TWARpLPmUzLYZ,2,2024-05-28_12h06.35.148,face trait task,2021.2.3,MacIntel,59.17159763,120542,,,,,,,
,,,,,,1.483723958,2.2971,space,0.417,0,10,10,24,1,25,image/25.jpg,0,0,,R_53TWARpLPmUzLYZ,2,2024-05-28_12h06.35.148,face trait task,2021.2.3,MacIntel,59.17159763,120542,,,,,,,
,,,,,,3.525494792,4.4091,space,0.4091,0,11,11,6,1,7,image/7.jpg,0,0,,R_53TWARpLPmUzLYZ,2,2024-05-28_12h06.35.148,face trait task,2021.2.3,MacIntel,59.17159763,120542,,,,,,,
,,,,,,5.981588542,2.4146,space,0.4174,0,12,12,47,1,48,image/48.jpg,0,0,,R_53TWARpLPmUzLYZ,2,2024-05-28_12h06.35.148,face trait task,2021.2.3,MacIntel,59.17159763,120542,,,,,,,
,,,,,,6.869505208,2.9017,space,0.5025,0,13,13,16,1,17,image/17.jpg,0,0,,R_53TWARpLPmUzLYZ,2,2024-05-28_12h06.35.148,face trait task,2021.2.3,MacIntel,59.17159763,120542,,,,,,,
,,,,,,4.029348958,2.2805,space,0.3229,0,14,14,7,1,8,image/8.jpg,0,0,,R_53TWARpLPmUzLYZ,2,2024-05-28_12h06.35.148,face trait task,2021.2.3,MacIntel,59.17159763,120542,,,,,,,
,,,,,,4.927057292,2.7484,space,0.4172,0,15,15,29,1,30,image/30.jpg,0,0,,R_53TWARpLPmUzLYZ,2,2024-05-28_12h06.35.148,face trait task,2021.2.3,MacIntel,59.17159763,120542,,,,,,,
,,,,,,7,3.0765,space,0.984,0,16,16,51,1,56,image/fill_img.png,1,7,Please move the slider all the way to the RIGHT to show that you are paying attention.,R_53TWARpLPmUzLYZ,2,2024-05-28_12h06.35.148,face trait task,2021.2.3,MacIntel,59.17159763,120542,,,,,,,
,,,,,,4.396953125,7.7926,space,0.3716,0,17,17,18,1,19,image/19.jpg,0,0,,R_53TWARpLPmUzLYZ,2,2024-05-28_12h06.35.148,face trait task,2021.2.3,MacIntel,59.17159763,120542,,,,,,,
,,,,,,1.107890625,8.0017,space,0.3403,0,18,18,4,1,5,image/5.jpg,0,0,,R_53TWARpLPmUzLYZ,2,2024-05-28_12h06.35.148,face trait task,2021.2.3,MacIntel,59.17159763,120542,,,,,,,
,,,,,,6.010182292,3.3809,space,1.1478,0,19,19,13,1,14,image/14.jpg,0,0,,R_53TWARpLPmUzLYZ,2,2024-05-28_12h06.35.148,face trait task,2021.2.3,MacIntel,59.17159763,120542,,,,,,,
,,,,,,6.972682292,1.997,space,0.3371,0,20,20,8,1,9,image/9.jpg,0,0,,R_53TWARpLPmUzLYZ,2,2024-05-28_12h06.35.148,face trait task,2021.2.3,MacIntel,59.17159763,120542,,,,,,,
,,,,,,4.982135417,2.4628,space,0.2022,0,21,21,5,1,6,image/6.jpg,0,0,,R_53TWARpLPmUzLYZ,2,2024-05-28_12h06.35.148,face trait task,2021.2.3,MacIntel,59.17159763,120542,,,,,,,
,,,,,,4.018463542,2.0625,space,0.2173,0,22,22,15,1,16,image/16.jpg,0,0,,R_53TWARpLPmUzLYZ,2,2024-05-28_12h06.35.148,face trait task,2021.2.3,MacIntel,59.17159763,120542,,,,,,,
,,,,,,1.067109375,2.2302,space,0.2027,0,23,23,48,1,49,image/49.jpg,0,0,,R_53TWARpLPmUzLYZ,2,2024-05-28_12h06.35.148,face trait task,2021.2.3,MacIntel,59.17159763,120542,,,,,,,
,,,,,,1.081744792,2.0964,space,0.3688,0,24,24,20,1,21,image/21.jpg,0,0,,R_53TWARpLPmUzLYZ,2,2024-05-28_12h06.35.148,face trait task,2021.2.3,MacIntel,59.17159763,120542,,,,,,,
,,,,,,4.992552083,4.0929,space,0.6738,0,25,25,42,1,43,image/43.jpg,0,0,,R_53TWARpLPmUzLYZ,2,2024-05-28_12h06.35.148,face trait task,2021.2.3,MacIntel,59.17159763,120542,,,,,,,
,,,,,,7,2.6961,space,1.2851,0,26,26,30,1,31,image/31.jpg,0,0,,R_53TWARpLPmUzLYZ,2,2024-05-28_12h06.35.148,face trait task,2021.2.3,MacIntel,59.17159763,120542,,,,,,,
,,,,,,6.029375,3.2318,space,0.3175,0,27,27,37,1,38,image/38.jpg,0,0,,R_53TWARpLPmUzLYZ,2,2024-05-28_12h06.35.148,face trait task,2021.2.3,MacIntel,59.17159763,120542,,,,,,,
,,,,,,2.167369792,5.0933,space,0.3029,0,28,28,43,1,44,image/44.jpg,0,0,,R_53TWARpLPmUzLYZ,2,2024-05-28_12h06.35.148,face trait task,2021.2.3,MacIntel,59.17159763,120542,,,,,,,
,,,,,,4.008854167,1.6449,space,0.2062,0,29,29,10,1,11,image/11.jpg,0,0,,R_53TWARpLPmUzLYZ,2,2024-05-28_12h06.35.148,face trait task,2021.2.3,MacIntel,59.17159763,120542,,,,,,,
,,,,,,1.851223958,3.2111,space,0.1859,0,30,30,49,1,50,image/50.jpg,0,0,,R_53TWARpLPmUzLYZ,2,2024-05-28_12h06.35.148,face trait task,2021.2.3,MacIntel,59.17159763,120542,,,,,,,
,,,,,,4.212942708,7.3093,space,0.7228,0,31,31,0,1,1,image/1.jpg,0,0,,R_53TWARpLPmUzLYZ,2,2024-05-28_12h06.35.148,face trait task,2021.2.3,MacIntel,59.17159763,120542,,,,,,,
,,,,,,2.324140625,4.8644,space,1.3881,0,32,32,12,1,13,image/13.jpg,0,0,,R_53TWARpLPmUzLYZ,2,2024-05-28_12h06.35.148,face trait task,2021.2.3,MacIntel,59.17159763,120542,,,,,,,
,,,,,,1.115911458,4.9905,space,0.3219,0,33,33,28,1,29,image/29.jpg,0,0,,R_53TWARpLPmUzLYZ,2,2024-05-28_12h06.35.148,face trait task,2021.2.3,MacIntel,59.17159763,120542,,,,,,,
,,,,,,6.776640625,2.3134,space,2.6014,0,34,34,26,1,27,image/27.jpg,0,0,,R_53TWARpLPmUzLYZ,2,2024-05-28_12h06.35.148,face trait task,2021.2.3,MacIntel,59.17159763,120542,,,,,,,
,,,,,,1.312864583,2.5839,space,1.6706,0,35,35,40,1,41,image/41.jpg,0,0,,R_53TWARpLPmUzLYZ,2,2024-05-28_12h06.35.148,face trait task,2021.2.3,MacIntel,59.17159763,120542,,,,,,,
,,,,,,6.891276042,3.5457,space,0.5769,0,36,36,45,1,46,image/46.jpg,0,0,,R_53TWARpLPmUzLYZ,2,2024-05-28_12h06.35.148,face trait task,2021.2.3,MacIntel,59.17159763,120542,,,,,,,
,,,,,,4.954739583,5.2082,space,0.338,0,37,37,19,1,20,image/20.jpg,0,0,,R_53TWARpLPmUzLYZ,2,2024-05-28_12h06.35.148,face trait task,2021.2.3,MacIntel,59.17159763,120542,,,,,,,
,,,,,,1,2.9104,space,1.1348,0,38,38,50,1,51,image/fill_img.png,1,1,Please move the slider all the way to the LEFT to show that you are paying attention.,R_53TWARpLPmUzLYZ,2,2024-05-28_12h06.35.148,face trait task,2021.2.3,MacIntel,59.17159763,120542,,,,,,,
,,,,,,1.037473958,2.4957,space,0.3684,0,39,39,2,1,3,image/3.jpg,0,0,,R_53TWARpLPmUzLYZ,2,2024-05-28_12h06.35.148,face trait task,2021.2.3,MacIntel,59.17159763,120542,,,,,,,
,,,,,,3.059609375,6.0108,space,1.322,0,40,40,46,1,47,image/47.jpg,0,0,,R_53TWARpLPmUzLYZ,2,2024-05-28_12h06.35.148,face trait task,2021.2.3,MacIntel,59.17159763,120542,,,,,,,
,,,,,,1.084296875,5.0333,space,1.2715,0,41,41,17,1,18,image/18.jpg,0,0,,R_53TWARpLPmUzLYZ,2,2024-05-28_12h06.35.148,face trait task,2021.2.3,MacIntel,59.17159763,120542,,,,,,,
,,,,,,6.697213542,5.0424,space,0.5222,0,42,42,25,1,26,image/26.jpg,0,0,,R_53TWARpLPmUzLYZ,2,2024-05-28_12h06.35.148,face trait task,2021.2.3,MacIntel,59.17159763,120542,,,,,,,
,,,,,,1.328645833,5.8601,space,0.7046,0,43,43,11,1,12,image/12.jpg,0,0,,R_53TWARpLPmUzLYZ,2,2024-05-28_12h06.35.148,face trait task,2021.2.3,MacIntel,59.17159763,120542,,,,,,,
,,,,,,4.48515625,3.3666,space,0.5551,0,44,44,1,1,2,image/2.jpg,0,0,,R_53TWARpLPmUzLYZ,2,2024-05-28_12h06.35.148,face trait task,2021.2.3,MacIntel,59.17159763,120542,,,,,,,
,,,,,,1.026328125,2.9648,space,0.4046,0,45,45,33,1,34,image/34.jpg,0,0,,R_53TWARpLPmUzLYZ,2,2024-05-28_12h06.35.148,face trait task,2021.2.3,MacIntel,59.17159763,120542,,,,,,,
,,,,,,4.770572917,18.3322,space,1.3907,0,46,46,9,1,10,image/10.jpg,0,0,,R_53TWARpLPmUzLYZ,2,2024-05-28_12h06.35.148,face trait task,2021.2.3,MacIntel,59.17159763,120542,,,,,,,
,,,,,,3.985390625,7.2801,space,2.2156,0,47,47,3,1,4,image/4.jpg,0,0,,R_53TWARpLPmUzLYZ,2,2024-05-28_12h06.35.148,face trait task,2021.2.3,MacIntel,59.17159763,120542,,,,,,,
,,,,,,2.235052083,3.629,space,0.8376,0,48,48,32,1,33,image/33.jpg,0,0,,R_53TWARpLPmUzLYZ,2,2024-05-28_12h06.35.148,face trait task,2021.2.3,MacIntel,59.17159763,120542,,,,,,,
,,,,,,1.07125,13.4607,space,0.3706,0,49,49,35,1,36,image/36.jpg,0,0,,R_53TWARpLPmUzLYZ,2,2024-05-28_12h06.35.148,face trait task,2021.2.3,MacIntel,59.17159763,120542,,,,,,,
,,,,,,6.201432292,2.7651,space,0.7507,0,50,50,21,1,22,image/22.jpg,0,0,,R_53TWARpLPmUzLYZ,2,2024-05-28_12h06.35.148,face trait task,2021.2.3,MacIntel,59.17159763,120542,,,,,,,
,,,,,,5.34515625,3.2639,space,0.4684,0,51,51,14,1,15,image/15.jpg,0,0,,R_53TWARpLPmUzLYZ,2,2024-05-28_12h06.35.148,face trait task,2021.2.3,MacIntel,59.17159763,120542,,,,,,,
,,,,,,6.785286458,2.1964,space,0.3899,0,52,52,23,1,24,image/24.jpg,0,0,,R_53TWARpLPmUzLYZ,2,2024-05-28_12h06.35.148,face trait task,2021.2.3,MacIntel,59.17159763,120542,,,,,,,
,,,,,,,,,,,,,,,,,,,,R_53TWARpLPmUzLYZ,2,2024-05-28_12h06.35.148,face trait task,2021.2.3,MacIntel,59.17159763,120542,0,1,1,0,1,0,critical.png
,,,,,competent,4.958723958,11.75,space,0.8885,0,0,0,36,1,37,image/37.jpg,0,0,,R_53TWARpLPmUzLYZ,2,2024-05-28_12h06.35.148,face trait task,2021.2.3,MacIntel,59.17159763,120542,,,,,,,
,,,,,,3.039036458,3.514,space,0.8344,0,1,1,40,1,41,image/41.jpg,0,0,,R_53TWARpLPmUzLYZ,2,2024-05-28_12h06.35.148,face trait task,2021.2.3,MacIntel,59.17159763,120542,,,,,,,
,,,,,,4.024401042,5.9649,space,0.9713,0,2,2,33,1,34,image/34.jpg,0,0,,R_53TWARpLPmUzLYZ,2,2024-05-28_12h06.35.148,face trait task,2021.2.3,MacIntel,59.17159763,120542,,,,,,,
,,,,,,2.301927083,1.9985,space,0.8517,0,3,3,42,1,43,image/43.jpg,0,0,,R_53TWARpLPmUzLYZ,2,2024-05-28_12h06.35.148,face trait task,2021.2.3,MacIntel,59.17159763,120542,,,,,,,
,,,,,,4.560677083,2.6798,space,0.3638,0,4,4,8,1,9,image/9.jpg,0,0,,R_53TWARpLPmUzLYZ,2,2024-05-28_12h06.35.148,face trait task,2021.2.3,MacIntel,59.17159763,120542,,,,,,,
,,,,,,3.446067708,4.6239,space,0.6396,0,5,5,34,1,35,image/35.jpg,0,0,,R_53TWARpLPmUzLYZ,2,2024-05-28_12h06.35.148,face trait task,2021.2.3,MacIntel,59.17159763,120542,,,,,,,
,,,,,,2.057447917,3.4011,space,0.417,0,6,6,26,1,27,image/27.jpg,0,0,,R_53TWARpLPmUzLYZ,2,2024-05-28_12h06.35.148,face trait task,2021.2.3,MacIntel,59.17159763,120542,,,,,,,
,,,,,,5.854088542,1.9639,space,1.1226,0,7,7,11,1,12,image/12.jpg,0,0,,R_53TWARpLPmUzLYZ,2,2024-05-28_12h06.35.148,face trait task,2021.2.3,MacIntel,59.17159763,120542,,,,,,,
,,,,,,5.009505208,6.1137,space,1.9205,0,8,8,20,1,21,image/21.jpg,0,0,,R_53TWARpLPmUzLYZ,2,2024-05-28_12h06.35.148,face trait task,2021.2.3,MacIntel,59.17159763,120542,,,,,,,
,,,,,,3.007994792,3.9469,space,0.818,0,9,9,27,1,28,image/28.jpg,0,0,,R_53TWARpLPmUzLYZ,2,2024-05-28_12h06.35.148,face trait task,2021.2.3,MacIntel,59.17159763,120542,,,,,,,
,,,,,,5.968307292,5.5315,space,1.9852,0,10,10,23,1,24,image/24.jpg,0,0,,R_53TWARpLPmUzLYZ,2,2024-05-28_12h06.35.148,face trait task,2021.2.3,MacIntel,59.17159763,120542,,,,,,,
,,,,,,2.993802083,2.0477,space,0.3111,0,11,11,37,1,38,image/38.jpg,0,0,,R_53TWARpLPmUzLYZ,2,2024-05-28_12h06.35.148,face trait task,2021.2.3,MacIntel,59.17159763,120542,,,,,,,
,,,,,,2.197838542,5.5816,space,2.6645,0,12,12,19,1,20,image/20.jpg,0,0,,R_53TWARpLPmUzLYZ,2,2024-05-28_12h06.35.148,face trait task,2021.2.3,MacIntel,59.17159763,120542,,,,,,,
,,,,,,5.894583333,2.3475,space,0.3867,0,13,13,15,1,16,image/16.jpg,0,0,,R_53TWARpLPmUzLYZ,2,2024-05-28_12h06.35.148,face trait task,2021.2.3,MacIntel,59.17159763,120542,,,,,,,
,,,,,,6.256666667,2.0808,space,0.3483,0,14,14,24,1,25,image/25.jpg,0,0,,R_53TWARpLPmUzLYZ,2,2024-05-28_12h06.35.148,face trait task,2021.2.3,MacIntel,59.17159763,120542,,,,,,,
,,,,,,1,2.8939,space,0.9406,0,15,15,52,1,51,image/fill_img.png,1,1,Please move the slider all the way to the LEFT to show that you are paying attention.,R_53TWARpLPmUzLYZ,2,2024-05-28_12h06.35.148,face trait task,2021.2.3,MacIntel,59.17159763,120542,,,,,,,
,,,,,,2.977994792,4.3748,space,0.3858,0,16,16,29,1,30,image/30.jpg,0,0,,R_53TWARpLPmUzLYZ,2,2024-05-28_12h06.35.148,face trait task,2021.2.3,MacIntel,59.17159763,120542,,,,,,,
,,,,,,5.637265625,2.3795,space,0.3185,0,17,17,7,1,8,image/8.jpg,0,0,,R_53TWARpLPmUzLYZ,2,2024-05-28_12h06.35.148,face trait task,2021.2.3,MacIntel,59.17159763,120542,,,,,,,
,,,,,,6.277630208,2.0626,space,0.6014,0,18,18,10,1,11,image/11.jpg,0,0,,R_53TWARpLPmUzLYZ,2,2024-05-28_12h06.35.148,face trait task,2021.2.3,MacIntel,59.17159763,120542,,,,,,,
,,,,,,3.827447917,2.9139,space,0.3896,0,19,19,1,1,2,image/2.jpg,0,0,,R_53TWARpLPmUzLYZ,2,2024-05-28_12h06.35.148,face trait task,2021.2.3,MacIntel,59.17159763,120542,,,,,,,
,,,,,,6.0103125,4.29,space,0.2941,0,20,20,14,1,15,image/15.jpg,0,0,,R_53TWARpLPmUzLYZ,2,2024-05-28_12h06.35.148,face trait task,2021.2.3,MacIntel,59.17159763,120542,,,,,,,
,,,,,,6.45453125,2.3803,space,0.3191,0,21,21,44,1,45,image/45.jpg,0,0,,R_53TWARpLPmUzLYZ,2,2024-05-28_12h06.35.148,face trait task,2021.2.3,MacIntel,59.17159763,120542,,,,,,,
,,,,,,1.040729167,2.5306,space,0.2684,0,22,22,47,1,48,image/48.jpg,0,0,,R_53TWARpLPmUzLYZ,2,2024-05-28_12h06.35.148,face trait task,2021.2.3,MacIntel,59.17159763,120542,,,,,,,
,,,,,,5.004713542,3.3759,space,0.3227,0,23,23,5,1,6,image/6.jpg,0,0,,R_53TWARpLPmUzLYZ,2,2024-05-28_12h06.35.148,face trait task,2021.2.3,MacIntel,59.17159763,120542,,,,,,,
,,,,,,5.856484375,2.4803,space,0.5124,0,24,24,39,1,40,image/40.jpg,0,0,,R_53TWARpLPmUzLYZ,2,2024-05-28_12h06.35.148,face trait task,2021.2.3,MacIntel,59.17159763,120542,,,,,,,
,,,,,,6.90578125,4.3262,space,0.6219,0,25,25,41,1,42,image/42.jpg,0,0,,R_53TWARpLPmUzLYZ,2,2024-05-28_12h06.35.148,face trait task,2021.2.3,MacIntel,59.17159763,120542,,,,,,,
,,,,,,5.960651042,3.432,space,1.0074,0,26,26,18,1,19,image/19.jpg,0,0,,R_53TWARpLPmUzLYZ,2,2024-05-28_12h06.35.148,face trait task,2021.2.3,MacIntel,59.17159763,120542,,,,,,,
,,,,,,1.492864583,2.0304,space,0.4533,0,27,27,48,1,49,image/49.jpg,0,0,,R_53TWARpLPmUzLYZ,2,2024-05-28_12h06.35.148,face trait task,2021.2.3,MacIntel,59.17159763,120542,,,,,,,
,,,,,,5.800494792,3.7129,space,1.6217,0,28,28,45,1,46,image/46.jpg,0,0,,R_53TWARpLPmUzLYZ,2,2024-05-28_12h06.35.148,face trait task,2021.2.3,MacIntel,59.17159763,120542,,,,,,,
,,,,,,2.954817708,3.2969,space,0.2306,0,29,29,6,1,7,image/7.jpg,0,0,,R_53TWARpLPmUzLYZ,2,2024-05-28_12h06.35.148,face trait task,2021.2.3,MacIntel,59.17159763,120542,,,,,,,
,,,,,,3.525338542,3.7566,space,1.1162,0,30,30,4,1,5,image/5.jpg,0,0,,R_53TWARpLPmUzLYZ,2,2024-05-28_12h06.35.148,face trait task,2021.2.3,MacIntel,59.17159763,120542,,,,,,,
,,,,,,2.671536458,3.8815,space,0.1691,0,31,31,2,1,3,image/3.jpg,0,0,,R_53TWARpLPmUzLYZ,2,2024-05-28_12h06.35.148,face trait task,2021.2.3,MacIntel,59.17159763,120542,,,,,,,
,,,,,,6.372473958,4.5113,space,2.6216,0,32,32,21,1,22,image/22.jpg,0,0,,R_53TWARpLPmUzLYZ,2,2024-05-28_12h06.35.148,face trait task,2021.2.3,MacIntel,59.17159763,120542,,,,,,,
,,,,,,3.268541667,5.4144,space,1.5684,0,33,33,43,1,44,image/44.jpg,0,0,,R_53TWARpLPmUzLYZ,2,2024-05-28_12h06.35.148,face trait task,2021.2.3,MacIntel,59.17159763,120542,,,,,,,
,,,,,,1.215234375,7.4442,space,0.4887,0,34,34,16,1,17,image/17.jpg,0,0,,R_53TWARpLPmUzLYZ,2,2024-05-28_12h06.35.148,face trait task,2021.2.3,MacIntel,59.17159763,120542,,,,,,,
,,,,,,6.030963542,3.843,space,1.238,0,35,35,49,1,50,image/50.jpg,0,0,,R_53TWARpLPmUzLYZ,2,2024-05-28_12h06.35.148,face trait task,2021.2.3,MacIntel,59.17159763,120542,,,,,,,
,,,,,,1.235729167,2.3979,space,0.317,0,36,36,32,1,33,image/33.jpg,0,0,,R_53TWARpLPmUzLYZ,2,2024-05-28_12h06.35.148,face trait task,2021.2.3,MacIntel,59.17159763,120542,,,,,,,
,,,,,,4.987083333,3.5309,space,2.003,0,37,37,3,1,4,image/4.jpg,0,0,,R_53TWARpLPmUzLYZ,2,2024-05-28_12h06.35.148,face trait task,2021.2.3,MacIntel,59.17159763,120542,,,,,,,
,,,,,,6.844921875,5.2611,space,0.2398,0,38,38,31,1,32,image/32.jpg,0,0,,R_53TWARpLPmUzLYZ,2,2024-05-28_12h06.35.148,face trait task,2021.2.3,MacIntel,59.17159763,120542,,,,,,,
,,,,,,4.334088542,3.1804,space,0.673,0,39,39,9,1,10,image/10.jpg,0,0,,R_53TWARpLPmUzLYZ,2,2024-05-28_12h06.35.148,face trait task,2021.2.3,MacIntel,59.17159763,120542,,,,,,,
,,,,,,5.783020833,3.631,space,0.9841,0,40,40,38,1,39,image/39.jpg,0,0,,R_53TWARpLPmUzLYZ,2,2024-05-28_12h06.35.148,face trait task,2021.2.3,MacIntel,59.17159763,120542,,,,,,,
,,,,,,4.994322917,4.5587,space,0.3509,0,41,41,22,1,23,image/23.jpg,0,0,,R_53TWARpLPmUzLYZ,2,2024-05-28_12h06.35.148,face trait task,2021.2.3,MacIntel,59.17159763,120542,,,,,,,
,,,,,,7,3.6442,space,1.2166,0,42,42,51,1,56,image/fill_img.png,1,7,Please move the slider all the way to the RIGHT to show that you are paying attention.,R_53TWARpLPmUzLYZ,2,2024-05-28_12h06.35.148,face trait task,2021.2.3,MacIntel,59.17159763,120542,,,,,,,
,,,,,,3.428359375,3.445,space,0.6231,0,43,43,0,1,1,image/1.jpg,0,0,,R_53TWARpLPmUzLYZ,2,2024-05-28_12h06.35.148,face trait task,2021.2.3,MacIntel,59.17159763,120542,,,,,,,
,,,,,,4.848255208,2.68,space,0.3392,0,44,44,12,1,13,image/13.jpg,0,0,,R_53TWARpLPmUzLYZ,2,2024-05-28_12h06.35.148,face trait task,2021.2.3,MacIntel,59.17159763,120542,,,,,,,
,,,,,,3.044973958,4.5788,space,0.6045,0,45,45,28,1,29,image/29.jpg,0,0,,R_53TWARpLPmUzLYZ,2,2024-05-28_12h06.35.148,face trait task,2021.2.3,MacIntel,59.17159763,120542,,,,,,,
,,,,,,3.690026042,2.414,space,0.7177,0,46,46,13,1,14,image/14.jpg,0,0,,R_53TWARpLPmUzLYZ,2,2024-05-28_12h06.35.148,face trait task,2021.2.3,MacIntel,59.17159763,120542,,,,,,,
,,,,,,1.898854167,2.7963,space,1.1357,0,47,47,35,1,36,image/36.jpg,0,0,,R_53TWARpLPmUzLYZ,2,2024-05-28_12h06.35.148,face trait task,2021.2.3,MacIntel,59.17159763,120542,,,,,,,
,,,,,,4.129973958,2.4804,space,0.4518,0,48,48,46,1,47,image/47.jpg,0,0,,R_53TWARpLPmUzLYZ,2,2024-05-28_12h06.35.148,face trait task,2021.2.3,MacIntel,59.17159763,120542,,,,,,,
,,,,,,5.041875,2.8789,space,0.352,0,49,49,30,1,31,image/31.jpg,0,0,,R_53TWARpLPmUzLYZ,2,2024-05-28_12h06.35.148,face trait task,2021.2.3,MacIntel,59.17159763,120542,,,,,,,
,,,,,,1,3.0108,space,0.8973,0,50,50,50,1,51,image/fill_img.png,1,1,Please move the slider all the way to the LEFT to show that you are paying attention.,R_53TWARpLPmUzLYZ,2,2024-05-28_12h06.35.148,face trait task,2021.2.3,MacIntel,59.17159763,120542,,,,,,,
,,,,,,6.639244792,5.3757,space,0.9009,0,51,51,17,1,18,image/18.jpg,0,0,,R_53TWARpLPmUzLYZ,2,2024-05-28_12h06.35.148,face trait task,2021.2.3,MacIntel,59.17159763,120542,,,,,,,
,,,,,,4.35734375,2.4823,space,1.7853,0,52,52,25,1,26,image/26.jpg,0,0,,R_53TWARpLPmUzLYZ,2,2024-05-28_12h06.35.148,face trait task,2021.2.3,MacIntel,59.17159763,120542,,,,,,,
,,,,,,,,,,,,,,,,,,,,R_53TWARpLPmUzLYZ,2,2024-05-28_12h06.35.148,face trait task,2021.2.3,MacIntel,59.17159763,120542,0,2,2,1,1,1,competent.png
,,,,,trustworthy,3.98390625,3.8076,space,1.6187,0,0,0,7,1,8,image/8.jpg,0,0,,R_53TWARpLPmUzLYZ,2,2024-05-28_12h06.35.148,face trait task,2021.2.3,MacIntel,59.17159763,120542,,,,,,,
,,,,,,1.033385417,3.7459,space,1.0189,0,1,1,45,1,46,image/46.jpg,0,0,,R_53TWARpLPmUzLYZ,2,2024-05-28_12h06.35.148,face trait task,2021.2.3,MacIntel,59.17159763,120542,,,,,,,
,,,,,,4.945208333,3.7586,space,1.4503,0,2,2,48,1,49,image/49.jpg,0,0,,R_53TWARpLPmUzLYZ,2,2024-05-28_12h06.35.148,face trait task,2021.2.3,MacIntel,59.17159763,120542,,,,,,,
,,,,,,2.97171875,3.6935,space,1.6204,0,3,3,3,1,4,image/4.jpg,0,0,,R_53TWARpLPmUzLYZ,2,2024-05-28_12h06.35.148,face trait task,2021.2.3,MacIntel,59.17159763,120542,,,,,,,
,,,,,,2.250729167,10.8461,space,0.8207,0,4,4,44,1,45,image/45.jpg,0,0,,R_53TWARpLPmUzLYZ,2,2024-05-28_12h06.35.148,face trait task,2021.2.3,MacIntel,59.17159763,120542,,,,,,,
,,,,,,3.986822917,2.7795,space,0.5034,0,5,5,15,1,16,image/16.jpg,0,0,,R_53TWARpLPmUzLYZ,2,2024-05-28_12h06.35.148,face trait task,2021.2.3,MacIntel,59.17159763,120542,,,,,,,
,,,,,,1.445963542,4.6449,space,0.8034,0,6,6,19,1,20,image/20.jpg,0,0,,R_53TWARpLPmUzLYZ,2,2024-05-28_12h06.35.148,face trait task,2021.2.3,MacIntel,59.17159763,120542,,,,,,,
,,,,,,1.02984375,1.7156,space,0.3179,0,7,7,30,1,31,image/31.jpg,0,0,,R_53TWARpLPmUzLYZ,2,2024-05-28_12h06.35.148,face trait task,2021.2.3,MacIntel,59.17159763,120542,,,,,,,
,,,,,,5.050416667,2.8977,space,0.4722,0,8,8,16,1,17,image/17.jpg,0,0,,R_53TWARpLPmUzLYZ,2,2024-05-28_12h06.35.148,face trait task,2021.2.3,MacIntel,59.17159763,120542,,,,,,,
,,,,,,4.604817708,5.6325,space,3.054,0,9,9,0,1,1,image/1.jpg,0,0,,R_53TWARpLPmUzLYZ,2,2024-05-28_12h06.35.148,face trait task,2021.2.3,MacIntel,59.17159763,120542,,,,,,,
,,,,,,6.848020833,2.6802,space,0.1723,0,10,10,49,1,50,image/50.jpg,0,0,,R_53TWARpLPmUzLYZ,2,2024-05-28_12h06.35.148,face trait task,2021.2.3,MacIntel,59.17159763,120542,,,,,,,
,,,,,,5.039140625,11.0786,space,0.5218,0,11,11,29,1,30,image/30.jpg,0,0,,R_53TWARpLPmUzLYZ,2,2024-05-28_12h06.35.148,face trait task,2021.2.3,MacIntel,59.17159763,120542,,,,,,,
,,,,,,5.889010417,2.9284,space,0.5587,0,12,12,46,1,47,image/47.jpg,0,0,,R_53TWARpLPmUzLYZ,2,2024-05-28_12h06.35.148,face trait task,2021.2.3,MacIntel,59.17159763,120542,,,,,,,
,,,,,,3.004296875,5.9418,space,0.3868,0,13,13,13,1,14,image/14.jpg,0,0,,R_53TWARpLPmUzLYZ,2,2024-05-28_12h06.35.148,face trait task,2021.2.3,MacIntel,59.17159763,120542,,,,,,,
,,,,,,1.907005208,2.1123,space,1.7004,0,14,14,21,1,22,image/22.jpg,0,0,,R_53TWARpLPmUzLYZ,2,2024-05-28_12h06.35.148,face trait task,2021.2.3,MacIntel,59.17159763,120542,,,,,,,
,,,,,,6.92078125,2.3853,space,0.4014,0,15,15,4,1,5,image/5.jpg,0,0,,R_53TWARpLPmUzLYZ,2,2024-05-28_12h06.35.148,face trait task,2021.2.3,MacIntel,59.17159763,120542,,,,,,,
,,,,,,5.845833333,10.2282,space,0.739,0,16,16,28,1,29,image/29.jpg,0,0,,R_53TWARpLPmUzLYZ,2,2024-05-28_12h06.35.148,face trait task,2021.2.3,MacIntel,59.17159763,120542,,,,,,,
,,,,,,2.020104167,6.6931,space,0.6054,0,17,17,27,1,28,image/28.jpg,0,0,,R_53TWARpLPmUzLYZ,2,2024-05-28_12h06.35.148,face trait task,2021.2.3,MacIntel,59.17159763,120542,,,,,,,
,,,,,,6.680234375,4.1829,space,1.6521,0,18,18,24,1,25,image/25.jpg,0,0,,R_53TWARpLPmUzLYZ,2,2024-05-28_12h06.35.148,face trait task,2021.2.3,MacIntel,59.17159763,120542,,,,,,,
,,,,,,4.326171875,7.6123,space,0.5219,0,19,19,25,1,26,image/26.jpg,0,0,,R_53TWARpLPmUzLYZ,2,2024-05-28_12h06.35.148,face trait task,2021.2.3,MacIntel,59.17159763,120542,,,,,,,
,,,,,,7,3.7956,space,1.9002,0,20,20,51,1,56,image/fill_img.png,1,7,Please move the slider all the way to the RIGHT to show that you are paying attention.,R_53TWARpLPmUzLYZ,2,2024-05-28_12h06.35.148,face trait task,2021.2.3,MacIntel,59.17159763,120542,,,,,,,
,,,,,,4.058697917,7.8075,space,1.0573,0,21,21,1,1,2,image/2.jpg,0,0,,R_53TWARpLPmUzLYZ,2,2024-05-28_12h06.35.148,face trait task,2021.2.3,MacIntel,59.17159763,120542,,,,,,,
,,,,,,4.828697917,4.0779,space,0.756,0,22,22,10,1,11,image/11.jpg,0,0,,R_53TWARpLPmUzLYZ,2,2024-05-28_12h06.35.148,face trait task,2021.2.3,MacIntel,59.17159763,120542,,,,,,,
,,,,,,5.476536458,11.7449,space,1.1722,0,23,23,6,1,7,image/7.jpg,0,0,,R_53TWARpLPmUzLYZ,2,2024-05-28_12h06.35.148,face trait task,2021.2.3,MacIntel,59.17159763,120542,,,,,,,
,,,,,,6.881302083,1.6627,space,0.5026,0,24,24,33,1,34,image/34.jpg,0,0,,R_53TWARpLPmUzLYZ,2,2024-05-28_12h06.35.148,face trait task,2021.2.3,MacIntel,59.17159763,120542,,,,,,,
,,,,,,4.404192708,7.3263,space,2.9722,0,25,25,26,1,27,image/27.jpg,0,0,,R_53TWARpLPmUzLYZ,2,2024-05-28_12h06.35.148,face trait task,2021.2.3,MacIntel,59.17159763,120542,,,,,,,
,,,,,,4.864479167,2.3831,space,0.5615,0,26,26,14,1,15,image/15.jpg,0,0,,R_53TWARpLPmUzLYZ,2,2024-05-28_12h06.35.148,face trait task,2021.2.3,MacIntel,59.17159763,120542,,,,,,,
,,,,,,6.069348958,1.9476,space,0.451,0,27,27,17,1,18,image/18.jpg,0,0,,R_53TWARpLPmUzLYZ,2,2024-05-28_12h06.35.148,face trait task,2021.2.3,MacIntel,59.17159763,120542,,,,,,,
,,,,,,2.887213542,3.6473,space,0.3017,0,28,28,12,1,13,image/13.jpg,0,0,,R_53TWARpLPmUzLYZ,2,2024-05-28_12h06.35.148,face trait task,2021.2.3,MacIntel,59.17159763,120542,,,,,,,
,,,,,,6.835885417,2.464,space,0.2687,0,29,29,34,1,35,image/35.jpg,0,0,,R_53TWARpLPmUzLYZ,2,2024-05-28_12h06.35.148,face trait task,2021.2.3,MacIntel,59.17159763,120542,,,,,,,
,,,,,,5.273776042,2.6288,space,0.4848,0,30,30,32,1,33,image/33.jpg,0,0,,R_53TWARpLPmUzLYZ,2,2024-05-28_12h06.35.148,face trait task,2021.2.3,MacIntel,59.17159763,120542,,,,,,,
,,,,,,2.290989583,3.3932,space,0.2598,0,31,31,37,1,38,image/38.jpg,0,0,,R_53TWARpLPmUzLYZ,2,2024-05-28_12h06.35.148,face trait task,2021.2.3,MacIntel,59.17159763,120542,,,,,,,
,,,,,,1.115546875,3.4658,space,2.8847,0,32,32,39,1,40,image/40.jpg,0,0,,R_53TWARpLPmUzLYZ,2,2024-05-28_12h06.35.148,face trait task,2021.2.3,MacIntel,59.17159763,120542,,,,,,,
,,,,,,6.105052083,2.9467,space,0.7071,0,33,33,22,1,23,image/23.jpg,0,0,,R_53TWARpLPmUzLYZ,2,2024-05-28_12h06.35.148,face trait task,2021.2.3,MacIntel,59.17159763,120542,,,,,,,
,,,,,,1,2.6774,space,1.0354,0,34,34,52,1,51,image/fill_img.png,1,1,Please move the slider all the way to the LEFT to show that you are paying attention.,R_53TWARpLPmUzLYZ,2,2024-05-28_12h06.35.148,face trait task,2021.2.3,MacIntel,59.17159763,120542,,,,,,,
,,,,,,3.498541667,3.7971,space,0.7512,0,35,35,9,1,10,image/10.jpg,0,0,,R_53TWARpLPmUzLYZ,2,2024-05-28_12h06.35.148,face trait task,2021.2.3,MacIntel,59.17159763,120542,,,,,,,
,,,,,,2.360338542,2.4635,space,0.7102,0,36,36,5,1,6,image/6.jpg,0,0,,R_53TWARpLPmUzLYZ,2,2024-05-28_12h06.35.148,face trait task,2021.2.3,MacIntel,59.17159763,120542,,,,,,,
,,,,,,1.558229167,2.5307,space,0.3884,0,37,37,43,1,44,image/44.jpg,0,0,,R_53TWARpLPmUzLYZ,2,2024-05-28_12h06.35.148,face trait task,2021.2.3,MacIntel,59.17159763,120542,,,,,,,
,,,,,,1.035572917,3.8192,space,1.4507,0,38,38,18,1,19,image/19.jpg,0,0,,R_53TWARpLPmUzLYZ,2,2024-05-28_12h06.35.148,face trait task,2021.2.3,MacIntel,59.17159763,120542,,,,,,,
,,,,,,6.841979167,3.6474,space,1.0852,0,39,39,47,1,48,image/48.jpg,0,0,,R_53TWARpLPmUzLYZ,2,2024-05-28_12h06.35.148,face trait task,2021.2.3,MacIntel,59.17159763,120542,,,,,,,
,,,,,,3.59234375,2.1961,space,0.3683,0,40,40,8,1,9,image/9.jpg,0,0,,R_53TWARpLPmUzLYZ,2,2024-05-28_12h06.35.148,face trait task,2021.2.3,MacIntel,59.17159763,120542,,,,,,,
,,,,,,1,2.6128,space,0.9214,0,41,41,50,1,51,image/fill_img.png,1,1,Please move the slider all the way to the LEFT to show that you are paying attention.,R_53TWARpLPmUzLYZ,2,2024-05-28_12h06.35.148,face trait task,2021.2.3,MacIntel,59.17159763,120542,,,,,,,
,,,,,,1.228411458,3.9747,space,1.4417,0,42,42,40,1,41,image/41.jpg,0,0,,R_53TWARpLPmUzLYZ,2,2024-05-28_12h06.35.148,face trait task,2021.2.3,MacIntel,59.17159763,120542,,,,,,,
,,,,,,6.3134375,3.4084,space,0.5381,0,43,43,2,1,3,image/3.jpg,0,0,,R_53TWARpLPmUzLYZ,2,2024-05-28_12h06.35.148,face trait task,2021.2.3,MacIntel,59.17159763,120542,,,,,,,
,,,,,,2.047473958,5.6275,space,0.2555,0,44,44,42,1,43,image/43.jpg,0,0,,R_53TWARpLPmUzLYZ,2,2024-05-28_12h06.35.148,face trait task,2021.2.3,MacIntel,59.17159763,120542,,,,,,,
,,,,,,1.259583333,2.3157,space,0.2834,0,45,45,38,1,39,image/39.jpg,0,0,,R_53TWARpLPmUzLYZ,2,2024-05-28_12h06.35.148,face trait task,2021.2.3,MacIntel,59.17159763,120542,,,,,,,
,,,,,,6.878984375,2.0143,space,0.3375,0,46,46,35,1,36,image/36.jpg,0,0,,R_53TWARpLPmUzLYZ,2,2024-05-28_12h06.35.148,face trait task,2021.2.3,MacIntel,59.17159763,120542,,,,,,,
,,,,,,6.443697917,5.2417,space,0.5724,0,47,47,20,1,21,image/21.jpg,0,0,,R_53TWARpLPmUzLYZ,2,2024-05-28_12h06.35.148,face trait task,2021.2.3,MacIntel,59.17159763,120542,,,,,,,
,,,,,,5.203359375,3.8813,space,0.4677,0,48,48,11,1,12,image/12.jpg,0,0,,R_53TWARpLPmUzLYZ,2,2024-05-28_12h06.35.148,face trait task,2021.2.3,MacIntel,59.17159763,120542,,,,,,,
,,,,,,2.088046875,15.009,space,0.1385,0,49,49,23,1,24,image/24.jpg,0,0,,R_53TWARpLPmUzLYZ,2,2024-05-28_12h06.35.148,face trait task,2021.2.3,MacIntel,59.17159763,120542,,,,,,,
,,,,,,6.797916667,13.0269,space,3.8572,0,50,50,36,1,37,image/37.jpg,0,0,,R_53TWARpLPmUzLYZ,2,2024-05-28_12h06.35.148,face trait task,2021.2.3,MacIntel,59.17159763,120542,,,,,,,
,,,,,,4.896354167,31.9154,space,0.6269,0,51,51,31,1,32,image/32.jpg,0,0,,R_53TWARpLPmUzLYZ,2,2024-05-28_12h06.35.148,face trait task,2021.2.3,MacIntel,59.17159763,120542,,,,,,,
,,,,,,2.845364583,5.8075,space,0.2907,0,52,52,41,1,42,image/42.jpg,0,0,,R_53TWARpLPmUzLYZ,2,2024-05-28_12h06.35.148,face trait task,2021.2.3,MacIntel,59.17159763,120542,,,,,,,
,,,,,,,,,,,,,,,,,,,,R_53TWARpLPmUzLYZ,2,2024-05-28_12h06.35.148,face trait task,2021.2.3,MacIntel,59.17159763,120542,0,3,3,2,1,2,trustworthy.png
