key_resp.keys,key_resp.rt,key_resp_4.keys,key_resp_4.rt,slider_face_judge.response,slider_face_judge.rt,key_resp_3.keys,key_resp_3.rt,face_loop.thisRepN,face_loop.thisTrialN,face_loop.thisN,face_loop.thisIndex,face_loop.ran,face_serial,image_name,isCheck,participant,session,date,expName,psychopyVersion,OS,frameRate,SONAid,session.thisRepN,session.thisTrialN,session.thisN,session.thisIndex,session.ran,session_serial,slider_judge_img
space,34.242,space,16.582,4.953333333,10.147,space,2.488,0,0,0,37,1,38,image/38.jpg,0,R_54voFul3k9D7bqr,2,2024-04-10_21h41.46.546,face trait task,2021.2.3,MacIntel,30.3030303,SONAid,,,,,,,
,,,,2.98,3.887,space,2.357,0,1,1,47,1,48,image/48.jpg,0,R_54voFul3k9D7bqr,2,2024-04-10_21h41.46.546,face trait task,2021.2.3,MacIntel,30.3030303,SONAid,,,,,,,
,,,,2.433333333,1.969,space,0.997,0,2,2,49,1,50,image/50.jpg,0,R_54voFul3k9D7bqr,2,2024-04-10_21h41.46.546,face trait task,2021.2.3,MacIntel,30.3030303,SONAid,,,,,,,
,,,,3.88,6.287,space,2.372,0,3,3,39,1,40,image/40.jpg,0,R_54voFul3k9D7bqr,2,2024-04-10_21h41.46.546,face trait task,2021.2.3,MacIntel,30.3030303,SONAid,,,,,,,
,,,,2.553333333,1.988,space,0.489,0,4,4,44,1,45,image/45.jpg,0,R_54voFul3k9D7bqr,2,2024-04-10_21h41.46.546,face trait task,2021.2.3,MacIntel,30.3030303,SONAid,,,,,,,
,,,,1.993333333,5.386,space,1.189,0,5,5,33,1,34,image/34.jpg,0,R_54voFul3k9D7bqr,2,2024-04-10_21h41.46.546,face trait task,2021.2.3,MacIntel,30.3030303,SONAid,,,,,,,
,,,,1.38,2.935,space,1.753,0,6,6,4,1,5,image/5.jpg,0,R_54voFul3k9D7bqr,2,2024-04-10_21h41.46.546,face trait task,2021.2.3,MacIntel,30.3030303,SONAid,,,,,,,
,,,,1,2.069,space,0.622,0,7,7,11,1,12,image/12.jpg,0,R_54voFul3k9D7bqr,2,2024-04-10_21h41.46.546,face trait task,2021.2.3,MacIntel,30.3030303,SONAid,,,,,,,
,,,,1.146666667,3.785,space,1.103,0,8,8,2,1,3,image/3.jpg,0,R_54voFul3k9D7bqr,2,2024-04-10_21h41.46.546,face trait task,2021.2.3,MacIntel,30.3030303,SONAid,,,,,,,
,,,,2.833333333,3.102,space,0.267,0,9,9,24,1,25,image/25.jpg,0,R_54voFul3k9D7bqr,2,2024-04-10_21h41.46.546,face trait task,2021.2.3,MacIntel,30.3030303,SONAid,,,,,,,
,,,,5.586666667,4.888,space,2.519,0,10,10,9,1,10,image/10.jpg,0,R_54voFul3k9D7bqr,2,2024-04-10_21h41.46.546,face trait task,2021.2.3,MacIntel,30.3030303,SONAid,,,,,,,
,,,,5.586666667,5.722,space,3.675,0,11,11,6,1,7,image/7.jpg,0,R_54voFul3k9D7bqr,2,2024-04-10_21h41.46.546,face trait task,2021.2.3,MacIntel,30.3030303,SONAid,,,,,,,
,,,,2.773333333,1.955,space,5.47,0,12,12,12,1,13,image/13.jpg,0,R_54voFul3k9D7bqr,2,2024-04-10_21h41.46.546,face trait task,2021.2.3,MacIntel,30.3030303,SONAid,,,,,,,
,,,,6.44,3.088,space,1.467,0,13,13,25,1,26,image/26.jpg,0,R_54voFul3k9D7bqr,2,2024-04-10_21h41.46.546,face trait task,2021.2.3,MacIntel,30.3030303,SONAid,,,,,,,
,,,,4.273333333,5.301,space,1.319,0,14,14,36,1,37,image/37.jpg,0,R_54voFul3k9D7bqr,2,2024-04-10_21h41.46.546,face trait task,2021.2.3,MacIntel,30.3030303,SONAid,,,,,,,
,,,,6.14,9.337,space,0.412,0,15,15,30,1,31,image/31.jpg,0,R_54voFul3k9D7bqr,2,2024-04-10_21h41.46.546,face trait task,2021.2.3,MacIntel,30.3030303,SONAid,,,,,,,
,,,,5.14,4.536,space,0.329,0,16,16,40,1,41,image/41.jpg,0,R_54voFul3k9D7bqr,2,2024-04-10_21h41.46.546,face trait task,2021.2.3,MacIntel,30.3030303,SONAid,,,,,,,
,,,,3.78,2.168,space,0.277,0,17,17,52,1,52,image/52.jpg,1,R_54voFul3k9D7bqr,2,2024-04-10_21h41.46.546,face trait task,2021.2.3,MacIntel,30.3030303,SONAid,,,,,,,
,,,,2.846666667,2.487,space,0.396,0,18,18,7,1,8,image/8.jpg,0,R_54voFul3k9D7bqr,2,2024-04-10_21h41.46.546,face trait task,2021.2.3,MacIntel,30.3030303,SONAid,,,,,,,
,,,,1.14,2.955,space,0.279,0,19,19,26,1,27,image/27.jpg,0,R_54voFul3k9D7bqr,2,2024-04-10_21h41.46.546,face trait task,2021.2.3,MacIntel,30.3030303,SONAid,,,,,,,
,,,,6.293333333,3.521,space,0.402,0,20,20,22,1,23,image/23.jpg,0,R_54voFul3k9D7bqr,2,2024-04-10_21h41.46.546,face trait task,2021.2.3,MacIntel,30.3030303,SONAid,,,,,,,
,,,,4.006666667,3.702,space,0.331,0,21,21,34,1,35,image/35.jpg,0,R_54voFul3k9D7bqr,2,2024-04-10_21h41.46.546,face trait task,2021.2.3,MacIntel,30.3030303,SONAid,,,,,,,
,,,,5.146666667,5.688,space,0.305,0,22,22,48,1,49,image/49.jpg,0,R_54voFul3k9D7bqr,2,2024-04-10_21h41.46.546,face trait task,2021.2.3,MacIntel,30.3030303,SONAid,,,,,,,
,,,,6.413333333,6.319,space,0.176,0,23,23,32,1,33,image/33.jpg,0,R_54voFul3k9D7bqr,2,2024-04-10_21h41.46.546,face trait task,2021.2.3,MacIntel,30.3030303,SONAid,,,,,,,
,,,,5.493333333,5.521,space,0.171,0,24,24,42,1,43,image/43.jpg,0,R_54voFul3k9D7bqr,2,2024-04-10_21h41.46.546,face trait task,2021.2.3,MacIntel,30.3030303,SONAid,,,,,,,
,,,,6.273333333,7.553,space,0.945,0,25,25,15,1,16,image/16.jpg,0,R_54voFul3k9D7bqr,2,2024-04-10_21h41.46.546,face trait task,2021.2.3,MacIntel,30.3030303,SONAid,,,,,,,
,,,,3.52,3.12,space,0.322,0,26,26,20,1,21,image/21.jpg,0,R_54voFul3k9D7bqr,2,2024-04-10_21h41.46.546,face trait task,2021.2.3,MacIntel,30.3030303,SONAid,,,,,,,
,,,,6.086666667,6.303,space,0.34,0,27,27,1,1,2,image/2.jpg,0,R_54voFul3k9D7bqr,2,2024-04-10_21h41.46.546,face trait task,2021.2.3,MacIntel,30.3030303,SONAid,,,,,,,
,,,,6.68,2.436,space,0.856,0,28,28,45,1,46,image/46.jpg,0,R_54voFul3k9D7bqr,2,2024-04-10_21h41.46.546,face trait task,2021.2.3,MacIntel,30.3030303,SONAid,,,,,,,
,,,,1.753333333,4.936,space,0.821,0,29,29,35,1,36,image/36.jpg,0,R_54voFul3k9D7bqr,2,2024-04-10_21h41.46.546,face trait task,2021.2.3,MacIntel,30.3030303,SONAid,,,,,,,
,,,,5.353333333,3.07,space,0.271,0,30,30,31,1,32,image/32.jpg,0,R_54voFul3k9D7bqr,2,2024-04-10_21h41.46.546,face trait task,2021.2.3,MacIntel,30.3030303,SONAid,,,,,,,
,,,,1.72,5.72,space,0.565,0,31,31,5,1,6,image/6.jpg,0,R_54voFul3k9D7bqr,2,2024-04-10_21h41.46.546,face trait task,2021.2.3,MacIntel,30.3030303,SONAid,,,,,,,
,,,,2.646666667,5.153,space,0.555,0,32,32,51,1,56,image/56.jpg,1,R_54voFul3k9D7bqr,2,2024-04-10_21h41.46.546,face trait task,2021.2.3,MacIntel,30.3030303,SONAid,,,,,,,
,,,,6.186666667,4.434,space,0.629,0,33,33,43,1,44,image/44.jpg,0,R_54voFul3k9D7bqr,2,2024-04-10_21h41.46.546,face trait task,2021.2.3,MacIntel,30.3030303,SONAid,,,,,,,
,,,,4.633333333,6.236,space,5.288,0,34,34,21,1,22,image/22.jpg,0,R_54voFul3k9D7bqr,2,2024-04-10_21h41.46.546,face trait task,2021.2.3,MacIntel,30.3030303,SONAid,,,,,,,
,,,,4.24,7.07,space,5.405,0,35,35,3,1,4,image/4.jpg,0,R_54voFul3k9D7bqr,2,2024-04-10_21h41.46.546,face trait task,2021.2.3,MacIntel,30.3030303,SONAid,,,,,,,
,,,,2.4,1.868,space,0.31,0,36,36,10,1,11,image/11.jpg,0,R_54voFul3k9D7bqr,2,2024-04-10_21h41.46.546,face trait task,2021.2.3,MacIntel,30.3030303,SONAid,,,,,,,
,,,,1.62,4.036,space,0.485,0,37,37,28,1,29,image/29.jpg,0,R_54voFul3k9D7bqr,2,2024-04-10_21h41.46.546,face trait task,2021.2.3,MacIntel,30.3030303,SONAid,,,,,,,
,,,,5.266666667,4.569,space,0.322,0,38,38,0,1,1,image/1.jpg,0,R_54voFul3k9D7bqr,2,2024-04-10_21h41.46.546,face trait task,2021.2.3,MacIntel,30.3030303,SONAid,,,,,,,
,,,,5.693333333,6.669,space,0.338,0,39,39,16,1,17,image/17.jpg,0,R_54voFul3k9D7bqr,2,2024-04-10_21h41.46.546,face trait task,2021.2.3,MacIntel,30.3030303,SONAid,,,,,,,
,,,,5.2,4.286,space,0.741,0,40,40,41,1,42,image/42.jpg,0,R_54voFul3k9D7bqr,2,2024-04-10_21h41.46.546,face trait task,2021.2.3,MacIntel,30.3030303,SONAid,,,,,,,
,,,,3.2,8.971,space,0.157,0,41,41,23,1,24,image/24.jpg,0,R_54voFul3k9D7bqr,2,2024-04-10_21h41.46.546,face trait task,2021.2.3,MacIntel,30.3030303,SONAid,,,,,,,
,,,,4.013333333,6.502,space,0.419,0,42,42,14,1,15,image/15.jpg,0,R_54voFul3k9D7bqr,2,2024-04-10_21h41.46.546,face trait task,2021.2.3,MacIntel,30.3030303,SONAid,,,,,,,
,,,,6.226666667,4.903,space,0.355,0,43,43,46,1,47,image/47.jpg,0,R_54voFul3k9D7bqr,2,2024-04-10_21h41.46.546,face trait task,2021.2.3,MacIntel,30.3030303,SONAid,,,,,,,
,,,,1.646666667,7.323,space,0.334,0,44,44,8,1,9,image/9.jpg,0,R_54voFul3k9D7bqr,2,2024-04-10_21h41.46.546,face trait task,2021.2.3,MacIntel,30.3030303,SONAid,,,,,,,
,,,,5.306666667,4.737,space,0.322,0,45,45,13,1,14,image/14.jpg,0,R_54voFul3k9D7bqr,2,2024-04-10_21h41.46.546,face trait task,2021.2.3,MacIntel,30.3030303,SONAid,,,,,,,
,,,,2.5,5.571,space,1.038,0,46,46,18,1,19,image/19.jpg,0,R_54voFul3k9D7bqr,2,2024-04-10_21h41.46.546,face trait task,2021.2.3,MacIntel,30.3030303,SONAid,,,,,,,
,,,,1.006666667,3.069,space,0.64,0,47,47,17,1,18,image/18.jpg,0,R_54voFul3k9D7bqr,2,2024-04-10_21h41.46.546,face trait task,2021.2.3,MacIntel,30.3030303,SONAid,,,,,,,
,,,,5.333333333,5.77,space,0.401,0,48,48,27,1,28,image/28.jpg,0,R_54voFul3k9D7bqr,2,2024-04-10_21h41.46.546,face trait task,2021.2.3,MacIntel,30.3030303,SONAid,,,,,,,
,,,,5.006666667,7.602,space,2.842,0,49,49,50,1,61,image/61.jpg,1,R_54voFul3k9D7bqr,2,2024-04-10_21h41.46.546,face trait task,2021.2.3,MacIntel,30.3030303,SONAid,,,,,,,
,,,,5.346666667,6.053,space,0.441,0,50,50,19,1,20,image/20.jpg,0,R_54voFul3k9D7bqr,2,2024-04-10_21h41.46.546,face trait task,2021.2.3,MacIntel,30.3030303,SONAid,,,,,,,
,,,,4.813333333,7.069,space,0.331,0,51,51,29,1,30,image/30.jpg,0,R_54voFul3k9D7bqr,2,2024-04-10_21h41.46.546,face trait task,2021.2.3,MacIntel,30.3030303,SONAid,,,,,,,
,,,,5.813333333,7.103,space,0.411,0,52,52,38,1,39,image/39.jpg,0,R_54voFul3k9D7bqr,2,2024-04-10_21h41.46.546,face trait task,2021.2.3,MacIntel,30.3030303,SONAid,,,,,,,
,,,,,,,,,,,,,,,,R_54voFul3k9D7bqr,2,2024-04-10_21h41.46.546,face trait task,2021.2.3,MacIntel,30.3030303,SONAid,0,0,0,0,1,0,critical.png
,,,,3.986666667,7.695,space,0.772,0,0,0,46,1,47,image/47.jpg,0,R_54voFul3k9D7bqr,2,2024-04-10_21h41.46.546,face trait task,2021.2.3,MacIntel,30.3030303,SONAid,,,,,,,
,,,,2.986666667,3.836,space,0.354,0,1,1,8,1,9,image/9.jpg,0,R_54voFul3k9D7bqr,2,2024-04-10_21h41.46.546,face trait task,2021.2.3,MacIntel,30.3030303,SONAid,,,,,,,
,,,,3.186666667,2.254,space,0.23,0,2,2,9,1,10,image/10.jpg,0,R_54voFul3k9D7bqr,2,2024-04-10_21h41.46.546,face trait task,2021.2.3,MacIntel,30.3030303,SONAid,,,,,,,
,,,,5.993333333,3.071,space,0.622,0,3,3,17,1,18,image/18.jpg,0,R_54voFul3k9D7bqr,2,2024-04-10_21h41.46.546,face trait task,2021.2.3,MacIntel,30.3030303,SONAid,,,,,,,
,,,,6.513333333,4.601,space,0.568,0,4,4,11,1,12,image/12.jpg,0,R_54voFul3k9D7bqr,2,2024-04-10_21h41.46.546,face trait task,2021.2.3,MacIntel,30.3030303,SONAid,,,,,,,
,,,,2.213333333,2.555,space,1.057,0,5,5,37,1,38,image/38.jpg,0,R_54voFul3k9D7bqr,2,2024-04-10_21h41.46.546,face trait task,2021.2.3,MacIntel,30.3030303,SONAid,,,,,,,
,,,,5.78,2.253,space,0.273,0,6,6,2,1,3,image/3.jpg,0,R_54voFul3k9D7bqr,2,2024-04-10_21h41.46.546,face trait task,2021.2.3,MacIntel,30.3030303,SONAid,,,,,,,
,,,,5.28,4.67,space,0.545,0,7,7,20,1,21,image/21.jpg,0,R_54voFul3k9D7bqr,2,2024-04-10_21h41.46.546,face trait task,2021.2.3,MacIntel,30.3030303,SONAid,,,,,,,
,,,,4.513333333,2.336,space,0.342,0,8,8,35,1,36,image/36.jpg,0,R_54voFul3k9D7bqr,2,2024-04-10_21h41.46.546,face trait task,2021.2.3,MacIntel,30.3030303,SONAid,,,,,,,
,,,,1.42,3.169,space,0.902,0,9,9,30,1,31,image/31.jpg,0,R_54voFul3k9D7bqr,2,2024-04-10_21h41.46.546,face trait task,2021.2.3,MacIntel,30.3030303,SONAid,,,,,,,
,,,,6.4,4.636,space,0.274,0,10,10,48,1,49,image/49.jpg,0,R_54voFul3k9D7bqr,2,2024-04-10_21h41.46.546,face trait task,2021.2.3,MacIntel,30.3030303,SONAid,,,,,,,
,,,,3.626666667,3.689,space,0.602,0,11,11,6,1,7,image/7.jpg,0,R_54voFul3k9D7bqr,2,2024-04-10_21h41.46.546,face trait task,2021.2.3,MacIntel,30.3030303,SONAid,,,,,,,
,,,,6.82,5.288,space,0.204,0,12,12,34,1,35,image/35.jpg,0,R_54voFul3k9D7bqr,2,2024-04-10_21h41.46.546,face trait task,2021.2.3,MacIntel,30.3030303,SONAid,,,,,,,
,,,,4.02,7.186,space,0.87,0,13,13,32,1,33,image/33.jpg,0,R_54voFul3k9D7bqr,2,2024-04-10_21h41.46.546,face trait task,2021.2.3,MacIntel,30.3030303,SONAid,,,,,,,
,,,,2.42,5.636,space,0.374,0,14,14,15,1,16,image/16.jpg,0,R_54voFul3k9D7bqr,2,2024-04-10_21h41.46.546,face trait task,2021.2.3,MacIntel,30.3030303,SONAid,,,,,,,
,,,,3.953333333,2.969,space,0.621,0,15,15,26,1,27,image/27.jpg,0,R_54voFul3k9D7bqr,2,2024-04-10_21h41.46.546,face trait task,2021.2.3,MacIntel,30.3030303,SONAid,,,,,,,
,,,,4.986666667,4.82,space,0.54,0,16,16,51,1,56,image/56.jpg,1,R_54voFul3k9D7bqr,2,2024-04-10_21h41.46.546,face trait task,2021.2.3,MacIntel,30.3030303,SONAid,,,,,,,
,,,,2.553333333,10.2,space,0.804,0,17,17,31,1,32,image/32.jpg,0,R_54voFul3k9D7bqr,2,2024-04-10_21h41.46.546,face trait task,2021.2.3,MacIntel,30.3030303,SONAid,,,,,,,
,,,,4.04,2.955,space,0.565,0,18,18,44,1,45,image/45.jpg,0,R_54voFul3k9D7bqr,2,2024-04-10_21h41.46.546,face trait task,2021.2.3,MacIntel,30.3030303,SONAid,,,,,,,
,,,,5.013333333,3.819,space,0.438,0,19,19,50,1,61,image/61.jpg,1,R_54voFul3k9D7bqr,2,2024-04-10_21h41.46.546,face trait task,2021.2.3,MacIntel,30.3030303,SONAid,,,,,,,
,,,,3.74,5.817,space,0.812,0,20,20,3,1,4,image/4.jpg,0,R_54voFul3k9D7bqr,2,2024-04-10_21h41.46.546,face trait task,2021.2.3,MacIntel,30.3030303,SONAid,,,,,,,
,,,,4.3,3.021,space,0.355,0,21,21,4,1,5,image/5.jpg,0,R_54voFul3k9D7bqr,2,2024-04-10_21h41.46.546,face trait task,2021.2.3,MacIntel,30.3030303,SONAid,,,,,,,
,,,,2.466666667,4.388,space,1.352,0,22,22,1,1,2,image/2.jpg,0,R_54voFul3k9D7bqr,2,2024-04-10_21h41.46.546,face trait task,2021.2.3,MacIntel,30.3030303,SONAid,,,,,,,
,,,,5.013333333,2.451,space,0.977,0,23,23,52,1,52,image/52.jpg,1,R_54voFul3k9D7bqr,2,2024-04-10_21h41.46.546,face trait task,2021.2.3,MacIntel,30.3030303,SONAid,,,,,,,
,,,,5.406666667,5.854,space,0.54,0,24,24,7,1,8,image/8.jpg,0,R_54voFul3k9D7bqr,2,2024-04-10_21h41.46.546,face trait task,2021.2.3,MacIntel,30.3030303,SONAid,,,,,,,
,,,,1.36,3.954,space,1.102,0,25,25,42,1,43,image/43.jpg,0,R_54voFul3k9D7bqr,2,2024-04-10_21h41.46.546,face trait task,2021.2.3,MacIntel,30.3030303,SONAid,,,,,,,
,,,,6.453333333,2.868,space,0.955,0,26,26,49,1,50,image/50.jpg,0,R_54voFul3k9D7bqr,2,2024-04-10_21h41.46.546,face trait task,2021.2.3,MacIntel,30.3030303,SONAid,,,,,,,
,,,,5.16,11.469,space,0.888,0,27,27,21,1,22,image/22.jpg,0,R_54voFul3k9D7bqr,2,2024-04-10_21h41.46.546,face trait task,2021.2.3,MacIntel,30.3030303,SONAid,,,,,,,
,,,,1.813333333,4.321,space,0.398,0,28,28,25,1,26,image/26.jpg,0,R_54voFul3k9D7bqr,2,2024-04-10_21h41.46.546,face trait task,2021.2.3,MacIntel,30.3030303,SONAid,,,,,,,
,,,,1.733333333,4.487,space,1.203,0,29,29,39,1,40,image/40.jpg,0,R_54voFul3k9D7bqr,2,2024-04-10_21h41.46.546,face trait task,2021.2.3,MacIntel,30.3030303,SONAid,,,,,,,
,,,,6.206666667,4.87,space,0.425,0,30,30,24,1,25,image/25.jpg,0,R_54voFul3k9D7bqr,2,2024-04-10_21h41.46.546,face trait task,2021.2.3,MacIntel,30.3030303,SONAid,,,,,,,
,,,,5.333333333,2.302,space,0.335,0,31,31,10,1,11,image/11.jpg,0,R_54voFul3k9D7bqr,2,2024-04-10_21h41.46.546,face trait task,2021.2.3,MacIntel,30.3030303,SONAid,,,,,,,
,,,,2.446666667,6.522,space,0.297,0,32,32,29,1,30,image/30.jpg,0,R_54voFul3k9D7bqr,2,2024-04-10_21h41.46.546,face trait task,2021.2.3,MacIntel,30.3030303,SONAid,,,,,,,
,,,,3.98,5.186,space,0.386,0,33,33,28,1,29,image/29.jpg,0,R_54voFul3k9D7bqr,2,2024-04-10_21h41.46.546,face trait task,2021.2.3,MacIntel,30.3030303,SONAid,,,,,,,
,,,,3.473333333,5.889,space,0.201,0,34,34,16,1,17,image/17.jpg,0,R_54voFul3k9D7bqr,2,2024-04-10_21h41.46.546,face trait task,2021.2.3,MacIntel,30.3030303,SONAid,,,,,,,
,,,,4.84,11.57,space,0.298,0,35,35,19,1,20,image/20.jpg,0,R_54voFul3k9D7bqr,2,2024-04-10_21h41.46.546,face trait task,2021.2.3,MacIntel,30.3030303,SONAid,,,,,,,
,,,,3.993333333,9.536,space,0.59,0,36,36,47,1,48,image/48.jpg,0,R_54voFul3k9D7bqr,2,2024-04-10_21h41.46.546,face trait task,2021.2.3,MacIntel,30.3030303,SONAid,,,,,,,
,,,,5,3.369,space,0.804,0,37,37,33,1,34,image/34.jpg,0,R_54voFul3k9D7bqr,2,2024-04-10_21h41.46.546,face trait task,2021.2.3,MacIntel,30.3030303,SONAid,,,,,,,
,,,,1.48,4.535,space,0.305,0,38,38,13,1,14,image/14.jpg,0,R_54voFul3k9D7bqr,2,2024-04-10_21h41.46.546,face trait task,2021.2.3,MacIntel,30.3030303,SONAid,,,,,,,
,,,,2.24,3.387,space,0.327,0,39,39,27,1,28,image/28.jpg,0,R_54voFul3k9D7bqr,2,2024-04-10_21h41.46.546,face trait task,2021.2.3,MacIntel,30.3030303,SONAid,,,,,,,
,,,,5.006666667,6.189,space,3.335,0,40,40,22,1,23,image/23.jpg,0,R_54voFul3k9D7bqr,2,2024-04-10_21h41.46.546,face trait task,2021.2.3,MacIntel,30.3030303,SONAid,,,,,,,
,,,,5.113333333,6.97,space,0.295,0,41,41,40,1,41,image/41.jpg,0,R_54voFul3k9D7bqr,2,2024-04-10_21h41.46.546,face trait task,2021.2.3,MacIntel,30.3030303,SONAid,,,,,,,
,,,,1.973333333,2.436,space,0.519,0,42,42,45,1,46,image/46.jpg,0,R_54voFul3k9D7bqr,2,2024-04-10_21h41.46.546,face trait task,2021.2.3,MacIntel,30.3030303,SONAid,,,,,,,
,,,,4,3.387,space,0.301,0,43,43,5,1,6,image/6.jpg,0,R_54voFul3k9D7bqr,2,2024-04-10_21h41.46.546,face trait task,2021.2.3,MacIntel,30.3030303,SONAid,,,,,,,
,,,,5.686666667,5.121,space,2.088,0,44,44,36,1,37,image/37.jpg,0,R_54voFul3k9D7bqr,2,2024-04-10_21h41.46.546,face trait task,2021.2.3,MacIntel,30.3030303,SONAid,,,,,,,
,,,,4.493333333,2.954,space,0.321,0,45,45,12,1,13,image/13.jpg,0,R_54voFul3k9D7bqr,2,2024-04-10_21h41.46.546,face trait task,2021.2.3,MacIntel,30.3030303,SONAid,,,,,,,
,,,,2.266666667,2.688,space,2.779,0,46,46,0,1,1,image/1.jpg,0,R_54voFul3k9D7bqr,2,2024-04-10_21h41.46.546,face trait task,2021.2.3,MacIntel,30.3030303,SONAid,,,,,,,
,,,,5.3,3.688,space,0.355,0,47,47,18,1,19,image/19.jpg,0,R_54voFul3k9D7bqr,2,2024-04-10_21h41.46.546,face trait task,2021.2.3,MacIntel,30.3030303,SONAid,,,,,,,
,,,,3.506666667,10.536,space,0.406,0,48,48,38,1,39,image/39.jpg,0,R_54voFul3k9D7bqr,2,2024-04-10_21h41.46.546,face trait task,2021.2.3,MacIntel,30.3030303,SONAid,,,,,,,
,,,,2.393333333,3.522,space,0.335,0,49,49,41,1,42,image/42.jpg,0,R_54voFul3k9D7bqr,2,2024-04-10_21h41.46.546,face trait task,2021.2.3,MacIntel,30.3030303,SONAid,,,,,,,
,,,,6.013333333,3.202,space,0.267,0,50,50,14,1,15,image/15.jpg,0,R_54voFul3k9D7bqr,2,2024-04-10_21h41.46.546,face trait task,2021.2.3,MacIntel,30.3030303,SONAid,,,,,,,
,,,,3.973333333,7.288,space,0.354,0,51,51,43,1,44,image/44.jpg,0,R_54voFul3k9D7bqr,2,2024-04-10_21h41.46.546,face trait task,2021.2.3,MacIntel,30.3030303,SONAid,,,,,,,
,,,,4.993333333,8.153,space,0.345,0,52,52,23,1,24,image/24.jpg,0,R_54voFul3k9D7bqr,2,2024-04-10_21h41.46.546,face trait task,2021.2.3,MacIntel,30.3030303,SONAid,,,,,,,
,,,,,,,,,,,,,,,,R_54voFul3k9D7bqr,2,2024-04-10_21h41.46.546,face trait task,2021.2.3,MacIntel,30.3030303,SONAid,0,1,1,3,1,3,friendly.png
,,,,4.953333333,3.795,space,1.205,0,0,0,6,1,7,image/7.jpg,0,R_54voFul3k9D7bqr,2,2024-04-10_21h41.46.546,face trait task,2021.2.3,MacIntel,30.3030303,SONAid,,,,,,,
,,,,5.986666667,2.455,space,0.593,0,1,1,34,1,35,image/35.jpg,0,R_54voFul3k9D7bqr,2,2024-04-10_21h41.46.546,face trait task,2021.2.3,MacIntel,30.3030303,SONAid,,,,,,,
,,,,4.993333333,3.203,space,0.173,0,2,2,49,1,50,image/50.jpg,0,R_54voFul3k9D7bqr,2,2024-04-10_21h41.46.546,face trait task,2021.2.3,MacIntel,30.3030303,SONAid,,,,,,,
,,,,3.633333333,6.735,space,2.477,0,3,3,41,1,42,image/42.jpg,0,R_54voFul3k9D7bqr,2,2024-04-10_21h41.46.546,face trait task,2021.2.3,MacIntel,30.3030303,SONAid,,,,,,,
,,,,5.293333333,3.769,space,0.186,0,4,4,1,1,2,image/2.jpg,0,R_54voFul3k9D7bqr,2,2024-04-10_21h41.46.546,face trait task,2021.2.3,MacIntel,30.3030303,SONAid,,,,,,,
,,,,2.02,2.936,space,0.562,0,5,5,44,1,45,image/45.jpg,0,R_54voFul3k9D7bqr,2,2024-04-10_21h41.46.546,face trait task,2021.2.3,MacIntel,30.3030303,SONAid,,,,,,,
,,,,6.013333333,3.621,space,0.611,0,6,6,21,1,22,image/22.jpg,0,R_54voFul3k9D7bqr,2,2024-04-10_21h41.46.546,face trait task,2021.2.3,MacIntel,30.3030303,SONAid,,,,,,,
,,,,6.173333333,3.886,space,0.673,0,7,7,20,1,21,image/21.jpg,0,R_54voFul3k9D7bqr,2,2024-04-10_21h41.46.546,face trait task,2021.2.3,MacIntel,30.3030303,SONAid,,,,,,,
,,,,6,2.753,space,0.434,0,8,8,14,1,15,image/15.jpg,0,R_54voFul3k9D7bqr,2,2024-04-10_21h41.46.546,face trait task,2021.2.3,MacIntel,30.3030303,SONAid,,,,,,,
,,,,4.006666667,7.935,space,0.462,0,9,9,29,1,30,image/30.jpg,0,R_54voFul3k9D7bqr,2,2024-04-10_21h41.46.546,face trait task,2021.2.3,MacIntel,30.3030303,SONAid,,,,,,,
,,,,5.966666667,5.537,space,0.572,0,10,10,24,1,25,image/25.jpg,0,R_54voFul3k9D7bqr,2,2024-04-10_21h41.46.546,face trait task,2021.2.3,MacIntel,30.3030303,SONAid,,,,,,,
,,,,3.48,6.754,space,0.421,0,11,11,33,1,34,image/34.jpg,0,R_54voFul3k9D7bqr,2,2024-04-10_21h41.46.546,face trait task,2021.2.3,MacIntel,30.3030303,SONAid,,,,,,,
,,,,3.006666667,4.419,space,0.986,0,12,12,45,1,46,image/46.jpg,0,R_54voFul3k9D7bqr,2,2024-04-10_21h41.46.546,face trait task,2021.2.3,MacIntel,30.3030303,SONAid,,,,,,,
,,,,5.64,6.021,space,0.543,0,13,13,4,1,5,image/5.jpg,0,R_54voFul3k9D7bqr,2,2024-04-10_21h41.46.546,face trait task,2021.2.3,MacIntel,30.3030303,SONAid,,,,,,,
,,,,3.993333333,3.089,space,1.774,0,14,14,5,1,6,image/6.jpg,0,R_54voFul3k9D7bqr,2,2024-04-10_21h41.46.546,face trait task,2021.2.3,MacIntel,30.3030303,SONAid,,,,,,,
,,,,2.12,3.621,space,0.423,0,15,15,9,1,10,image/10.jpg,0,R_54voFul3k9D7bqr,2,2024-04-10_21h41.46.546,face trait task,2021.2.3,MacIntel,30.3030303,SONAid,,,,,,,
,,,,1.993333333,4.253,space,0.29,0,16,16,28,1,29,image/29.jpg,0,R_54voFul3k9D7bqr,2,2024-04-10_21h41.46.546,face trait task,2021.2.3,MacIntel,30.3030303,SONAid,,,,,,,
,,,,1.986666667,2.656,space,0.53,0,17,17,13,1,14,image/14.jpg,0,R_54voFul3k9D7bqr,2,2024-04-10_21h41.46.546,face trait task,2021.2.3,MacIntel,30.3030303,SONAid,,,,,,,
,,,,1.966666667,7.755,space,0.319,0,18,18,36,1,37,image/37.jpg,0,R_54voFul3k9D7bqr,2,2024-04-10_21h41.46.546,face trait task,2021.2.3,MacIntel,30.3030303,SONAid,,,,,,,
,,,,4.02,6.921,space,0.489,0,19,19,10,1,11,image/11.jpg,0,R_54voFul3k9D7bqr,2,2024-04-10_21h41.46.546,face trait task,2021.2.3,MacIntel,30.3030303,SONAid,,,,,,,
,,,,6.986666667,5.236,space,0.36,0,20,20,17,1,18,image/18.jpg,0,R_54voFul3k9D7bqr,2,2024-04-10_21h41.46.546,face trait task,2021.2.3,MacIntel,30.3030303,SONAid,,,,,,,
,,,,2.993333333,5.269,space,0.901,0,21,21,22,1,23,image/23.jpg,0,R_54voFul3k9D7bqr,2,2024-04-10_21h41.46.546,face trait task,2021.2.3,MacIntel,30.3030303,SONAid,,,,,,,
,,,,4.686666667,9.67,space,1.386,0,22,22,15,1,16,image/16.jpg,0,R_54voFul3k9D7bqr,2,2024-04-10_21h41.46.546,face trait task,2021.2.3,MacIntel,30.3030303,SONAid,,,,,,,
,,,,3.426666667,3.619,space,0.22,0,23,23,19,1,20,image/20.jpg,0,R_54voFul3k9D7bqr,2,2024-04-10_21h41.46.546,face trait task,2021.2.3,MacIntel,30.3030303,SONAid,,,,,,,
,,,,1.826666667,3.135,space,0.288,0,24,24,43,1,44,image/44.jpg,0,R_54voFul3k9D7bqr,2,2024-04-10_21h41.46.546,face trait task,2021.2.3,MacIntel,30.3030303,SONAid,,,,,,,
,,,,5.646666667,4.051,space,0.289,0,25,25,11,1,12,image/12.jpg,0,R_54voFul3k9D7bqr,2,2024-04-10_21h41.46.546,face trait task,2021.2.3,MacIntel,30.3030303,SONAid,,,,,,,
,,,,3.986666667,8.802,space,0.136,0,26,26,18,1,19,image/19.jpg,0,R_54voFul3k9D7bqr,2,2024-04-10_21h41.46.546,face trait task,2021.2.3,MacIntel,30.3030303,SONAid,,,,,,,
,,,,4.973333333,5.12,space,1.646,0,27,27,25,1,26,image/26.jpg,0,R_54voFul3k9D7bqr,2,2024-04-10_21h41.46.546,face trait task,2021.2.3,MacIntel,30.3030303,SONAid,,,,,,,
,,,,4.006666667,4.386,space,0.486,0,28,28,3,1,4,image/4.jpg,0,R_54voFul3k9D7bqr,2,2024-04-10_21h41.46.546,face trait task,2021.2.3,MacIntel,30.3030303,SONAid,,,,,,,
,,,,3,3.769,space,0.455,0,29,29,26,1,27,image/27.jpg,0,R_54voFul3k9D7bqr,2,2024-04-10_21h41.46.546,face trait task,2021.2.3,MacIntel,30.3030303,SONAid,,,,,,,
,,,,1.746666667,3.12,space,0.335,0,30,30,40,1,41,image/41.jpg,0,R_54voFul3k9D7bqr,2,2024-04-10_21h41.46.546,face trait task,2021.2.3,MacIntel,30.3030303,SONAid,,,,,,,
,,,,1.193333333,4.435,space,1.703,0,31,31,37,1,38,image/38.jpg,0,R_54voFul3k9D7bqr,2,2024-04-10_21h41.46.546,face trait task,2021.2.3,MacIntel,30.3030303,SONAid,,,,,,,
,,,,5,3.568,space,0.726,0,32,32,52,1,52,image/52.jpg,1,R_54voFul3k9D7bqr,2,2024-04-10_21h41.46.546,face trait task,2021.2.3,MacIntel,30.3030303,SONAid,,,,,,,
,,,,5,1.854,space,2.022,0,33,33,51,1,56,image/56.jpg,1,R_54voFul3k9D7bqr,2,2024-04-10_21h41.46.546,face trait task,2021.2.3,MacIntel,30.3030303,SONAid,,,,,,,
,,,,3.76,6.69,space,0.295,0,34,34,23,1,24,image/24.jpg,0,R_54voFul3k9D7bqr,2,2024-04-10_21h41.46.546,face trait task,2021.2.3,MacIntel,30.3030303,SONAid,,,,,,,
,,,,4.446666667,3.501,space,0.234,0,35,35,8,1,9,image/9.jpg,0,R_54voFul3k9D7bqr,2,2024-04-10_21h41.46.546,face trait task,2021.2.3,MacIntel,30.3030303,SONAid,,,,,,,
,,,,1.813333333,3.603,space,0.4,0,36,36,30,1,31,image/31.jpg,0,R_54voFul3k9D7bqr,2,2024-04-10_21h41.46.546,face trait task,2021.2.3,MacIntel,30.3030303,SONAid,,,,,,,
,,,,1.993333333,5.055,space,0.472,0,37,37,42,1,43,image/43.jpg,0,R_54voFul3k9D7bqr,2,2024-04-10_21h41.46.546,face trait task,2021.2.3,MacIntel,30.3030303,SONAid,,,,,,,
,,,,4.586666667,4.269,space,0.427,0,38,38,0,1,1,image/1.jpg,0,R_54voFul3k9D7bqr,2,2024-04-10_21h41.46.546,face trait task,2021.2.3,MacIntel,30.3030303,SONAid,,,,,,,
,,,,5.32,4.954,space,0.304,0,39,39,7,1,8,image/8.jpg,0,R_54voFul3k9D7bqr,2,2024-04-10_21h41.46.546,face trait task,2021.2.3,MacIntel,30.3030303,SONAid,,,,,,,
,,,,3.386666667,4.535,space,0.122,0,40,40,27,1,28,image/28.jpg,0,R_54voFul3k9D7bqr,2,2024-04-10_21h41.46.546,face trait task,2021.2.3,MacIntel,30.3030303,SONAid,,,,,,,
,,,,1.8,3.502,space,0.337,0,41,41,38,1,39,image/39.jpg,0,R_54voFul3k9D7bqr,2,2024-04-10_21h41.46.546,face trait task,2021.2.3,MacIntel,30.3030303,SONAid,,,,,,,
,,,,5.606666667,5.736,space,0.242,0,42,42,48,1,49,image/49.jpg,0,R_54voFul3k9D7bqr,2,2024-04-10_21h41.46.546,face trait task,2021.2.3,MacIntel,30.3030303,SONAid,,,,,,,
,,,,4,2.203,space,0.551,0,43,43,47,1,48,image/48.jpg,0,R_54voFul3k9D7bqr,2,2024-04-10_21h41.46.546,face trait task,2021.2.3,MacIntel,30.3030303,SONAid,,,,,,,
,,,,4,4.487,space,0.334,0,44,44,46,1,47,image/47.jpg,0,R_54voFul3k9D7bqr,2,2024-04-10_21h41.46.546,face trait task,2021.2.3,MacIntel,30.3030303,SONAid,,,,,,,
,,,,4.7,6.355,space,0.468,0,45,45,2,1,3,image/3.jpg,0,R_54voFul3k9D7bqr,2,2024-04-10_21h41.46.546,face trait task,2021.2.3,MacIntel,30.3030303,SONAid,,,,,,,
,,,,5.606666667,3.102,space,0.319,0,46,46,16,1,17,image/17.jpg,0,R_54voFul3k9D7bqr,2,2024-04-10_21h41.46.546,face trait task,2021.2.3,MacIntel,30.3030303,SONAid,,,,,,,
,,,,2.44,3.135,space,0.455,0,47,47,39,1,40,image/40.jpg,0,R_54voFul3k9D7bqr,2,2024-04-10_21h41.46.546,face trait task,2021.2.3,MacIntel,30.3030303,SONAid,,,,,,,
,,,,2.353333333,3.02,space,0.411,0,48,48,31,1,32,image/32.jpg,0,R_54voFul3k9D7bqr,2,2024-04-10_21h41.46.546,face trait task,2021.2.3,MacIntel,30.3030303,SONAid,,,,,,,
,,,,1.833333333,2.786,space,0.302,0,49,49,50,1,61,image/61.jpg,1,R_54voFul3k9D7bqr,2,2024-04-10_21h41.46.546,face trait task,2021.2.3,MacIntel,30.3030303,SONAid,,,,,,,
,,,,4.52,3.987,space,0.357,0,50,50,35,1,36,image/36.jpg,0,R_54voFul3k9D7bqr,2,2024-04-10_21h41.46.546,face trait task,2021.2.3,MacIntel,30.3030303,SONAid,,,,,,,
,,,,6.726666667,6.387,space,0.311,0,51,51,32,1,33,image/33.jpg,0,R_54voFul3k9D7bqr,2,2024-04-10_21h41.46.546,face trait task,2021.2.3,MacIntel,30.3030303,SONAid,,,,,,,
,,,,5.993333333,3.734,space,0.156,0,52,52,12,1,13,image/13.jpg,0,R_54voFul3k9D7bqr,2,2024-04-10_21h41.46.546,face trait task,2021.2.3,MacIntel,30.3030303,SONAid,,,,,,,
,,,,,,,,,,,,,,,,R_54voFul3k9D7bqr,2,2024-04-10_21h41.46.546,face trait task,2021.2.3,MacIntel,30.3030303,SONAid,0,2,2,2,1,2,trustworthy.png
,,,,6.02,4.661,space,2.792,0,0,0,25,1,26,image/26.jpg,0,R_54voFul3k9D7bqr,2,2024-04-10_21h41.46.546,face trait task,2021.2.3,MacIntel,30.3030303,SONAid,,,,,,,
,,,,3.973333333,3.854,space,0.257,0,1,1,9,1,10,image/10.jpg,0,R_54voFul3k9D7bqr,2,2024-04-10_21h41.46.546,face trait task,2021.2.3,MacIntel,30.3030303,SONAid,,,,,,,
,,,,3.006666667,2.086,space,0.301,0,2,2,41,1,42,image/42.jpg,0,R_54voFul3k9D7bqr,2,2024-04-10_21h41.46.546,face trait task,2021.2.3,MacIntel,30.3030303,SONAid,,,,,,,
,,,,6.653333333,4.521,space,3.036,0,3,3,49,1,50,image/50.jpg,0,R_54voFul3k9D7bqr,2,2024-04-10_21h41.46.546,face trait task,2021.2.3,MacIntel,30.3030303,SONAid,,,,,,,
,,,,2.013333333,2.137,space,0.355,0,4,4,38,1,39,image/39.jpg,0,R_54voFul3k9D7bqr,2,2024-04-10_21h41.46.546,face trait task,2021.2.3,MacIntel,30.3030303,SONAid,,,,,,,
,,,,6.04,5.568,space,0.534,0,5,5,23,1,24,image/24.jpg,0,R_54voFul3k9D7bqr,2,2024-04-10_21h41.46.546,face trait task,2021.2.3,MacIntel,30.3030303,SONAid,,,,,,,
,,,,5.346666667,3.034,space,0.595,0,6,6,11,1,12,image/12.jpg,0,R_54voFul3k9D7bqr,2,2024-04-10_21h41.46.546,face trait task,2021.2.3,MacIntel,30.3030303,SONAid,,,,,,,
,,,,6.466666667,2.235,space,0.431,0,7,7,7,1,8,image/8.jpg,0,R_54voFul3k9D7bqr,2,2024-04-10_21h41.46.546,face trait task,2021.2.3,MacIntel,30.3030303,SONAid,,,,,,,
,,,,3.026666667,5.121,space,1.467,0,8,8,22,1,23,image/23.jpg,0,R_54voFul3k9D7bqr,2,2024-04-10_21h41.46.546,face trait task,2021.2.3,MacIntel,30.3030303,SONAid,,,,,,,
,,,,1.973333333,2.921,space,0.504,0,9,9,37,1,38,image/38.jpg,0,R_54voFul3k9D7bqr,2,2024-04-10_21h41.46.546,face trait task,2021.2.3,MacIntel,30.3030303,SONAid,,,,,,,
,,,,3.02,2.821,space,0.286,0,10,10,1,1,2,image/2.jpg,0,R_54voFul3k9D7bqr,2,2024-04-10_21h41.46.546,face trait task,2021.2.3,MacIntel,30.3030303,SONAid,,,,,,,
,,,,5.5,4.503,space,0.35,0,11,11,34,1,35,image/35.jpg,0,R_54voFul3k9D7bqr,2,2024-04-10_21h41.46.546,face trait task,2021.2.3,MacIntel,30.3030303,SONAid,,,,,,,
,,,,4,4.536,space,0.52,0,12,12,47,1,48,image/48.jpg,0,R_54voFul3k9D7bqr,2,2024-04-10_21h41.46.546,face trait task,2021.2.3,MacIntel,30.3030303,SONAid,,,,,,,
,,,,5.453333333,3.903,space,0.386,0,13,13,31,1,32,image/32.jpg,0,R_54voFul3k9D7bqr,2,2024-04-10_21h41.46.546,face trait task,2021.2.3,MacIntel,30.3030303,SONAid,,,,,,,
,,,,6.966666667,7.635,space,0.422,0,14,14,18,1,19,image/19.jpg,0,R_54voFul3k9D7bqr,2,2024-04-10_21h41.46.546,face trait task,2021.2.3,MacIntel,30.3030303,SONAid,,,,,,,
,,,,3.986666667,7.837,space,0.435,0,15,15,39,1,40,image/40.jpg,0,R_54voFul3k9D7bqr,2,2024-04-10_21h41.46.546,face trait task,2021.2.3,MacIntel,30.3030303,SONAid,,,,,,,
,,,,4.633333333,8.435,space,0.176,0,16,16,28,1,29,image/29.jpg,0,R_54voFul3k9D7bqr,2,2024-04-10_21h41.46.546,face trait task,2021.2.3,MacIntel,30.3030303,SONAid,,,,,,,
,,,,3.426666667,3.467,space,1.858,0,17,17,46,1,47,image/47.jpg,0,R_54voFul3k9D7bqr,2,2024-04-10_21h41.46.546,face trait task,2021.2.3,MacIntel,30.3030303,SONAid,,,,,,,
,,,,5.826666667,4.255,space,0.425,0,18,18,17,1,18,image/18.jpg,0,R_54voFul3k9D7bqr,2,2024-04-10_21h41.46.546,face trait task,2021.2.3,MacIntel,30.3030303,SONAid,,,,,,,
,,,,6.66,7.552,space,4.535,0,19,19,26,1,27,image/27.jpg,0,R_54voFul3k9D7bqr,2,2024-04-10_21h41.46.546,face trait task,2021.2.3,MacIntel,30.3030303,SONAid,,,,,,,
,,,,1.093333333,2.101,space,0.298,0,20,20,40,1,41,image/41.jpg,0,R_54voFul3k9D7bqr,2,2024-04-10_21h41.46.546,face trait task,2021.2.3,MacIntel,30.3030303,SONAid,,,,,,,
,,,,3.813333333,7.369,space,0.334,0,21,21,3,1,4,image/4.jpg,0,R_54voFul3k9D7bqr,2,2024-04-10_21h41.46.546,face trait task,2021.2.3,MacIntel,30.3030303,SONAid,,,,,,,
,,,,4.973333333,3.102,space,0.664,0,22,22,10,1,11,image/11.jpg,0,R_54voFul3k9D7bqr,2,2024-04-10_21h41.46.546,face trait task,2021.2.3,MacIntel,30.3030303,SONAid,,,,,,,
,,,,3.006666667,4.402,space,1.457,0,23,23,43,1,44,image/44.jpg,0,R_54voFul3k9D7bqr,2,2024-04-10_21h41.46.546,face trait task,2021.2.3,MacIntel,30.3030303,SONAid,,,,,,,
,,,,1.953333333,5.669,space,0.411,0,24,24,5,1,6,image/6.jpg,0,R_54voFul3k9D7bqr,2,2024-04-10_21h41.46.546,face trait task,2021.2.3,MacIntel,30.3030303,SONAid,,,,,,,
,,,,4.986666667,3.202,space,0.643,0,25,25,24,1,25,image/25.jpg,0,R_54voFul3k9D7bqr,2,2024-04-10_21h41.46.546,face trait task,2021.2.3,MacIntel,30.3030303,SONAid,,,,,,,
,,,,5.986666667,5.037,space,0.301,0,26,26,15,1,16,image/16.jpg,0,R_54voFul3k9D7bqr,2,2024-04-10_21h41.46.546,face trait task,2021.2.3,MacIntel,30.3030303,SONAid,,,,,,,
,,,,4.473333333,3.301,space,0.437,0,27,27,33,1,34,image/34.jpg,0,R_54voFul3k9D7bqr,2,2024-04-10_21h41.46.546,face trait task,2021.2.3,MacIntel,30.3030303,SONAid,,,,,,,
,,,,6.54,2.722,space,0.34,0,28,28,4,1,5,image/5.jpg,0,R_54voFul3k9D7bqr,2,2024-04-10_21h41.46.546,face trait task,2021.2.3,MacIntel,30.3030303,SONAid,,,,,,,
,,,,4.6,2.72,space,0.388,0,29,29,51,1,56,image/56.jpg,1,R_54voFul3k9D7bqr,2,2024-04-10_21h41.46.546,face trait task,2021.2.3,MacIntel,30.3030303,SONAid,,,,,,,
,,,,3.006666667,8.588,space,0.339,0,30,30,14,1,15,image/15.jpg,0,R_54voFul3k9D7bqr,2,2024-04-10_21h41.46.546,face trait task,2021.2.3,MacIntel,30.3030303,SONAid,,,,,,,
,,,,5.96,3.369,space,0.345,0,31,31,20,1,21,image/21.jpg,0,R_54voFul3k9D7bqr,2,2024-04-10_21h41.46.546,face trait task,2021.2.3,MacIntel,30.3030303,SONAid,,,,,,,
,,,,3.026666667,2.92,space,0.373,0,32,32,50,1,61,image/61.jpg,1,R_54voFul3k9D7bqr,2,2024-04-10_21h41.46.546,face trait task,2021.2.3,MacIntel,30.3030303,SONAid,,,,,,,
,,,,4.013333333,3.55,space,0.488,0,33,33,29,1,30,image/30.jpg,0,R_54voFul3k9D7bqr,2,2024-04-10_21h41.46.546,face trait task,2021.2.3,MacIntel,30.3030303,SONAid,,,,,,,
,,,,4.986666667,8.054,space,0.624,0,34,34,0,1,1,image/1.jpg,0,R_54voFul3k9D7bqr,2,2024-04-10_21h41.46.546,face trait task,2021.2.3,MacIntel,30.3030303,SONAid,,,,,,,
,,,,3,2.686,space,0.174,0,35,35,27,1,28,image/28.jpg,0,R_54voFul3k9D7bqr,2,2024-04-10_21h41.46.546,face trait task,2021.2.3,MacIntel,30.3030303,SONAid,,,,,,,
,,,,2.313333333,3.818,space,0.678,0,36,36,36,1,37,image/37.jpg,0,R_54voFul3k9D7bqr,2,2024-04-10_21h41.46.546,face trait task,2021.2.3,MacIntel,30.3030303,SONAid,,,,,,,
,,,,3.02,2.301,space,1.22,0,37,37,16,1,17,image/17.jpg,0,R_54voFul3k9D7bqr,2,2024-04-10_21h41.46.546,face trait task,2021.2.3,MacIntel,30.3030303,SONAid,,,,,,,
,,,,4.946666667,9.002,space,8.56,0,38,38,52,1,52,image/52.jpg,1,R_54voFul3k9D7bqr,2,2024-04-10_21h41.46.546,face trait task,2021.2.3,MacIntel,30.3030303,SONAid,,,,,,,
,,,,6.746666667,5.42,space,0.676,0,39,39,32,1,33,image/33.jpg,0,R_54voFul3k9D7bqr,2,2024-04-10_21h41.46.546,face trait task,2021.2.3,MacIntel,30.3030303,SONAid,,,,,,,
,,,,5.013333333,13.868,space,0.607,0,40,40,44,1,45,image/45.jpg,0,R_54voFul3k9D7bqr,2,2024-04-10_21h41.46.546,face trait task,2021.2.3,MacIntel,30.3030303,SONAid,,,,,,,
,,,,1.993333333,3.569,space,0.269,0,41,41,6,1,7,image/7.jpg,0,R_54voFul3k9D7bqr,2,2024-04-10_21h41.46.546,face trait task,2021.2.3,MacIntel,30.3030303,SONAid,,,,,,,
,,,,6.006666667,2.668,space,0.387,0,42,42,21,1,22,image/22.jpg,0,R_54voFul3k9D7bqr,2,2024-04-10_21h41.46.546,face trait task,2021.2.3,MacIntel,30.3030303,SONAid,,,,,,,
,,,,6.386666667,5.153,space,2.603,0,43,43,35,1,36,image/36.jpg,0,R_54voFul3k9D7bqr,2,2024-04-10_21h41.46.546,face trait task,2021.2.3,MacIntel,30.3030303,SONAid,,,,,,,
,,,,5.773333333,3.188,space,0.633,0,44,44,45,1,46,image/46.jpg,0,R_54voFul3k9D7bqr,2,2024-04-10_21h41.46.546,face trait task,2021.2.3,MacIntel,30.3030303,SONAid,,,,,,,
,,,,3.98,3.937,space,0.227,0,45,45,19,1,20,image/20.jpg,0,R_54voFul3k9D7bqr,2,2024-04-10_21h41.46.546,face trait task,2021.2.3,MacIntel,30.3030303,SONAid,,,,,,,
,,,,3.026666667,6.569,space,0.397,0,46,46,13,1,14,image/14.jpg,0,R_54voFul3k9D7bqr,2,2024-04-10_21h41.46.546,face trait task,2021.2.3,MacIntel,30.3030303,SONAid,,,,,,,
,,,,2.513333333,3.488,space,0.32,0,47,47,48,1,49,image/49.jpg,0,R_54voFul3k9D7bqr,2,2024-04-10_21h41.46.546,face trait task,2021.2.3,MacIntel,30.3030303,SONAid,,,,,,,
,,,,3.993333333,3.219,space,0.258,0,48,48,8,1,9,image/9.jpg,0,R_54voFul3k9D7bqr,2,2024-04-10_21h41.46.546,face trait task,2021.2.3,MacIntel,30.3030303,SONAid,,,,,,,
,,,,6.026666667,5.421,space,1.486,0,49,49,30,1,31,image/31.jpg,0,R_54voFul3k9D7bqr,2,2024-04-10_21h41.46.546,face trait task,2021.2.3,MacIntel,30.3030303,SONAid,,,,,,,
,,,,4.953333333,11.086,space,0.371,0,50,50,12,1,13,image/13.jpg,0,R_54voFul3k9D7bqr,2,2024-04-10_21h41.46.546,face trait task,2021.2.3,MacIntel,30.3030303,SONAid,,,,,,,
,,,,2.993333333,2.92,space,0.327,0,51,51,42,1,43,image/43.jpg,0,R_54voFul3k9D7bqr,2,2024-04-10_21h41.46.546,face trait task,2021.2.3,MacIntel,30.3030303,SONAid,,,,,,,
,,,,3.986666667,1.953,space,0.256,0,52,52,2,1,3,image/3.jpg,0,R_54voFul3k9D7bqr,2,2024-04-10_21h41.46.546,face trait task,2021.2.3,MacIntel,30.3030303,SONAid,,,,,,,
,,,,,,,,,,,,,,,,R_54voFul3k9D7bqr,2,2024-04-10_21h41.46.546,face trait task,2021.2.3,MacIntel,30.3030303,SONAid,0,3,3,1,1,1,competent.png
