chooserow,ParID,pre_instru_resp_2.keys,pre_instru_resp_2.rt,pre_instru_resp_3.keys,pre_instru_resp_3.rt,pre_instru_resp_9.keys,pre_instru_resp_9.rt,pre_instru_resp_8.keys,pre_instru_resp_8.rt,pre_instru_resp_4.keys,pre_instru_resp_4.rt,pre_instru_resp_5.keys,pre_instru_resp_5.rt,pre_instru_resp_6.keys,pre_instru_resp_6.rt,key_resp_3.keys,key_resp_3.rt,key_resp_4.keys,key_resp_4.rt,key_resp_5.keys,key_resp_5.rt,key_resp_6.keys,key_resp_6.rt,key_resp_7.keys,key_resp_7.rt,trials_2.thisRepN,trials_2.thisTrialN,trials_2.thisN,trials_2.thisIndex,trials_2.ran,participant,session,date,expName,psychopyVersion,OS,frameRate,SONAid,pre_instru_resp.keys,pre_instru_resp.rt,clicked,judge_2.x,judge_2.y,judge_2.leftButton,judge_2.midButton,judge_2.rightButton,judge_2.clicked_name,trials.thisRepN,trials.thisTrialN,trials.thisN,trials.thisIndex,trials.ran,prac_answer,prac_dot_sti,dotlefttext,dotrighttext,prac_acc,judge.x,judge.y,judge.leftButton,judge.midButton,judge.rightButton,judge.clicked_name,clicked_guilt,slider_guilt.response,slider_guilt.rt,key_guilt.keys,share_slider.response,share_slider.rt,key_share.keys,slider_apology.response,slider_apology.rt,key_apology.keys,key_apology.rt,slider_hide.response,slider_hide.rt,slider_forgiveness.response,slider_forgiveness.rt,key_forgiveness.keys,slider_mad.response,slider_mad.rt,trialseq.thisRepN,trialseq.thisTrialN,trialseq.thisN,trialseq.thisIndex,trialseq.ran,type_trial,stipic,DV,picture,answer,number,key_share.rt,key_forgiveness.rt,key_guilt.rt
"[172,179,193,80,198,156,82,111,161,135,152,96,138,55,103,90,144,178,106,46,54,120,92,87,27,59,122,147,127,166,113,1,115,71,140,79,183,190,62,189,13,70]",R_54voFul3k9D7bqr,space,1.488,space,5.207,space,4.07,space,2.148,space,23.496,space,10.729,space,7.567,1,13.275,2,10.266,2,9.71,2,9.202,2,2.837,0,0,0,0,1,R_54voFul3k9D7bqr,1,2024-04-10_21h22.22.773,interaction task,2021.2.3,MacIntel,29.41176471,120747,,,,,,,,,,,,,,,,,,,,,,,,,,,,,,,,,,,,,,,,,,,,,,,,,,,,,,,,,
,,,,space,7.338,space,27.835,space,36.276,space,45.075,space,15.43,space,0.978,2,7.657,1,11.463,3,5.394,2,1.896,2,0.339,1,0,1,0,1,R_54voFul3k9D7bqr,1,2024-04-10_21h22.22.773,interaction task,2021.2.3,MacIntel,29.41176471,120747,,,,,,,,,,,,,,,,,,,,,,,,,,,,,,,,,,,,,,,,,,,,,,,,,,,,,,,,,
,,,,space,0.789,space,0.273,space,0.17,space,0.158,space,0.821,space,0.439,3,1.466,1,9.546,3,3.289,2,2.086,2,1.524,2,0,2,0,1,R_54voFul3k9D7bqr,1,2024-04-10_21h22.22.773,interaction task,2021.2.3,MacIntel,29.41176471,120747,,,,,,,,,,,,,,,,,,,,,,,,,,,,,,,,,,,,,,,,,,,,,,,,,,,,,,,,,
,,,,,,,,,,,,,,,,,,,,,,,,,,,,,,,R_54voFul3k9D7bqr,1,2024-04-10_21h22.22.773,interaction task,2021.2.3,MacIntel,29.41176471,120747,space,3.881,"[""LeftButton_2""]",-0.269444444,-0.335555556,1,0,0,LeftButton_2,0,0,0,1,1,LeftButton_2,11dot1.png,Greater,Smaller,,,,,,,,,,,,,,,,,,,,,,,,,,,,,,,,,,,,,,,
,,,,,,,,,,,,,,,,,,,,,,,,,,,,,,,R_54voFul3k9D7bqr,1,2024-04-10_21h22.22.773,interaction task,2021.2.3,MacIntel,29.41176471,120747,,,"[""RightButton_2""]",0.341666667,-0.302222222,1,0,0,RightButton_2,0,1,1,2,1,RightButton_2,9dot2.png,Greater,Smaller,,,,,,,,,,,,,,,,,,,,,,,,,,,,,,,,,,,,,,,
,,,,,,,,,,,,,,,,,,,,,,,,,,,,,,,R_54voFul3k9D7bqr,1,2024-04-10_21h22.22.773,interaction task,2021.2.3,MacIntel,29.41176471,120747,,,"[""LeftButton_2""]",-0.243055556,-0.311111111,1,0,0,LeftButton_2,0,2,2,0,1,LeftButton_2,11dot2.png,Greater,Smaller,,,,,,,,,,,,,,,,,,,,,,,,,,,,,,,,,,,,,,,
,,,,,,,,,,,,,,,,,,,,,,,,,,,,,,,R_54voFul3k9D7bqr,1,2024-04-10_21h22.22.773,interaction task,2021.2.3,MacIntel,29.41176471,120747,,,,,,,,,,,,,,,,,Greater,Smaller,0.6,-0.2125,-0.493333333,1,0,0,LeftButton,"[""LeftButton""]",,,,,,,19,10.104,space,1.855,8,20.572,,,,,,0,0,0,0,1,3,only_sub_wrong.png,2,RandomDot38.png,No answer,21,,,
,,,,,,,,,,,,,,,,,,,,,,,,,,,,,,,R_54voFul3k9D7bqr,1,2024-04-10_21h22.22.773,interaction task,2021.2.3,MacIntel,29.41176471,120747,,,,,,,,,,,,,,,,,Smaller,Greater,,-0.225,-0.542222222,1,0,0,LeftButton,"[""LeftButton""]",,,,,,,30,6.296,space,1.191,16,9.696,,,,,,0,1,1,1,1,3,only_sub_wrong.png,2,RandomDot15.png,No answer,20,,,
,,,,,,,,,,,,,,,,,,,,,,,,,,,,,,,R_54voFul3k9D7bqr,1,2024-04-10_21h22.22.773,interaction task,2021.2.3,MacIntel,29.41176471,120747,,,,,,,,,,,,,,,,,Greater,Smaller,,-0.290277778,-0.486666667,1,0,0,LeftButton,"[""LeftButton""]",,,,,,,,,,,,,,,,,,0,2,2,2,1,4,both_right.png,10,RandomDot41.png,LeftButton,5,,,
,,,,,,,,,,,,,,,,,,,,,,,,,,,,,,,R_54voFul3k9D7bqr,1,2024-04-10_21h22.22.773,interaction task,2021.2.3,MacIntel,29.41176471,120747,,,,,,,,,,,,,,,,,Smaller,Greater,,-0.326388889,-0.526666667,1,0,0,LeftButton,"[""LeftButton""]",,,,,,,11,6.964,space,0.95,3,11.849,,,,,,0,3,3,3,1,1,both_wrong.png,2,RandomDot8.png,No answer,20,,,
,,,,,,,,,,,,,,,,,,,,,,,,,,,,,,,R_54voFul3k9D7bqr,1,2024-04-10_21h22.22.773,interaction task,2021.2.3,MacIntel,29.41176471,120747,,,,,,,,,,,,,,,,,Greater,Smaller,,0.288888889,-0.52,1,0,0,RightButton,"[""RightButton""]",,,,,,,,,,,,,,,,,,0,4,4,4,1,5,both_right.png,10,RandomDot42.png,RightButton,20,,,
,,,,,,,,,,,,,,,,,,,,,,,,,,,,,,,R_54voFul3k9D7bqr,1,2024-04-10_21h22.22.773,interaction task,2021.2.3,MacIntel,29.41176471,120747,,,,,,,,,,,,,,,,,Greater,Smaller,,-0.240277778,-0.528888889,1,0,0,LeftButton,"[""LeftButton""]",,,,3.951388889,10.832,space,,,,,,,,,,,,0,5,5,5,1,3,only_sub_wrong.png,1,RandomDot4.png,No answer,20,1.102,,
,,,,,,,,,,,,,,,,,,,,,,,,,,,,,,,R_54voFul3k9D7bqr,1,2024-04-10_21h22.22.773,interaction task,2021.2.3,MacIntel,29.41176471,120747,,,,,,,,,,,,,,,,,Smaller,Greater,,0.270833333,-0.504444444,1,0,0,RightButton,"[""RightButton""]",,,,,,,41,4.782,space,1.605,5,6.715,,,,,,0,6,6,6,1,1,both_wrong.png,2,RandomDot7.png,No answer,21,,,
,,,,,,,,,,,,,,,,,,,,,,,,,,,,,,,R_54voFul3k9D7bqr,1,2024-04-10_21h22.22.773,interaction task,2021.2.3,MacIntel,29.41176471,120747,,,,,,,,,,,,,,,,,Greater,Smaller,,-0.293055556,-0.504444444,1,0,0,LeftButton,"[""LeftButton""]",,,,4,6.133,space,,,,,,,,,,,,0,7,7,7,1,2,only_sub_right.png,1,RandomDot4.png,No answer,19,0.75,,
,,,,,,,,,,,,,,,,,,,,,,,,,,,,,,,R_54voFul3k9D7bqr,1,2024-04-10_21h22.22.773,interaction task,2021.2.3,MacIntel,29.41176471,120747,,,,,,,,,,,,,,,,,Greater,Smaller,,-0.325,-0.537777778,1,0,0,LeftButton,"[""LeftButton""]",,,,4.048611111,2.583,space,,,,,,,,,,,,0,8,8,8,1,3,only_sub_wrong.png,1,RandomDot36.png,No answer,19,0.516,,
,,,,,,,,,,,,,,,,,,,,,,,,,,,,,,,R_54voFul3k9D7bqr,1,2024-04-10_21h22.22.773,interaction task,2021.2.3,MacIntel,29.41176471,120747,,,,,,,,,,,,,,,,,Greater,Smaller,,-0.313888889,-0.54,1,0,0,LeftButton,"[""LeftButton""]",,,,,,,,,,,,,35.69023569,8.393,space,66.69472503,13.58,0,9,9,9,1,2,only_sub_right.png,3,RandomDot26.png,No answer,20,,1.519,
,,,,,,,,,,,,,,,,,,,,,,,,,,,,,,,R_54voFul3k9D7bqr,1,2024-04-10_21h22.22.773,interaction task,2021.2.3,MacIntel,29.41176471,120747,,,,,,,,,,,,,,,,,Smaller,Greater,,0.347222222,-0.508888889,1,0,0,RightButton,"[""RightButton""]",36,4.603,space,,,,,,,,,,,,,,,0,10,10,10,1,3,only_sub_wrong.png,0,RandomDot9.png,No answer,19,,,2.741
,,,,,,,,,,,,,,,,,,,,,,,,,,,,,,,R_54voFul3k9D7bqr,1,2024-04-10_21h22.22.773,interaction task,2021.2.3,MacIntel,29.41176471,120747,,,,,,,,,,,,,,,,,Greater,Smaller,,0.297222222,-0.491111111,1,0,0,RightButton,"[""RightButton""]",30,5.434,space,,,,,,,,,,,,,,,0,11,11,11,1,2,only_sub_right.png,0,RandomDot26.png,No answer,19,,,0.969
,,,,,,,,,,,,,,,,,,,,,,,,,,,,,,,R_54voFul3k9D7bqr,1,2024-04-10_21h22.22.773,interaction task,2021.2.3,MacIntel,29.41176471,120747,,,,,,,,,,,,,,,,,Smaller,Greater,,-0.223611111,-0.528888889,1,0,0,LeftButton,"[""LeftButton""]",,,,,,,,,,,,,29.9382716,4.863,space,31.9023569,11.329,0,12,12,12,1,2,only_sub_right.png,3,RandomDot25.png,No answer,21,,2.888,
,,,,,,,,,,,,,,,,,,,,,,,,,,,,,,,R_54voFul3k9D7bqr,1,2024-04-10_21h22.22.773,interaction task,2021.2.3,MacIntel,29.41176471,120747,,,,,,,,,,,,,,,,,Smaller,Greater,,-0.258333333,-0.524444444,1,0,0,LeftButton,"[""LeftButton""]",25,4.754,space,,,,,,,,,,,,,,,0,13,13,13,1,1,both_wrong.png,0,RandomDot28.png,No answer,19,,,0.953
,,,,,,,,,,,,,,,,,,,,,,,,,,,,,,,R_54voFul3k9D7bqr,1,2024-04-10_21h22.22.773,interaction task,2021.2.3,MacIntel,29.41176471,120747,,,,,,,,,,,,,,,,,Smaller,Greater,,0.348611111,-0.508888889,1,0,0,RightButton,"[""RightButton""]",18,2.402,space,,,,,,,,,,,,,,,0,14,14,14,1,2,only_sub_right.png,0,RandomDot21.png,No answer,21,,,3.768
,,,,,,,,,,,,,,,,,,,,,,,,,,,,,,,R_54voFul3k9D7bqr,1,2024-04-10_21h22.22.773,interaction task,2021.2.3,MacIntel,29.41176471,120747,,,,,,,,,,,,,,,,,Smaller,Greater,,0.3,-0.52,1,0,0,RightButton,"[""RightButton""]",,,,,,,,,,,,,66.83501684,6.395,space,20.95959596,13.828,0,15,15,15,1,1,both_wrong.png,3,RandomDot29.png,No answer,19,,1.008,
,,,,,,,,,,,,,,,,,,,,,,,,,,,,,,,R_54voFul3k9D7bqr,1,2024-04-10_21h22.22.773,interaction task,2021.2.3,MacIntel,29.41176471,120747,,,,,,,,,,,,,,,,,Greater,Smaller,,-0.265277778,-0.533333333,1,0,0,LeftButton,"[""LeftButton""]",39,4.303,space,,,,,,,,,,,,,,,0,16,16,16,1,3,only_sub_wrong.png,0,RandomDot33.png,No answer,19,,,1.47
,,,,,,,,,,,,,,,,,,,,,,,,,,,,,,,R_54voFul3k9D7bqr,1,2024-04-10_21h22.22.773,interaction task,2021.2.3,MacIntel,29.41176471,120747,,,,,,,,,,,,,,,,,Smaller,Greater,,-0.288888889,-0.535555556,1,0,0,LeftButton,"[""LeftButton""]",,,,,,,50,1.829,space,8.77,45,9.515,,,,,,0,17,17,17,1,3,only_sub_wrong.png,2,RandomDot22.png,No answer,19,,,
,,,,,,,,,,,,,,,,,,,,,,,,,,,,,,,R_54voFul3k9D7bqr,1,2024-04-10_21h22.22.773,interaction task,2021.2.3,MacIntel,29.41176471,120747,,,,,,,,,,,,,,,,,Smaller,Greater,,0.268055556,-0.54,1,0,0,RightButton,"[""RightButton""]",46,3.103,space,,,,,,,,,,,,,,,0,18,18,18,1,2,only_sub_right.png,0,RandomDot39.png,No answer,19,,,0.999
,,,,,,,,,,,,,,,,,,,,,,,,,,,,,,,R_54voFul3k9D7bqr,1,2024-04-10_21h22.22.773,interaction task,2021.2.3,MacIntel,29.41176471,120747,,,,,,,,,,,,,,,,,Smaller,Greater,,-0.273611111,-0.544444444,1,0,0,LeftButton,"[""LeftButton""]",,,,,,,,,,,,,,,,,,0,19,19,19,1,0,both_right.png,3,RandomDot18.png,No answer,20,,,
,,,,,,,,,,,,,,,,,,,,,,,,,,,,,,,R_54voFul3k9D7bqr,1,2024-04-10_21h22.22.773,interaction task,2021.2.3,MacIntel,29.41176471,120747,,,,,,,,,,,,,,,,,Smaller,Greater,,-0.273611111,-0.544444444,1,0,0,LeftButton,"[""LeftButton""]",37,4.002,space,,,,,,,,,,,,,,,0,20,20,20,1,1,both_wrong.png,0,RandomDot23.png,No answer,20,,,1.862
,,,,,,,,,,,,,,,,,,,,,,,,,,,,,,,R_54voFul3k9D7bqr,1,2024-04-10_21h22.22.773,interaction task,2021.2.3,MacIntel,29.41176471,120747,,,,,,,,,,,,,,,,,Greater,Smaller,,0.301388889,-0.52,1,0,0,RightButton,"[""RightButton""]",,,,,,,28,3.397,space,1.022,13,9.349,,,,,,0,21,21,21,1,2,only_sub_right.png,2,RandomDot21.png,No answer,21,,,
,,,,,,,,,,,,,,,,,,,,,,,,,,,,,,,R_54voFul3k9D7bqr,1,2024-04-10_21h22.22.773,interaction task,2021.2.3,MacIntel,29.41176471,120747,,,,,,,,,,,,,,,,,Smaller,Greater,,-0.256944444,-0.537777778,1,0,0,LeftButton,"[""LeftButton""]",,,,,,,,,,,,,32.88439955,3.995,space,16.75084175,5.68,0,22,22,22,1,1,both_wrong.png,3,RandomDot7.png,No answer,21,,1.012,
,,,,,,,,,,,,,,,,,,,,,,,,,,,,,,,R_54voFul3k9D7bqr,1,2024-04-10_21h22.22.773,interaction task,2021.2.3,MacIntel,29.41176471,120747,,,,,,,,,,,,,,,,,Greater,Smaller,,-0.236111111,-0.526666667,1,0,0,LeftButton,"[""LeftButton""]",,,,,,,,,,,,,54.48933782,6.329,space,38.21548822,11.896,0,23,23,23,1,1,both_wrong.png,3,RandomDot17.png,No answer,21,,1.433,
,,,,,,,,,,,,,,,,,,,,,,,,,,,,,,,R_54voFul3k9D7bqr,1,2024-04-10_21h22.22.773,interaction task,2021.2.3,MacIntel,29.41176471,120747,,,,,,,,,,,,,,,,,Greater,Smaller,,0.330555556,-0.517777778,1,0,0,RightButton,"[""RightButton""]",,,,,,,,,,,,,,,,,,0,24,24,24,1,0,both_right.png,2,RandomDot28.png,No answer,21,,,
,,,,,,,,,,,,,,,,,,,,,,,,,,,,,,,R_54voFul3k9D7bqr,1,2024-04-10_21h22.22.773,interaction task,2021.2.3,MacIntel,29.41176471,120747,,,,,,,,,,,,,,,,,Smaller,Greater,,-0.243055556,-0.491111111,1,0,0,LeftButton,"[""LeftButton""]",45,6.602,space,,,,,,,,,,,,,,,0,25,25,25,1,1,both_wrong.png,0,RandomDot14.png,No answer,21,,,2.921
,,,,,,,,,,,,,,,,,,,,,,,,,,,,,,,R_54voFul3k9D7bqr,1,2024-04-10_21h22.22.773,interaction task,2021.2.3,MacIntel,29.41176471,120747,,,,,,,,,,,,,,,,,Greater,Smaller,,0.356944444,-0.484444444,1,0,0,RightButton,"[""RightButton""]",,,,,,,73,6.695,space,0.421,10,11.212,,,,,,0,26,26,26,1,2,only_sub_right.png,2,RandomDot33.png,No answer,20,,,
,,,,,,,,,,,,,,,,,,,,,,,,,,,,,,,R_54voFul3k9D7bqr,1,2024-04-10_21h22.22.773,interaction task,2021.2.3,MacIntel,29.41176471,120747,,,,,,,,,,,,,,,,,Greater,Smaller,,0.318055556,-0.5,1,0,0,RightButton,"[""RightButton""]",63,3.355,space,,,,,,,,,,,,,,,0,27,27,27,1,3,only_sub_wrong.png,0,RandomDot5.png,No answer,20,,,1.652
,,,,,,,,,,,,,,,,,,,,,,,,,,,,,,,R_54voFul3k9D7bqr,1,2024-04-10_21h22.22.773,interaction task,2021.2.3,MacIntel,29.41176471,120747,,,,,,,,,,,,,,,,,Smaller,Greater,,0.329166667,-0.486666667,1,0,0,RightButton,"[""RightButton""]",,,,,,,34,13.715,space,3.829,7,11.113,,,,,,0,28,28,28,1,2,only_sub_right.png,2,RandomDot22.png,No answer,19,,,
,,,,,,,,,,,,,,,,,,,,,,,,,,,,,,,R_54voFul3k9D7bqr,1,2024-04-10_21h22.22.773,interaction task,2021.2.3,MacIntel,29.41176471,120747,,,,,,,,,,,,,,,,,Smaller,Greater,,-0.263888889,-0.471111111,1,0,0,LeftButton,"[""LeftButton""]",,,,4.9375,6.215,space,,,,,,,,,,,,0,29,29,29,1,3,only_sub_wrong.png,1,RandomDot15.png,No answer,20,1.093,,
,,,,,,,,,,,,,,,,,,,,,,,,,,,,,,,R_54voFul3k9D7bqr,1,2024-04-10_21h22.22.773,interaction task,2021.2.3,MacIntel,29.41176471,120747,,,,,,,,,,,,,,,,,Greater,Smaller,,0.3,-0.506666667,1,0,0,RightButton,"[""RightButton""]",,,,4.916666667,4.699,space,,,,,,,,,,,,0,30,30,30,1,2,only_sub_right.png,1,RandomDot3.png,No answer,20,1.006,,
,,,,,,,,,,,,,,,,,,,,,,,,,,,,,,,R_54voFul3k9D7bqr,1,2024-04-10_21h22.22.773,interaction task,2021.2.3,MacIntel,29.41176471,120747,,,,,,,,,,,,,,,,,Greater,Smaller,,0.327777778,-0.506666667,1,0,0,RightButton,"[""RightButton""]",,,,,,,,,,,,,,,,,,0,31,31,31,1,0,both_right.png,0,RandomDot36.png,No answer,21,,,
,,,,,,,,,,,,,,,,,,,,,,,,,,,,,,,R_54voFul3k9D7bqr,1,2024-04-10_21h22.22.773,interaction task,2021.2.3,MacIntel,29.41176471,120747,,,,,,,,,,,,,,,,,Smaller,Greater,,0.266666667,-0.54,1,0,0,RightButton,"[""RightButton""]",,,,4.055555556,7.883,space,,,,,,,,,,,,0,32,32,32,1,2,only_sub_right.png,1,RandomDot14.png,No answer,20,0.629,,
,,,,,,,,,,,,,,,,,,,,,,,,,,,,,,,R_54voFul3k9D7bqr,1,2024-04-10_21h22.22.773,interaction task,2021.2.3,MacIntel,29.41176471,120747,,,,,,,,,,,,,,,,,Smaller,Greater,,0.3125,-0.52,1,0,0,RightButton,"[""RightButton""]",,,,4.451388889,2.084,space,,,,,,,,,,,,0,33,33,33,1,1,both_wrong.png,1,RandomDot14.png,No answer,20,2.478,,
,,,,,,,,,,,,,,,,,,,,,,,,,,,,,,,R_54voFul3k9D7bqr,1,2024-04-10_21h22.22.773,interaction task,2021.2.3,MacIntel,29.41176471,120747,,,,,,,,,,,,,,,,,Smaller,Greater,,0.326388889,-0.488888889,1,0,0,RightButton,"[""RightButton""]",,,,,,,,,,,,,77.07631874,4.894,space,38.07519641,8.795,0,34,34,34,1,2,only_sub_right.png,3,RandomDot8.png,No answer,19,,0.976,
,,,,,,,,,,,,,,,,,,,,,,,,,,,,,,,R_54voFul3k9D7bqr,1,2024-04-10_21h22.22.773,interaction task,2021.2.3,MacIntel,29.41176471,120747,,,,,,,,,,,,,,,,,Smaller,Greater,,0.275,-0.48,1,0,0,RightButton,"[""RightButton""]",,,,,,,89,4.864,space,0.441,4,7.165,,,,,,0,35,35,35,1,1,both_wrong.png,2,RandomDot24.png,No answer,21,,,
,,,,,,,,,,,,,,,,,,,,,,,,,,,,,,,R_54voFul3k9D7bqr,1,2024-04-10_21h22.22.773,interaction task,2021.2.3,MacIntel,29.41176471,120747,,,,,,,,,,,,,,,,,Greater,Smaller,,-0.254166667,-0.535555556,1,0,0,LeftButton,"[""LeftButton""]",,,,,,,,,,,,,76.37485971,3.679,space,21.52076319,5.562,0,36,36,36,1,3,only_sub_wrong.png,3,RandomDot17.png,No answer,19,,0.296,
,,,,,,,,,,,,,,,,,,,,,,,,,,,,,,,R_54voFul3k9D7bqr,1,2024-04-10_21h22.22.773,interaction task,2021.2.3,MacIntel,29.41176471,120747,,,,,,,,,,,,,,,,,Smaller,Greater,,0.311111111,-0.526666667,1,0,0,RightButton,"[""RightButton""]",,,,,,,,,,,,,64.59034792,2.897,space,22.64309764,4.63,0,37,37,37,1,3,only_sub_wrong.png,3,RandomDot7.png,No answer,19,,0.755,
,,,,,,,,,,,,,,,,,,,,,,,,,,,,,,,R_54voFul3k9D7bqr,1,2024-04-10_21h22.22.773,interaction task,2021.2.3,MacIntel,29.41176471,120747,,,,,,,,,,,,,,,,,Greater,Smaller,,0.297222222,-0.535555556,1,0,0,RightButton,"[""RightButton""]",,,,4.916666667,2.816,space,,,,,,,,,,,,0,38,38,38,1,1,both_wrong.png,1,RandomDot28.png,No answer,21,0.564,,
,,,,,,,,,,,,,,,,,,,,,,,,,,,,,,,R_54voFul3k9D7bqr,1,2024-04-10_21h22.22.773,interaction task,2021.2.3,MacIntel,29.41176471,120747,,,,,,,,,,,,,,,,,Smaller,Greater,,0.311111111,-0.526666667,1,0,0,RightButton,"[""RightButton""]",,,,,,,,,,,,,58.1369248,4.36,space,32.88439955,9.245,0,39,39,39,1,3,only_sub_wrong.png,3,RandomDot38.png,No answer,20,,1.636,
,,,,,,,,,,,,,,,,,,,,,,,,,,,,,,,R_54voFul3k9D7bqr,1,2024-04-10_21h22.22.773,interaction task,2021.2.3,MacIntel,29.41176471,120747,,,,,,,,,,,,,,,,,Greater,Smaller,,-0.225,-0.486666667,1,0,0,LeftButton,"[""LeftButton""]",,,,,,,,,,,,,,,,,,0,40,40,40,1,0,both_right.png,1,RandomDot28.png,No answer,21,,,
,,,,,,,,,,,,,,,,,,,,,,,,,,,,,,,R_54voFul3k9D7bqr,1,2024-04-10_21h22.22.773,interaction task,2021.2.3,MacIntel,29.41176471,120747,,,,,,,,,,,,,,,,,Smaller,Greater,,0.233333333,-0.54,1,0,0,RightButton,"[""RightButton""]",,,,4.979166667,2.131,space,,,,,,,,,,,,0,41,41,41,1,1,both_wrong.png,1,RandomDot29.png,No answer,19,0.699,,
