chooserow,ParID,pre_instru_resp_2.keys,pre_instru_resp_2.rt,pre_instru_resp_3.keys,pre_instru_resp_3.rt,pre_instru_resp_9.keys,pre_instru_resp_9.rt,pre_instru_resp_8.keys,pre_instru_resp_8.rt,pre_instru_resp_4.keys,pre_instru_resp_4.rt,pre_instru_resp_5.keys,pre_instru_resp_5.rt,pre_instru_resp_6.keys,pre_instru_resp_6.rt,key_resp_3.keys,key_resp_3.rt,key_resp_4.keys,key_resp_4.rt,key_resp_5.keys,key_resp_5.rt,key_resp_6.keys,key_resp_6.rt,key_resp_7.keys,key_resp_7.rt,trials_2.thisRepN,trials_2.thisTrialN,trials_2.thisN,trials_2.thisIndex,trials_2.ran,participant,session,date,expName,psychopyVersion,OS,frameRate,SONAid,pre_instru_resp.keys,pre_instru_resp.rt,clicked,judge_2.x,judge_2.y,judge_2.leftButton,judge_2.midButton,judge_2.rightButton,judge_2.clicked_name,trials.thisRepN,trials.thisTrialN,trials.thisN,trials.thisIndex,trials.ran,prac_answer,prac_dot_sti,dotlefttext,dotrighttext,prac_acc,judge.x,judge.y,judge.leftButton,judge.midButton,judge.rightButton,judge.clicked_name,clicked_guilt,slider_guilt.response,slider_guilt.rt,key_guilt.keys,share_slider.response,share_slider.rt,key_share.keys,slider_apology.response,slider_apology.rt,key_apology.keys,slider_hide.response,slider_hide.rt,slider_forgiveness.response,slider_forgiveness.rt,key_forgiveness.keys,slider_mad.response,slider_mad.rt,trialseq.thisRepN,trialseq.thisTrialN,trialseq.thisN,trialseq.thisIndex,trialseq.ran,type_trial,stipic,DV,picture,answer,number,key_guilt.rt,key_share.rt,key_apology.rt,key_forgiveness.rt
"[8,99,110,46,120,187,118,53,190,59,150,91,183,167,137,131,34,135,168,88,173,69,149,148,19,51,202,92,159,197,172,126,100,79,141,67,105,114,82,165,83,64]",R_59nXN3KJnjYkf8b,space,8.2659,space,5.3961,space,16.5969,space,33.3821,space,205.2632,space,23.5513,space,9.1529,2,24.7176,1,23.5205,2,16.3966,2,17.6719,2,5.1819,0,0,0,0,1,R_59nXN3KJnjYkf8b,1,2024-05-10_20h16.25.288,interaction task,2021.2.3,Win32,60.24096386,121562,,,,,,,,,,,,,,,,,,,,,,,,,,,,,,,,,,,,,,,,,,,,,,,,,,,,,,,,,
,,,,space,4.5523,space,23.6192,space,14.5902,space,5.6963,space,1.2243,space,2.2526,3,3.8048,1,11.91,3,5.5285,2,8.4359,3,6.3387,1,0,1,0,1,R_59nXN3KJnjYkf8b,1,2024-05-10_20h16.25.288,interaction task,2021.2.3,Win32,60.24096386,121562,,,,,,,,,,,,,,,,,,,,,,,,,,,,,,,,,,,,,,,,,,,,,,,,,,,,,,,,,
,,,,space,0.9545,space,2.235,space,5.73,space,7.4359,space,2.0908,space,0.5549,3,1.7544,1,3.112,3,8.9263,2,3.7987,2,2.5775,2,0,2,0,1,R_59nXN3KJnjYkf8b,1,2024-05-10_20h16.25.288,interaction task,2021.2.3,Win32,60.24096386,121562,,,,,,,,,,,,,,,,,,,,,,,,,,,,,,,,,,,,,,,,,,,,,,,,,,,,,,,,,
,,,,,,,,,,,,,,,,,,,,,,,,,,,,,,,R_59nXN3KJnjYkf8b,1,2024-05-10_20h16.25.288,interaction task,2021.2.3,Win32,60.24096386,121562,space,4.0581,"[""LeftButton_2""]",-0.262499968,-0.3,1,0,0,LeftButton_2,0,0,0,2,1,RightButton_2,11dot1.png,Smaller,Greater,,,,,,,,,,,,,,,,,,,,,,,,,,,,,,,,,,,,,,,
,,,,,,,,,,,,,,,,,,,,,,,,,,,,,,,R_59nXN3KJnjYkf8b,1,2024-05-10_20h16.25.288,interaction task,2021.2.3,Win32,60.24096386,121562,,,"[""RightButton_2""]",0.247916698,-0.323333359,1,0,0,RightButton_2,0,1,1,0,1,RightButton_2,9dot2.png,Greater,Smaller,,,,,,,,,,,,,,,,,,,,,,,,,,,,,,,,,,,,,,,
,,,,,,,,,,,,,,,,,,,,,,,,,,,,,,,R_59nXN3KJnjYkf8b,1,2024-05-10_20h16.25.288,interaction task,2021.2.3,Win32,60.24096386,121562,,,"[""LeftButton_2""]",-0.266666651,-0.318333308,1,0,0,LeftButton_2,0,2,2,1,1,RightButton_2,9dot2.png,Greater,Smaller,,,,,,,,,,,,,,,,,,,,,,,,,,,,,,,,,,,,,,,
,,,,,,,,,,,,,,,,,,,,,,,,,,,,,,,R_59nXN3KJnjYkf8b,1,2024-05-10_20h16.25.288,interaction task,2021.2.3,Win32,60.24096386,121562,,,,,,,,,,,,,,,,,Smaller,Greater,0.2,0.289583365,-0.536666743,1,0,0,RightButton,"[""RightButton""]",,,,,,,,,,,,,,,,,0,0,0,0,1,0,both_right.png,0,RandomDot15.png,No answer,21,,,,
,,,,,,,,,,,,,,,,,,,,,,,,,,,,,,,R_59nXN3KJnjYkf8b,1,2024-05-10_20h16.25.288,interaction task,2021.2.3,Win32,60.24096386,121562,,,,,,,,,,,,,,,,,Greater,Smaller,,-0.220833302,-0.501666641,1,0,0,LeftButton,"[""LeftButton""]",0,12.8898,space,,,,,,,,,,,,,,0,1,1,1,1,2,only_sub_right.png,0,RandomDot21.png,No answer,19,4.4913,,,
,,,,,,,,,,,,,,,,,,,,,,,,,,,,,,,R_59nXN3KJnjYkf8b,1,2024-05-10_20h16.25.288,interaction task,2021.2.3,Win32,60.24096386,121562,,,,,,,,,,,,,,,,,Greater,Smaller,,0.261458317,-0.513333384,1,0,0,RightButton,"[""RightButton""]",,,,0,23.148,space,,,,,,,,,,,0,2,2,2,1,2,only_sub_right.png,1,RandomDot6.png,No answer,21,,1.8279,,
,,,,,,,,,,,,,,,,,,,,,,,,,,,,,,,R_59nXN3KJnjYkf8b,1,2024-05-10_20h16.25.288,interaction task,2021.2.3,Win32,60.24096386,121562,,,,,,,,,,,,,,,,,Smaller,Greater,,0.260416667,-0.511666743,1,0,0,RightButton,"[""RightButton""]",,,,,,,,,,,,,,,,,0,3,3,3,1,0,both_right.png,3,RandomDot18.png,No answer,20,,,,
,,,,,,,,,,,,,,,,,,,,,,,,,,,,,,,R_59nXN3KJnjYkf8b,1,2024-05-10_20h16.25.288,interaction task,2021.2.3,Win32,60.24096386,121562,,,,,,,,,,,,,,,,,Greater,Smaller,,-0.241666635,-0.484999975,1,0,0,LeftButton,"[""LeftButton""]",,,,,,,0,6.4133,space,100,10.9873,,,,,,0,4,4,4,1,2,only_sub_right.png,2,RandomDot21.png,No answer,21,,,1.1252,
,,,,,,,,,,,,,,,,,,,,,,,,,,,,,,,R_59nXN3KJnjYkf8b,1,2024-05-10_20h16.25.288,interaction task,2021.2.3,Win32,60.24096386,121562,,,,,,,,,,,,,,,,,Smaller,Greater,,-0.253124952,-0.50333341,1,0,0,LeftButton,"[""LeftButton""]",,,,,,,,,,,,0.021043771,5.3043,space,90.08839026,8.7709,0,5,5,5,1,3,only_sub_wrong.png,3,RandomDot18.png,No answer,21,,,,1.529
,,,,,,,,,,,,,,,,,,,,,,,,,,,,,,,R_59nXN3KJnjYkf8b,1,2024-05-10_20h16.25.288,interaction task,2021.2.3,Win32,60.24096386,121562,,,,,,,,,,,,,,,,,Smaller,Greater,,0.289583365,-0.498333359,1,0,0,RightButton,"[""RightButton""]",,,,0.005208453,5.5856,space,,,,,,,,,,,0,6,6,6,1,2,only_sub_right.png,1,RandomDot34.png,No answer,19,,0.896,,
,,,,,,,,,,,,,,,,,,,,,,,,,,,,,,,R_59nXN3KJnjYkf8b,1,2024-05-10_20h16.25.288,interaction task,2021.2.3,Win32,60.24096386,121562,,,,,,,,,,,,,,,,,Greater,Smaller,,-0.233333349,-0.480000051,1,0,0,LeftButton,"[""LeftButton""]",30,2.6444,space,,,,,,,,,,,,,,0,7,7,7,1,1,both_wrong.png,0,RandomDot32.png,No answer,19,1.0899,,,
,,,,,,,,,,,,,,,,,,,,,,,,,,,,,,,R_59nXN3KJnjYkf8b,1,2024-05-10_20h16.25.288,interaction task,2021.2.3,Win32,60.24096386,121562,,,,,,,,,,,,,,,,,Smaller,Greater,,0.293750048,-0.47833341,1,0,0,RightButton,"[""RightButton""]",,,,,,,,,,,,10.12205628,6.702,space,91.45623859,10.768,0,8,8,8,1,3,only_sub_wrong.png,3,RandomDot7.png,No answer,19,,,,0.9323
,,,,,,,,,,,,,,,,,,,,,,,,,,,,,,,R_59nXN3KJnjYkf8b,1,2024-05-10_20h16.25.288,interaction task,2021.2.3,Win32,60.24096386,121562,,,,,,,,,,,,,,,,,Smaller,Greater,,0.311458349,-0.495000076,1,0,0,RightButton,"[""RightButton""]",0,4.7306,space,,,,,,,,,,,,,,0,9,9,9,1,1,both_wrong.png,0,RandomDot14.png,No answer,21,1.3241,,,
,,,,,,,,,,,,,,,,,,,,,,,,,,,,,,,R_59nXN3KJnjYkf8b,1,2024-05-10_20h16.25.288,interaction task,2021.2.3,Win32,60.24096386,121562,,,,,,,,,,,,,,,,,Smaller,Greater,,-0.256249984,-0.475,1,0,0,LeftButton,"[""LeftButton""]",30,3.7613,space,,,,,,,,,,,,,,0,10,10,10,1,3,only_sub_wrong.png,0,RandomDot16.png,No answer,21,0.8551,,,
,,,,,,,,,,,,,,,,,,,,,,,,,,,,,,,R_59nXN3KJnjYkf8b,1,2024-05-10_20h16.25.288,interaction task,2021.2.3,Win32,60.24096386,121562,,,,,,,,,,,,,,,,,Smaller,Greater,,0.307291667,-0.481666692,1,0,0,RightButton,"[""RightButton""]",,,,,,,,,,,,50.42087703,5.0712,space,9.806396504,10.147,0,11,11,11,1,1,both_wrong.png,3,RandomDot23.png,No answer,20,,,,2.4613
,,,,,,,,,,,,,,,,,,,,,,,,,,,,,,,R_59nXN3KJnjYkf8b,1,2024-05-10_20h16.25.288,interaction task,2021.2.3,Win32,60.24096386,121562,,,,,,,,,,,,,,,,,Greater,Smaller,,-0.271874984,-0.475,1,0,0,LeftButton,"[""LeftButton""]",,,,,,,,,,,,18.32912618,13.5845,space,88.82576721,11.6224,0,12,12,12,1,3,only_sub_wrong.png,3,RandomDot17.png,No answer,19,,,,3.2628
,,,,,,,,,,,,,,,,,,,,,,,,,,,,,,,R_59nXN3KJnjYkf8b,1,2024-05-10_20h16.25.288,interaction task,2021.2.3,Win32,60.24096386,121562,,,,,,,,,,,,,,,,,Smaller,Greater,,0.260416667,-0.530000051,1,0,0,RightButton,"[""RightButton""]",,,,0.005208453,3.3164,space,,,,,,,,,,,0,13,13,13,1,3,only_sub_wrong.png,1,RandomDot22.png,No answer,20,,2.3433,,
,,,,,,,,,,,,,,,,,,,,,,,,,,,,,,,R_59nXN3KJnjYkf8b,1,2024-05-10_20h16.25.288,interaction task,2021.2.3,Win32,60.24096386,121562,,,,,,,,,,,,,,,,,Greater,Smaller,,-0.277083317,-0.533333333,1,0,0,LeftButton,"[""LeftButton""]",,,,,,,,,,,,69.99158249,6.3537,space,9.280302228,10.1069,0,14,14,14,1,2,only_sub_right.png,3,RandomDot23.png,No answer,20,,,,2.3731
,,,,,,,,,,,,,,,,,,,,,,,,,,,,,,,R_59nXN3KJnjYkf8b,1,2024-05-10_20h16.25.288,interaction task,2021.2.3,Win32,60.24096386,121562,,,,,,,,,,,,,,,,,Smaller,Greater,,-0.289583286,-0.513333384,1,0,0,LeftButton,"[""LeftButton""]",,,,,,,0,3.3382,space,100,8.9327,,,,,,0,15,15,15,1,2,only_sub_right.png,2,RandomDot5.png,No answer,21,,,2.1752,
,,,,,,,,,,,,,,,,,,,,,,,,,,,,,,,R_59nXN3KJnjYkf8b,1,2024-05-10_20h16.25.288,interaction task,2021.2.3,Win32,60.24096386,121562,,,,,,,,,,,,,,,,,Smaller,Greater,,-0.297916651,-0.509999975,1,0,0,LeftButton,"[""LeftButton""]",,,,,,,,,,,,,,,,,0,16,16,16,1,0,both_right.png,2,RandomDot15.png,No answer,21,,,,
,,,,,,,,,,,,,,,,,,,,,,,,,,,,,,,R_59nXN3KJnjYkf8b,1,2024-05-10_20h16.25.288,interaction task,2021.2.3,Win32,60.24096386,121562,,,,,,,,,,,,,,,,,Greater,Smaller,,0.275000016,-0.520000076,1,0,0,RightButton,"[""RightButton""]",,,,,,,,,,,,100,7.2496,space,0.126265035,9.7515,0,17,17,17,1,2,only_sub_right.png,3,RandomDot26.png,No answer,20,,,,1.4519
,,,,,,,,,,,,,,,,,,,,,,,,,,,,,,,R_59nXN3KJnjYkf8b,1,2024-05-10_20h16.25.288,interaction task,2021.2.3,Win32,60.24096386,121562,,,,,,,,,,,,,,,,,Greater,Smaller,,0.258333365,-0.506666692,1,0,0,RightButton,"[""RightButton""]",,,,,,,0,5.4518,space,100,9.3361,,,,,,0,18,18,18,1,3,only_sub_wrong.png,2,RandomDot13.png,No answer,21,,,0.7479,
,,,,,,,,,,,,,,,,,,,,,,,,,,,,,,,R_59nXN3KJnjYkf8b,1,2024-05-10_20h16.25.288,interaction task,2021.2.3,Win32,60.24096386,121562,,,,,,,,,,,,,,,,,Greater,Smaller,,-0.257291635,-0.475,1,0,0,LeftButton,"[""LeftButton""]",,,,,,,,,,,,70.20202502,6.7179,space,29.48232323,10.6283,0,19,19,19,1,1,both_wrong.png,3,RandomDot30.png,No answer,20,,,,0.7288
,,,,,,,,,,,,,,,,,,,,,,,,,,,,,,,R_59nXN3KJnjYkf8b,1,2024-05-10_20h16.25.288,interaction task,2021.2.3,Win32,60.24096386,121562,,,,,,,,,,,,,,,,,Greater,Smaller,,0.303124984,-0.511666743,1,0,0,RightButton,"[""RightButton""]",,,,,,,0,3.474,space,100,6.5649,,,,,,0,20,20,20,1,3,only_sub_wrong.png,2,RandomDot20.png,No answer,19,,,1.0029,
,,,,,,,,,,,,,,,,,,,,,,,,,,,,,,,R_59nXN3KJnjYkf8b,1,2024-05-10_20h16.25.288,interaction task,2021.2.3,Win32,60.24096386,121562,,,,,,,,,,,,,,,,,Smaller,Greater,,-0.284374952,-0.493333308,1,0,0,LeftButton,"[""LeftButton""]",,,,0.026041667,10.059,space,,,,,,,,,,,0,21,21,21,1,1,both_wrong.png,1,RandomDot13.png,No answer,19,,1.0468,,
,,,,,,,,,,,,,,,,,,,,,,,,,,,,,,,R_59nXN3KJnjYkf8b,1,2024-05-10_20h16.25.288,interaction task,2021.2.3,Win32,60.24096386,121562,,,,,,,,,,,,,,,,,Greater,Smaller,,-0.228125016,-0.498333359,1,0,0,LeftButton,"[""LeftButton""]",40,4.5078,space,,,,,,,,,,,,,,0,22,22,22,1,3,only_sub_wrong.png,0,RandomDot24.png,No answer,20,2.6551,,,
,,,,,,,,,,,,,,,,,,,,,,,,,,,,,,,R_59nXN3KJnjYkf8b,1,2024-05-10_20h16.25.288,interaction task,2021.2.3,Win32,60.24096386,121562,,,,,,,,,,,,,,,,,Greater,Smaller,,-0.248958349,-0.515000025,1,0,0,LeftButton,"[""LeftButton""]",60,2.3611,space,,,,,,,,,,,,,,0,23,23,23,1,3,only_sub_wrong.png,0,RandomDot12.png,No answer,20,0.7883,,,
,,,,,,,,,,,,,,,,,,,,,,,,,,,,,,,R_59nXN3KJnjYkf8b,1,2024-05-10_20h16.25.288,interaction task,2021.2.3,Win32,60.24096386,121562,,,,,,,,,,,,,,,,,Smaller,Greater,,0.318749984,-0.505000051,1,0,0,RightButton,"[""RightButton""]",,,,,,,,,,,,,,,,,0,24,24,24,1,0,both_right.png,1,RandomDot36.png,No answer,19,,,,
,,,,,,,,,,,,,,,,,,,,,,,,,,,,,,,R_59nXN3KJnjYkf8b,1,2024-05-10_20h16.25.288,interaction task,2021.2.3,Win32,60.24096386,121562,,,,,,,,,,,,,,,,,Greater,Smaller,,0.290625016,-0.5,1,0,0,RightButton,"[""RightButton""]",1,2.6767,space,,,,,,,,,,,,,,0,25,25,25,1,1,both_wrong.png,0,RandomDot14.png,No answer,19,0.7416,,,
,,,,,,,,,,,,,,,,,,,,,,,,,,,,,,,R_59nXN3KJnjYkf8b,1,2024-05-10_20h16.25.288,interaction task,2021.2.3,Win32,60.24096386,121562,,,,,,,,,,,,,,,,,Smaller,Greater,,-0.294791619,-0.513333384,1,0,0,LeftButton,"[""LeftButton""]",,,,,,,,,,,,,,,,,0,26,26,26,1,5,both_right.png,10,RandomDot42.png,LeftButton,21,,,,
,,,,,,,,,,,,,,,,,,,,,,,,,,,,,,,R_59nXN3KJnjYkf8b,1,2024-05-10_20h16.25.288,interaction task,2021.2.3,Win32,60.24096386,121562,,,,,,,,,,,,,,,,,Smaller,Greater,,0.273958365,-0.536666743,1,0,0,RightButton,"[""RightButton""]",,,,,,,,,,,,79.77693924,9.9929,space,2.756736415,7.3429,0,27,27,27,1,1,both_wrong.png,3,RandomDot7.png,No answer,21,,,,3.4804
,,,,,,,,,,,,,,,,,,,,,,,,,,,,,,,R_59nXN3KJnjYkf8b,1,2024-05-10_20h16.25.288,interaction task,2021.2.3,Win32,60.24096386,121562,,,,,,,,,,,,,,,,,Greater,Smaller,,-0.28125,-0.513333384,1,0,0,LeftButton,"[""LeftButton""]",,,,0.020833413,4.8121,space,,,,,,,,,,,0,28,28,28,1,3,only_sub_wrong.png,1,RandomDot11.png,No answer,20,,1.0038,,
,,,,,,,,,,,,,,,,,,,,,,,,,,,,,,,R_59nXN3KJnjYkf8b,1,2024-05-10_20h16.25.288,interaction task,2021.2.3,Win32,60.24096386,121562,,,,,,,,,,,,,,,,,Smaller,Greater,,0.255208333,-0.515000025,1,0,0,RightButton,"[""RightButton""]",,,,,,,,,,,,,,,,,0,29,29,29,1,4,both_right.png,10,RandomDot41.png,RightButton,5,,,,
,,,,,,,,,,,,,,,,,,,,,,,,,,,,,,,R_59nXN3KJnjYkf8b,1,2024-05-10_20h16.25.288,interaction task,2021.2.3,Win32,60.24096386,121562,,,,,,,,,,,,,,,,,Greater,Smaller,,0.25,-0.521666718,1,0,0,RightButton,"[""RightButton""]",,,,,,,0,3.7134,space,100,6.9445,,,,,,0,30,30,30,1,3,only_sub_wrong.png,2,RandomDot38.png,No answer,21,,,0.7462,
,,,,,,,,,,,,,,,,,,,,,,,,,,,,,,,R_59nXN3KJnjYkf8b,1,2024-05-10_20h16.25.288,interaction task,2021.2.3,Win32,60.24096386,121562,,,,,,,,,,,,,,,,,Smaller,Greater,,-0.257291635,-0.5,1,0,0,LeftButton,"[""LeftButton""]",,,,,,,0,2.2969,space,100,4.6705,,,,,,0,31,31,31,1,2,only_sub_right.png,2,RandomDot34.png,No answer,20,,,0.7285,
,,,,,,,,,,,,,,,,,,,,,,,,,,,,,,,R_59nXN3KJnjYkf8b,1,2024-05-10_20h16.25.288,interaction task,2021.2.3,Win32,60.24096386,121562,,,,,,,,,,,,,,,,,Greater,Smaller,,-0.280208349,-0.496666718,1,0,0,LeftButton,"[""LeftButton""]",0,2.5405,space,,,,,,,,,,,,,,0,32,32,32,1,2,only_sub_right.png,0,RandomDot33.png,No answer,21,0.7231,,,
,,,,,,,,,,,,,,,,,,,,,,,,,,,,,,,R_59nXN3KJnjYkf8b,1,2024-05-10_20h16.25.288,interaction task,2021.2.3,Win32,60.24096386,121562,,,,,,,,,,,,,,,,,Smaller,Greater,,0.301041683,-0.5,1,0,0,RightButton,"[""RightButton""]",,,,,,,0,3.4977,space,0,5.0918,,,,,,0,33,33,33,1,1,both_wrong.png,2,RandomDot24.png,No answer,21,,,0.667,
,,,,,,,,,,,,,,,,,,,,,,,,,,,,,,,R_59nXN3KJnjYkf8b,1,2024-05-10_20h16.25.288,interaction task,2021.2.3,Win32,60.24096386,121562,,,,,,,,,,,,,,,,,Smaller,Greater,,0.214583317,-0.520000076,1,0,0,RightButton,"[""RightButton""]",,,,,,,,,,,,40.42508578,4.0549,space,0.652359311,7.4664,0,34,34,34,1,2,only_sub_right.png,3,RandomDot7.png,No answer,20,,,,0.7068
,,,,,,,,,,,,,,,,,,,,,,,,,,,,,,,R_59nXN3KJnjYkf8b,1,2024-05-10_20h16.25.288,interaction task,2021.2.3,Win32,60.24096386,121562,,,,,,,,,,,,,,,,,Smaller,Greater,,0.267708381,-0.538333384,1,0,0,RightButton,"[""RightButton""]",,,,0.020833413,6.0637,space,,,,,,,,,,,0,35,35,35,1,1,both_wrong.png,1,RandomDot17.png,No answer,20,,0.8979,,
,,,,,,,,,,,,,,,,,,,,,,,,,,,,,,,R_59nXN3KJnjYkf8b,1,2024-05-10_20h16.25.288,interaction task,2021.2.3,Win32,60.24096386,121562,,,,,,,,,,,,,,,,,Smaller,Greater,,-0.301041683,-0.495000076,1,0,0,LeftButton,"[""LeftButton""]",0,2.6914,space,,,,,,,,,,,,,,0,36,36,36,1,2,only_sub_right.png,0,RandomDot17.png,No answer,20,3.1075,,,
,,,,,,,,,,,,,,,,,,,,,,,,,,,,,,,R_59nXN3KJnjYkf8b,1,2024-05-10_20h16.25.288,interaction task,2021.2.3,Win32,60.24096386,121562,,,,,,,,,,,,,,,,,Smaller,Greater,,-0.275000016,-0.516666667,1,0,0,LeftButton,"[""LeftButton""]",,,,0.020833413,5.9894,space,,,,,,,,,,,0,37,37,37,1,2,only_sub_right.png,1,RandomDot15.png,No answer,19,,0.9378,,
,,,,,,,,,,,,,,,,,,,,,,,,,,,,,,,R_59nXN3KJnjYkf8b,1,2024-05-10_20h16.25.288,interaction task,2021.2.3,Win32,60.24096386,121562,,,,,,,,,,,,,,,,,Smaller,Greater,,0.309375048,-0.50333341,1,0,0,RightButton,"[""RightButton""]",,,,,,,0,51.7917,space,1,50.4337,,,,,,0,38,38,38,1,1,both_wrong.png,2,RandomDot7.png,No answer,21,,,0.9231,
,,,,,,,,,,,,,,,,,,,,,,,,,,,,,,,R_59nXN3KJnjYkf8b,1,2024-05-10_20h16.25.288,interaction task,2021.2.3,Win32,60.24096386,121562,,,,,,,,,,,,,,,,,Smaller,Greater,,0.268750032,-0.515000025,1,0,0,RightButton,"[""RightButton""]",,,,0.005208453,3.0546,space,,,,,,,,,,,0,39,39,39,1,3,only_sub_wrong.png,1,RandomDot6.png,No answer,21,,0.6537,,
,,,,,,,,,,,,,,,,,,,,,,,,,,,,,,,R_59nXN3KJnjYkf8b,1,2024-05-10_20h16.25.288,interaction task,2021.2.3,Win32,60.24096386,121562,,,,,,,,,,,,,,,,,Smaller,Greater,,-0.302083333,-0.493333308,1,0,0,LeftButton,"[""LeftButton""]",,,,,,,23,1.8087,space,25,3.0486,,,,,,0,40,40,40,1,1,both_wrong.png,2,RandomDot8.png,No answer,20,,,0.5834,
,,,,,,,,,,,,,,,,,,,,,,,,,,,,,,,R_59nXN3KJnjYkf8b,1,2024-05-10_20h16.25.288,interaction task,2021.2.3,Win32,60.24096386,121562,,,,,,,,,,,,,,,,,Greater,Smaller,,-0.276041667,-0.50333341,1,0,0,LeftButton,"[""LeftButton""]",,,,0.005208453,3.982,space,,,,,,,,,,,0,41,41,41,1,1,both_wrong.png,1,RandomDot6.png,No answer,20,,0.6772,,
