choose_trial,key_resp.keys,key_resp.rt,key_resp_4.keys,key_resp_4.rt,session_trait,slider_face_judge.response,slider_face_judge.rt,key_resp_3.keys,key_resp_3.rt,face_loop.thisRepN,face_loop.thisTrialN,face_loop.thisN,face_loop.thisIndex,face_loop.ran,face_serial,image_name,isCheck,answer,check_question,participant,session,date,expName,psychopyVersion,OS,frameRate,SONAid,session.thisRepN,session.thisTrialN,session.thisN,session.thisIndex,session.ran,session_serial,slider_judge_img
"[0,1,2,3,4,5,6,7,8,9,10,11,12,13,14,15,16,17,18,19,20,21,22,23,24,25,26,27,28,29,30,31,32,33,34,35,36,37,38,39,40,41,42,43,44,45,46,47,48,49,53,58,53]",space,15.8728,space,52.523,competent,3.995000076,6.5125,space,7.0039,0,0,0,11,1,12,image/12.jpg,0,0,,R_59nXN3KJnjYkf8b,2,2024-05-10_20h40.49.992,face trait task,2021.2.3,Win32,60.24096386,121562,,,,,,,
,,,,,,3.015000153,7.6537,space,1.27,0,1,1,10,1,11,image/11.jpg,0,0,,R_59nXN3KJnjYkf8b,2,2024-05-10_20h40.49.992,face trait task,2021.2.3,Win32,60.24096386,121562,,,,,,,
,,,,,,6.990000153,9.7941,space,2.7538,0,2,2,20,1,21,image/21.jpg,0,0,,R_59nXN3KJnjYkf8b,2,2024-05-10_20h40.49.992,face trait task,2021.2.3,Win32,60.24096386,121562,,,,,,,
,,,,,,2.960000229,5.6695,space,1.2886,0,3,3,47,1,48,image/48.jpg,0,0,,R_59nXN3KJnjYkf8b,2,2024-05-10_20h40.49.992,face trait task,2021.2.3,Win32,60.24096386,121562,,,,,,,
,,,,,,5.995000458,7.8508,space,1.0203,0,4,4,41,1,42,image/42.jpg,0,0,,R_59nXN3KJnjYkf8b,2,2024-05-10_20h40.49.992,face trait task,2021.2.3,Win32,60.24096386,121562,,,,,,,
,,,,,,3.004999924,7.302,space,0.4869,0,5,5,24,1,25,image/25.jpg,0,0,,R_59nXN3KJnjYkf8b,2,2024-05-10_20h40.49.992,face trait task,2021.2.3,Win32,60.24096386,121562,,,,,,,
,,,,,,3.004999924,5.5015,space,0.7403,0,6,6,30,1,31,image/31.jpg,0,0,,R_59nXN3KJnjYkf8b,2,2024-05-10_20h40.49.992,face trait task,2021.2.3,Win32,60.24096386,121562,,,,,,,
,,,,,,3.990000153,5.4356,space,1.5421,0,7,7,5,1,6,image/6.jpg,0,0,,R_59nXN3KJnjYkf8b,2,2024-05-10_20h40.49.992,face trait task,2021.2.3,Win32,60.24096386,121562,,,,,,,
,,,,,,3.015000153,7.9532,space,1.0532,0,8,8,15,1,16,image/16.jpg,0,0,,R_59nXN3KJnjYkf8b,2,2024-05-10_20h40.49.992,face trait task,2021.2.3,Win32,60.24096386,121562,,,,,,,
,,,,,,3.004999924,4.4775,space,0.4471,0,9,9,36,1,37,image/37.jpg,0,0,,R_59nXN3KJnjYkf8b,2,2024-05-10_20h40.49.992,face trait task,2021.2.3,Win32,60.24096386,121562,,,,,,,
,,,,,,4.004999924,5.0467,space,0.4536,0,10,10,4,1,5,image/5.jpg,0,0,,R_59nXN3KJnjYkf8b,2,2024-05-10_20h40.49.992,face trait task,2021.2.3,Win32,60.24096386,121562,,,,,,,
,,,,,,6.984999847,7.5013,space,0.9893,0,11,11,25,1,26,image/26.jpg,0,0,,R_59nXN3KJnjYkf8b,2,2024-05-10_20h40.49.992,face trait task,2021.2.3,Win32,60.24096386,121562,,,,,,,
,,,,,,2.995000076,10.6354,space,2.3027,0,12,12,48,1,49,image/49.jpg,0,0,,R_59nXN3KJnjYkf8b,2,2024-05-10_20h40.49.992,face trait task,2021.2.3,Win32,60.24096386,121562,,,,,,,
,,,,,,1.989999962,3.7,space,0.8056,0,13,13,8,1,9,image/9.jpg,0,0,,R_59nXN3KJnjYkf8b,2,2024-05-10_20h40.49.992,face trait task,2021.2.3,Win32,60.24096386,121562,,,,,,,
,,,,,,3.029999924,4.6178,space,0.5541,0,14,14,13,1,14,image/14.jpg,0,0,,R_59nXN3KJnjYkf8b,2,2024-05-10_20h40.49.992,face trait task,2021.2.3,Win32,60.24096386,121562,,,,,,,
,,,,,,4.529999924,16.0344,space,0.6883,0,15,15,21,1,22,image/22.jpg,0,0,,R_59nXN3KJnjYkf8b,2,2024-05-10_20h40.49.992,face trait task,2021.2.3,Win32,60.24096386,121562,,,,,,,
,,,,,,2.985000229,5.2851,space,0.522,0,16,16,40,1,41,image/41.jpg,0,0,,R_59nXN3KJnjYkf8b,2,2024-05-10_20h40.49.992,face trait task,2021.2.3,Win32,60.24096386,121562,,,,,,,
,,,,,,3.470000076,5.6203,space,0.3539,0,17,17,28,1,29,image/29.jpg,0,0,,R_59nXN3KJnjYkf8b,2,2024-05-10_20h40.49.992,face trait task,2021.2.3,Win32,60.24096386,121562,,,,,,,
,,,,,,3.504999924,5.29,space,0.4462,0,18,18,33,1,34,image/34.jpg,0,0,,R_59nXN3KJnjYkf8b,2,2024-05-10_20h40.49.992,face trait task,2021.2.3,Win32,60.24096386,121562,,,,,,,
,,,,,,4.004999924,7.7976,space,0.4356,0,19,19,31,1,32,image/32.jpg,0,0,,R_59nXN3KJnjYkf8b,2,2024-05-10_20h40.49.992,face trait task,2021.2.3,Win32,60.24096386,121562,,,,,,,
,,,,,,3.504999924,4.418,space,0.6559,0,20,20,22,1,23,image/23.jpg,0,0,,R_59nXN3KJnjYkf8b,2,2024-05-10_20h40.49.992,face trait task,2021.2.3,Win32,60.24096386,121562,,,,,,,
,,,,,,1,8.6611,space,3.0365,0,21,21,52,1,54,image/fill_img.png,1,1,Please move the slider all the way to the LEFT to show that you are paying attention.,R_59nXN3KJnjYkf8b,2,2024-05-10_20h40.49.992,face trait task,2021.2.3,Win32,60.24096386,121562,,,,,,,
,,,,,,2.010000038,7.7573,space,3.7294,0,22,22,38,1,39,image/39.jpg,0,0,,R_59nXN3KJnjYkf8b,2,2024-05-10_20h40.49.992,face trait task,2021.2.3,Win32,60.24096386,121562,,,,,,,
,,,,,,3.004999924,3.6764,space,0.9014,0,23,23,27,1,28,image/28.jpg,0,0,,R_59nXN3KJnjYkf8b,2,2024-05-10_20h40.49.992,face trait task,2021.2.3,Win32,60.24096386,121562,,,,,,,
,,,,,,3.025,6.5035,space,0.5099,0,24,24,9,1,10,image/10.jpg,0,0,,R_59nXN3KJnjYkf8b,2,2024-05-10_20h40.49.992,face trait task,2021.2.3,Win32,60.24096386,121562,,,,,,,
,,,,,,2.995000076,5.1044,space,0.6453,0,25,25,2,1,3,image/3.jpg,0,0,,R_59nXN3KJnjYkf8b,2,2024-05-10_20h40.49.992,face trait task,2021.2.3,Win32,60.24096386,121562,,,,,,,
,,,,,,2.995000076,4.0111,space,0.8117,0,26,26,26,1,27,image/27.jpg,0,0,,R_59nXN3KJnjYkf8b,2,2024-05-10_20h40.49.992,face trait task,2021.2.3,Win32,60.24096386,121562,,,,,,,
,,,,,,2.995000076,2.0732,space,0.413,0,27,27,34,1,35,image/35.jpg,0,0,,R_59nXN3KJnjYkf8b,2,2024-05-10_20h40.49.992,face trait task,2021.2.3,Win32,60.24096386,121562,,,,,,,
,,,,,,2.995000076,1.4212,space,0.4357,0,28,28,12,1,13,image/13.jpg,0,0,,R_59nXN3KJnjYkf8b,2,2024-05-10_20h40.49.992,face trait task,2021.2.3,Win32,60.24096386,121562,,,,,,,
,,,,,,2.995000076,1.2832,space,0.3878,0,29,29,19,1,20,image/20.jpg,0,0,,R_59nXN3KJnjYkf8b,2,2024-05-10_20h40.49.992,face trait task,2021.2.3,Win32,60.24096386,121562,,,,,,,
,,,,,,2.995000076,1.2632,space,0.3747,0,30,30,32,1,33,image/33.jpg,0,0,,R_59nXN3KJnjYkf8b,2,2024-05-10_20h40.49.992,face trait task,2021.2.3,Win32,60.24096386,121562,,,,,,,
,,,,,,2.995000076,1.2148,space,0.4062,0,31,31,23,1,24,image/24.jpg,0,0,,R_59nXN3KJnjYkf8b,2,2024-05-10_20h40.49.992,face trait task,2021.2.3,Win32,60.24096386,121562,,,,,,,
,,,,,,2.995000076,1.2814,space,0.3902,0,32,32,37,1,38,image/38.jpg,0,0,,R_59nXN3KJnjYkf8b,2,2024-05-10_20h40.49.992,face trait task,2021.2.3,Win32,60.24096386,121562,,,,,,,
,,,,,,7,2.8296,space,1.8733,0,33,33,51,1,59,image/fill_img.png,1,7,Please move the slider all the way to the RIGHT to show that you are paying attention.,R_59nXN3KJnjYkf8b,2,2024-05-10_20h40.49.992,face trait task,2021.2.3,Win32,60.24096386,121562,,,,,,,
,,,,,,3.004999924,2.4467,space,1.4993,0,34,34,46,1,47,image/47.jpg,0,0,,R_59nXN3KJnjYkf8b,2,2024-05-10_20h40.49.992,face trait task,2021.2.3,Win32,60.24096386,121562,,,,,,,
,,,,,,3.004999924,1.2733,space,0.3691,0,35,35,49,1,50,image/50.jpg,0,0,,R_59nXN3KJnjYkf8b,2,2024-05-10_20h40.49.992,face trait task,2021.2.3,Win32,60.24096386,121562,,,,,,,
,,,,,,3.004999924,0.6462,space,0.5398,0,36,36,17,1,18,image/18.jpg,0,0,,R_59nXN3KJnjYkf8b,2,2024-05-10_20h40.49.992,face trait task,2021.2.3,Win32,60.24096386,121562,,,,,,,
,,,,,,3.004999924,0.8199,space,0.7362,0,37,37,6,1,7,image/7.jpg,0,0,,R_59nXN3KJnjYkf8b,2,2024-05-10_20h40.49.992,face trait task,2021.2.3,Win32,60.24096386,121562,,,,,,,
,,,,,,3.004999924,0.6236,space,0.4212,0,38,38,42,1,43,image/43.jpg,0,0,,R_59nXN3KJnjYkf8b,2,2024-05-10_20h40.49.992,face trait task,2021.2.3,Win32,60.24096386,121562,,,,,,,
,,,,,,1,2.9955,space,1.3637,0,39,39,50,1,54,image/fill_img.png,1,1,Please move the slider all the way to the LEFT to show that you are paying attention.,R_59nXN3KJnjYkf8b,2,2024-05-10_20h40.49.992,face trait task,2021.2.3,Win32,60.24096386,121562,,,,,,,
,,,,,,3,2.0017,space,0.4061,0,40,40,43,1,44,image/44.jpg,0,0,,R_59nXN3KJnjYkf8b,2,2024-05-10_20h40.49.992,face trait task,2021.2.3,Win32,60.24096386,121562,,,,,,,
,,,,,,3,1.1901,space,0.3374,0,41,41,16,1,17,image/17.jpg,0,0,,R_59nXN3KJnjYkf8b,2,2024-05-10_20h40.49.992,face trait task,2021.2.3,Win32,60.24096386,121562,,,,,,,
,,,,,,3,1.2299,space,1.0945,0,42,42,14,1,15,image/15.jpg,0,0,,R_59nXN3KJnjYkf8b,2,2024-05-10_20h40.49.992,face trait task,2021.2.3,Win32,60.24096386,121562,,,,,,,
,,,,,,3,1.1512,space,0.588,0,43,43,29,1,30,image/30.jpg,0,0,,R_59nXN3KJnjYkf8b,2,2024-05-10_20h40.49.992,face trait task,2021.2.3,Win32,60.24096386,121562,,,,,,,
,,,,,,3,1.2073,space,0.3904,0,44,44,7,1,8,image/8.jpg,0,0,,R_59nXN3KJnjYkf8b,2,2024-05-10_20h40.49.992,face trait task,2021.2.3,Win32,60.24096386,121562,,,,,,,
,,,,,,3,1.4588,space,0.3745,0,45,45,39,1,40,image/40.jpg,0,0,,R_59nXN3KJnjYkf8b,2,2024-05-10_20h40.49.992,face trait task,2021.2.3,Win32,60.24096386,121562,,,,,,,
,,,,,,3,1.7187,space,1.1223,0,46,46,0,1,1,image/1.jpg,0,0,,R_59nXN3KJnjYkf8b,2,2024-05-10_20h40.49.992,face trait task,2021.2.3,Win32,60.24096386,121562,,,,,,,
,,,,,,3,1.2144,space,0.3364,0,47,47,3,1,4,image/4.jpg,0,0,,R_59nXN3KJnjYkf8b,2,2024-05-10_20h40.49.992,face trait task,2021.2.3,Win32,60.24096386,121562,,,,,,,
,,,,,,3,1.4592,space,0.3711,0,48,48,1,1,2,image/2.jpg,0,0,,R_59nXN3KJnjYkf8b,2,2024-05-10_20h40.49.992,face trait task,2021.2.3,Win32,60.24096386,121562,,,,,,,
,,,,,,3,1.179,space,0.3504,0,49,49,44,1,45,image/45.jpg,0,0,,R_59nXN3KJnjYkf8b,2,2024-05-10_20h40.49.992,face trait task,2021.2.3,Win32,60.24096386,121562,,,,,,,
,,,,,,3,1.0449,space,0.1478,0,50,50,35,1,36,image/36.jpg,0,0,,R_59nXN3KJnjYkf8b,2,2024-05-10_20h40.49.992,face trait task,2021.2.3,Win32,60.24096386,121562,,,,,,,
,,,,,,3,1.7335,space,1.5829,0,51,51,18,1,19,image/19.jpg,0,0,,R_59nXN3KJnjYkf8b,2,2024-05-10_20h40.49.992,face trait task,2021.2.3,Win32,60.24096386,121562,,,,,,,
,,,,,,3,1.3855,space,0.8776,0,52,52,45,1,46,image/46.jpg,0,0,,R_59nXN3KJnjYkf8b,2,2024-05-10_20h40.49.992,face trait task,2021.2.3,Win32,60.24096386,121562,,,,,,,
,,,,,,,,,,,,,,,,,,,,R_59nXN3KJnjYkf8b,2,2024-05-10_20h40.49.992,face trait task,2021.2.3,Win32,60.24096386,121562,0,0,0,1,1,1,competent.png
,,,,,friendly,4.004999924,7.3608,space,1.2813,0,0,0,22,1,23,image/23.jpg,0,0,,R_59nXN3KJnjYkf8b,2,2024-05-10_20h40.49.992,face trait task,2021.2.3,Win32,60.24096386,121562,,,,,,,
,,,,,,4.55,3.7319,space,0.4134,0,1,1,17,1,18,image/18.jpg,0,0,,R_59nXN3KJnjYkf8b,2,2024-05-10_20h40.49.992,face trait task,2021.2.3,Win32,60.24096386,121562,,,,,,,
,,,,,,5.045000076,3.5116,space,0.4972,0,2,2,31,1,32,image/32.jpg,0,0,,R_59nXN3KJnjYkf8b,2,2024-05-10_20h40.49.992,face trait task,2021.2.3,Win32,60.24096386,121562,,,,,,,
,,,,,,2.364999962,8.4607,space,6.7438,0,3,3,5,1,6,image/6.jpg,0,0,,R_59nXN3KJnjYkf8b,2,2024-05-10_20h40.49.992,face trait task,2021.2.3,Win32,60.24096386,121562,,,,,,,
,,,,,,2.014999962,3.5541,space,3.1127,0,4,4,47,1,48,image/48.jpg,0,0,,R_59nXN3KJnjYkf8b,2,2024-05-10_20h40.49.992,face trait task,2021.2.3,Win32,60.24096386,121562,,,,,,,
,,,,,,1.025,6.6416,space,0.5604,0,5,5,40,1,41,image/41.jpg,0,0,,R_59nXN3KJnjYkf8b,2,2024-05-10_20h40.49.992,face trait task,2021.2.3,Win32,60.24096386,121562,,,,,,,
,,,,,,2.245000076,3.5804,space,2.5258,0,6,6,18,1,19,image/19.jpg,0,0,,R_59nXN3KJnjYkf8b,2,2024-05-10_20h40.49.992,face trait task,2021.2.3,Win32,60.24096386,121562,,,,,,,
,,,,,,2,2.1736,space,3.7455,0,7,7,0,1,1,image/1.jpg,0,0,,R_59nXN3KJnjYkf8b,2,2024-05-10_20h40.49.992,face trait task,2021.2.3,Win32,60.24096386,121562,,,,,,,
,,,,,,1.014999962,5.0324,space,2.9898,0,8,8,14,1,15,image/15.jpg,0,0,,R_59nXN3KJnjYkf8b,2,2024-05-10_20h40.49.992,face trait task,2021.2.3,Win32,60.24096386,121562,,,,,,,
,,,,,,3.979999924,3.2372,space,0.5407,0,9,9,28,1,29,image/29.jpg,0,0,,R_59nXN3KJnjYkf8b,2,2024-05-10_20h40.49.992,face trait task,2021.2.3,Win32,60.24096386,121562,,,,,,,
,,,,,,2.985000229,2.0473,space,0.4073,0,10,10,10,1,11,image/11.jpg,0,0,,R_59nXN3KJnjYkf8b,2,2024-05-10_20h40.49.992,face trait task,2021.2.3,Win32,60.24096386,121562,,,,,,,
,,,,,,2.985000229,0.6695,space,0.46,0,11,11,32,1,33,image/33.jpg,0,0,,R_59nXN3KJnjYkf8b,2,2024-05-10_20h40.49.992,face trait task,2021.2.3,Win32,60.24096386,121562,,,,,,,
,,,,,,2.985000229,1.2658,space,0.5615,0,12,12,19,1,20,image/20.jpg,0,0,,R_59nXN3KJnjYkf8b,2,2024-05-10_20h40.49.992,face trait task,2021.2.3,Win32,60.24096386,121562,,,,,,,
,,,,,,2.985000229,1.233,space,0.3769,0,13,13,8,1,9,image/9.jpg,0,0,,R_59nXN3KJnjYkf8b,2,2024-05-10_20h40.49.992,face trait task,2021.2.3,Win32,60.24096386,121562,,,,,,,
,,,,,,1,3.8785,space,1.5061,0,14,14,52,1,54,image/fill_img.png,1,1,Please move the slider all the way to the LEFT to show that you are paying attention.,R_59nXN3KJnjYkf8b,2,2024-05-10_20h40.49.992,face trait task,2021.2.3,Win32,60.24096386,121562,,,,,,,
,,,,,,2.995000076,2.8188,space,0.5044,0,15,15,16,1,17,image/17.jpg,0,0,,R_59nXN3KJnjYkf8b,2,2024-05-10_20h40.49.992,face trait task,2021.2.3,Win32,60.24096386,121562,,,,,,,
,,,,,,2.995000076,1.2375,space,0.4366,0,16,16,33,1,34,image/34.jpg,0,0,,R_59nXN3KJnjYkf8b,2,2024-05-10_20h40.49.992,face trait task,2021.2.3,Win32,60.24096386,121562,,,,,,,
,,,,,,2.995000076,1.2056,space,0.7238,0,17,17,46,1,47,image/47.jpg,0,0,,R_59nXN3KJnjYkf8b,2,2024-05-10_20h40.49.992,face trait task,2021.2.3,Win32,60.24096386,121562,,,,,,,
,,,,,,2.995000076,1.4491,space,0.4913,0,18,18,7,1,8,image/8.jpg,0,0,,R_59nXN3KJnjYkf8b,2,2024-05-10_20h40.49.992,face trait task,2021.2.3,Win32,60.24096386,121562,,,,,,,
,,,,,,2.995000076,1.333,space,0.6902,0,19,19,3,1,4,image/4.jpg,0,0,,R_59nXN3KJnjYkf8b,2,2024-05-10_20h40.49.992,face trait task,2021.2.3,Win32,60.24096386,121562,,,,,,,
,,,,,,2.995000076,1.2843,space,0.6547,0,20,20,35,1,36,image/36.jpg,0,0,,R_59nXN3KJnjYkf8b,2,2024-05-10_20h40.49.992,face trait task,2021.2.3,Win32,60.24096386,121562,,,,,,,
,,,,,,2.995000076,1.3504,space,0.5852,0,21,21,23,1,24,image/24.jpg,0,0,,R_59nXN3KJnjYkf8b,2,2024-05-10_20h40.49.992,face trait task,2021.2.3,Win32,60.24096386,121562,,,,,,,
,,,,,,2.995000076,1.2843,space,0.6667,0,22,22,49,1,50,image/50.jpg,0,0,,R_59nXN3KJnjYkf8b,2,2024-05-10_20h40.49.992,face trait task,2021.2.3,Win32,60.24096386,121562,,,,,,,
,,,,,,2.995000076,1.4825,space,0.624,0,23,23,15,1,16,image/16.jpg,0,0,,R_59nXN3KJnjYkf8b,2,2024-05-10_20h40.49.992,face trait task,2021.2.3,Win32,60.24096386,121562,,,,,,,
,,,,,,2.995000076,1.5295,space,0.6329,0,24,24,25,1,26,image/26.jpg,0,0,,R_59nXN3KJnjYkf8b,2,2024-05-10_20h40.49.992,face trait task,2021.2.3,Win32,60.24096386,121562,,,,,,,
,,,,,,6.995000458,2.8624,space,0.5409,0,25,25,51,1,59,image/fill_img.png,1,7,Please move the slider all the way to the RIGHT to show that you are paying attention.,R_59nXN3KJnjYkf8b,2,2024-05-10_20h40.49.992,face trait task,2021.2.3,Win32,60.24096386,121562,,,,,,,
,,,,,,3.004999924,2.9563,space,0.4319,0,26,26,24,1,25,image/25.jpg,0,0,,R_59nXN3KJnjYkf8b,2,2024-05-10_20h40.49.992,face trait task,2021.2.3,Win32,60.24096386,121562,,,,,,,
,,,,,,3.004999924,1.3475,space,0.4212,0,27,27,34,1,35,image/35.jpg,0,0,,R_59nXN3KJnjYkf8b,2,2024-05-10_20h40.49.992,face trait task,2021.2.3,Win32,60.24096386,121562,,,,,,,
,,,,,,3.004999924,1.3242,space,0.5406,0,28,28,29,1,30,image/30.jpg,0,0,,R_59nXN3KJnjYkf8b,2,2024-05-10_20h40.49.992,face trait task,2021.2.3,Win32,60.24096386,121562,,,,,,,
,,,,,,3.004999924,1.2641,space,0.8983,0,29,29,6,1,7,image/7.jpg,0,0,,R_59nXN3KJnjYkf8b,2,2024-05-10_20h40.49.992,face trait task,2021.2.3,Win32,60.24096386,121562,,,,,,,
,,,,,,3.004999924,1.264,space,0.481,0,30,30,11,1,12,image/12.jpg,0,0,,R_59nXN3KJnjYkf8b,2,2024-05-10_20h40.49.992,face trait task,2021.2.3,Win32,60.24096386,121562,,,,,,,
,,,,,,3.004999924,1.2569,space,0.4585,0,31,31,39,1,40,image/40.jpg,0,0,,R_59nXN3KJnjYkf8b,2,2024-05-10_20h40.49.992,face trait task,2021.2.3,Win32,60.24096386,121562,,,,,,,
,,,,,,3.004999924,1.3373,space,0.497,0,32,32,37,1,38,image/38.jpg,0,0,,R_59nXN3KJnjYkf8b,2,2024-05-10_20h40.49.992,face trait task,2021.2.3,Win32,60.24096386,121562,,,,,,,
,,,,,,3.004999924,1.2496,space,0.5026,0,33,33,26,1,27,image/27.jpg,0,0,,R_59nXN3KJnjYkf8b,2,2024-05-10_20h40.49.992,face trait task,2021.2.3,Win32,60.24096386,121562,,,,,,,
,,,,,,1.005000114,5.189,space,4.1938,0,34,34,30,1,31,image/31.jpg,0,0,,R_59nXN3KJnjYkf8b,2,2024-05-10_20h40.49.992,face trait task,2021.2.3,Win32,60.24096386,121562,,,,,,,
,,,,,,3.004999924,2.2002,space,0.3311,0,35,35,21,1,22,image/22.jpg,0,0,,R_59nXN3KJnjYkf8b,2,2024-05-10_20h40.49.992,face trait task,2021.2.3,Win32,60.24096386,121562,,,,,,,
,,,,,,1.005000114,8.388,space,7.7503,0,36,36,43,1,44,image/44.jpg,0,0,,R_59nXN3KJnjYkf8b,2,2024-05-10_20h40.49.992,face trait task,2021.2.3,Win32,60.24096386,121562,,,,,,,
,,,,,,3.015000153,2.216,space,0.5585,0,37,37,13,1,14,image/14.jpg,0,0,,R_59nXN3KJnjYkf8b,2,2024-05-10_20h40.49.992,face trait task,2021.2.3,Win32,60.24096386,121562,,,,,,,
,,,,,,3.015000153,1.3826,space,0.8077,0,38,38,27,1,28,image/28.jpg,0,0,,R_59nXN3KJnjYkf8b,2,2024-05-10_20h40.49.992,face trait task,2021.2.3,Win32,60.24096386,121562,,,,,,,
,,,,,,1,4.1007,space,0.4733,0,39,39,50,1,54,image/fill_img.png,1,1,Please move the slider all the way to the LEFT to show that you are paying attention.,R_59nXN3KJnjYkf8b,2,2024-05-10_20h40.49.992,face trait task,2021.2.3,Win32,60.24096386,121562,,,,,,,
,,,,,,2.995000076,2.2427,space,0.3521,0,40,40,38,1,39,image/39.jpg,0,0,,R_59nXN3KJnjYkf8b,2,2024-05-10_20h40.49.992,face trait task,2021.2.3,Win32,60.24096386,121562,,,,,,,
,,,,,,2.995000076,1.2013,space,0.6202,0,41,41,20,1,21,image/21.jpg,0,0,,R_59nXN3KJnjYkf8b,2,2024-05-10_20h40.49.992,face trait task,2021.2.3,Win32,60.24096386,121562,,,,,,,
,,,,,,2.995000076,1.1854,space,0.4818,0,42,42,9,1,10,image/10.jpg,0,0,,R_59nXN3KJnjYkf8b,2,2024-05-10_20h40.49.992,face trait task,2021.2.3,Win32,60.24096386,121562,,,,,,,
,,,,,,2.995000076,1.1672,space,0.4065,0,43,43,48,1,49,image/49.jpg,0,0,,R_59nXN3KJnjYkf8b,2,2024-05-10_20h40.49.992,face trait task,2021.2.3,Win32,60.24096386,121562,,,,,,,
,,,,,,2.995000076,1.1681,space,0.4446,0,44,44,45,1,46,image/46.jpg,0,0,,R_59nXN3KJnjYkf8b,2,2024-05-10_20h40.49.992,face trait task,2021.2.3,Win32,60.24096386,121562,,,,,,,
,,,,,,2.995000076,1.2334,space,0.7121,0,45,45,44,1,45,image/45.jpg,0,0,,R_59nXN3KJnjYkf8b,2,2024-05-10_20h40.49.992,face trait task,2021.2.3,Win32,60.24096386,121562,,,,,,,
,,,,,,2.995000076,1.2467,space,0.612,0,46,46,1,1,2,image/2.jpg,0,0,,R_59nXN3KJnjYkf8b,2,2024-05-10_20h40.49.992,face trait task,2021.2.3,Win32,60.24096386,121562,,,,,,,
,,,,,,2.995000076,1.2043,space,0.3589,0,47,47,42,1,43,image/43.jpg,0,0,,R_59nXN3KJnjYkf8b,2,2024-05-10_20h40.49.992,face trait task,2021.2.3,Win32,60.24096386,121562,,,,,,,
,,,,,,2.995000076,1.1216,space,0.3191,0,48,48,41,1,42,image/42.jpg,0,0,,R_59nXN3KJnjYkf8b,2,2024-05-10_20h40.49.992,face trait task,2021.2.3,Win32,60.24096386,121562,,,,,,,
,,,,,,2.995000076,1.0926,space,0.3016,0,49,49,4,1,5,image/5.jpg,0,0,,R_59nXN3KJnjYkf8b,2,2024-05-10_20h40.49.992,face trait task,2021.2.3,Win32,60.24096386,121562,,,,,,,
,,,,,,2.995000076,1.1316,space,0.2879,0,50,50,12,1,13,image/13.jpg,0,0,,R_59nXN3KJnjYkf8b,2,2024-05-10_20h40.49.992,face trait task,2021.2.3,Win32,60.24096386,121562,,,,,,,
,,,,,,2.995000076,1.1409,space,0.3169,0,51,51,36,1,37,image/37.jpg,0,0,,R_59nXN3KJnjYkf8b,2,2024-05-10_20h40.49.992,face trait task,2021.2.3,Win32,60.24096386,121562,,,,,,,
,,,,,,2.995000076,1.0987,space,0.5603,0,52,52,2,1,3,image/3.jpg,0,0,,R_59nXN3KJnjYkf8b,2,2024-05-10_20h40.49.992,face trait task,2021.2.3,Win32,60.24096386,121562,,,,,,,
,,,,,,,,,,,,,,,,,,,,R_59nXN3KJnjYkf8b,2,2024-05-10_20h40.49.992,face trait task,2021.2.3,Win32,60.24096386,121562,0,1,1,3,1,3,friendly.png
,,,,,critical,6.995000458,4.4045,space,0.4557,0,0,0,21,1,22,image/22.jpg,0,0,,R_59nXN3KJnjYkf8b,2,2024-05-10_20h40.49.992,face trait task,2021.2.3,Win32,60.24096386,121562,,,,,,,
,,,,,,5.984999847,3.1077,space,0.6741,0,1,1,10,1,11,image/11.jpg,0,0,,R_59nXN3KJnjYkf8b,2,2024-05-10_20h40.49.992,face trait task,2021.2.3,Win32,60.24096386,121562,,,,,,,
,,,,,,5.010000229,3.2706,space,0.8888,0,2,2,46,1,47,image/47.jpg,0,0,,R_59nXN3KJnjYkf8b,2,2024-05-10_20h40.49.992,face trait task,2021.2.3,Win32,60.24096386,121562,,,,,,,
,,,,,,5.734999847,3.2815,space,0.4641,0,3,3,14,1,15,image/15.jpg,0,0,,R_59nXN3KJnjYkf8b,2,2024-05-10_20h40.49.992,face trait task,2021.2.3,Win32,60.24096386,121562,,,,,,,
,,,,,,4.025,3.0322,space,0.5712,0,4,4,8,1,9,image/9.jpg,0,0,,R_59nXN3KJnjYkf8b,2,2024-05-10_20h40.49.992,face trait task,2021.2.3,Win32,60.24096386,121562,,,,,,,
,,,,,,4,3.1991,space,0.3388,0,5,5,23,1,24,image/24.jpg,0,0,,R_59nXN3KJnjYkf8b,2,2024-05-10_20h40.49.992,face trait task,2021.2.3,Win32,60.24096386,121562,,,,,,,
,,,,,,1.014999962,3.8848,space,0.4213,0,6,6,50,1,54,image/fill_img.png,1,1,Please move the slider all the way to the LEFT to show that you are paying attention.,R_59nXN3KJnjYkf8b,2,2024-05-10_20h40.49.992,face trait task,2021.2.3,Win32,60.24096386,121562,,,,,,,
,,,,,,2.990000153,3.7325,space,0.3853,0,7,7,26,1,27,image/27.jpg,0,0,,R_59nXN3KJnjYkf8b,2,2024-05-10_20h40.49.992,face trait task,2021.2.3,Win32,60.24096386,121562,,,,,,,
,,,,,,1.020000076,6.2232,space,5.2138,0,8,8,48,1,49,image/49.jpg,0,0,,R_59nXN3KJnjYkf8b,2,2024-05-10_20h40.49.992,face trait task,2021.2.3,Win32,60.24096386,121562,,,,,,,
,,,,,,6.984999847,3.8092,space,0.4525,0,9,9,27,1,28,image/28.jpg,0,0,,R_59nXN3KJnjYkf8b,2,2024-05-10_20h40.49.992,face trait task,2021.2.3,Win32,60.24096386,121562,,,,,,,
,,,,,,5.35,5.1213,space,2.0103,0,10,10,6,1,7,image/7.jpg,0,0,,R_59nXN3KJnjYkf8b,2,2024-05-10_20h40.49.992,face trait task,2021.2.3,Win32,60.24096386,121562,,,,,,,
,,,,,,4.504999924,3.6763,space,0.4861,0,11,11,49,1,50,image/50.jpg,0,0,,R_59nXN3KJnjYkf8b,2,2024-05-10_20h40.49.992,face trait task,2021.2.3,Win32,60.24096386,121562,,,,,,,
,,,,,,5.715000153,6.3605,space,0.5299,0,12,12,0,1,1,image/1.jpg,0,0,,R_59nXN3KJnjYkf8b,2,2024-05-10_20h40.49.992,face trait task,2021.2.3,Win32,60.24096386,121562,,,,,,,
,,,,,,4.035000229,2.4814,space,0.3565,0,13,13,13,1,14,image/14.jpg,0,0,,R_59nXN3KJnjYkf8b,2,2024-05-10_20h40.49.992,face trait task,2021.2.3,Win32,60.24096386,121562,,,,,,,
,,,,,,4.035000229,1.2313,space,0.328,0,14,14,1,1,2,image/2.jpg,0,0,,R_59nXN3KJnjYkf8b,2,2024-05-10_20h40.49.992,face trait task,2021.2.3,Win32,60.24096386,121562,,,,,,,
,,,,,,4.035000229,1.1245,space,0.1947,0,15,15,47,1,48,image/48.jpg,0,0,,R_59nXN3KJnjYkf8b,2,2024-05-10_20h40.49.992,face trait task,2021.2.3,Win32,60.24096386,121562,,,,,,,
,,,,,,3.970000076,1.7698,space,0.3701,0,16,16,31,1,32,image/32.jpg,0,0,,R_59nXN3KJnjYkf8b,2,2024-05-10_20h40.49.992,face trait task,2021.2.3,Win32,60.24096386,121562,,,,,,,
,,,,,,3.970000076,1.2655,space,0.8764,0,17,17,41,1,42,image/42.jpg,0,0,,R_59nXN3KJnjYkf8b,2,2024-05-10_20h40.49.992,face trait task,2021.2.3,Win32,60.24096386,121562,,,,,,,
,,,,,,3.970000076,1.2154,space,0.913,0,18,18,9,1,10,image/10.jpg,0,0,,R_59nXN3KJnjYkf8b,2,2024-05-10_20h40.49.992,face trait task,2021.2.3,Win32,60.24096386,121562,,,,,,,
,,,,,,3.970000076,1.1667,space,0.8451,0,19,19,29,1,30,image/30.jpg,0,0,,R_59nXN3KJnjYkf8b,2,2024-05-10_20h40.49.992,face trait task,2021.2.3,Win32,60.24096386,121562,,,,,,,
,,,,,,3.970000076,1.318,space,0.7398,0,20,20,24,1,25,image/25.jpg,0,0,,R_59nXN3KJnjYkf8b,2,2024-05-10_20h40.49.992,face trait task,2021.2.3,Win32,60.24096386,121562,,,,,,,
,,,,,,3.970000076,1.318,space,1.327,0,21,21,15,1,16,image/16.jpg,0,0,,R_59nXN3KJnjYkf8b,2,2024-05-10_20h40.49.992,face trait task,2021.2.3,Win32,60.24096386,121562,,,,,,,
,,,,,,3.970000076,0.7195,space,1.0801,0,22,22,16,1,17,image/17.jpg,0,0,,R_59nXN3KJnjYkf8b,2,2024-05-10_20h40.49.992,face trait task,2021.2.3,Win32,60.24096386,121562,,,,,,,
,,,,,,3.970000076,0.7845,space,1.313,0,23,23,32,1,33,image/33.jpg,0,0,,R_59nXN3KJnjYkf8b,2,2024-05-10_20h40.49.992,face trait task,2021.2.3,Win32,60.24096386,121562,,,,,,,
,,,,,,3.970000076,0.9567,space,1.1501,0,24,24,39,1,40,image/40.jpg,0,0,,R_59nXN3KJnjYkf8b,2,2024-05-10_20h40.49.992,face trait task,2021.2.3,Win32,60.24096386,121562,,,,,,,
,,,,,,3.970000076,1.5155,space,0.5092,0,25,25,30,1,31,image/31.jpg,0,0,,R_59nXN3KJnjYkf8b,2,2024-05-10_20h40.49.992,face trait task,2021.2.3,Win32,60.24096386,121562,,,,,,,
,,,,,,3.985000229,4.0066,space,1.0103,0,26,26,36,1,37,image/37.jpg,0,0,,R_59nXN3KJnjYkf8b,2,2024-05-10_20h40.49.992,face trait task,2021.2.3,Win32,60.24096386,121562,,,,,,,
,,,,,,3.985000229,1.0481,space,1.2608,0,27,27,18,1,19,image/19.jpg,0,0,,R_59nXN3KJnjYkf8b,2,2024-05-10_20h40.49.992,face trait task,2021.2.3,Win32,60.24096386,121562,,,,,,,
,,,,,,3.985000229,1.5599,space,0.44,0,28,28,42,1,43,image/43.jpg,0,0,,R_59nXN3KJnjYkf8b,2,2024-05-10_20h40.49.992,face trait task,2021.2.3,Win32,60.24096386,121562,,,,,,,
,,,,,,3.985000229,1.5973,space,0.83,0,29,29,20,1,21,image/21.jpg,0,0,,R_59nXN3KJnjYkf8b,2,2024-05-10_20h40.49.992,face trait task,2021.2.3,Win32,60.24096386,121562,,,,,,,
,,,,,,3.985000229,0.7054,space,1.1217,0,30,30,4,1,5,image/5.jpg,0,0,,R_59nXN3KJnjYkf8b,2,2024-05-10_20h40.49.992,face trait task,2021.2.3,Win32,60.24096386,121562,,,,,,,
,,,,,,3.985000229,1.2705,space,1.1545,0,31,31,11,1,12,image/12.jpg,0,0,,R_59nXN3KJnjYkf8b,2,2024-05-10_20h40.49.992,face trait task,2021.2.3,Win32,60.24096386,121562,,,,,,,
,,,,,,3.985000229,1.7092,space,1.0735,0,32,32,38,1,39,image/39.jpg,0,0,,R_59nXN3KJnjYkf8b,2,2024-05-10_20h40.49.992,face trait task,2021.2.3,Win32,60.24096386,121562,,,,,,,
,,,,,,3.985000229,1.2599,space,0.6282,0,33,33,44,1,45,image/45.jpg,0,0,,R_59nXN3KJnjYkf8b,2,2024-05-10_20h40.49.992,face trait task,2021.2.3,Win32,60.24096386,121562,,,,,,,
,,,,,,3.985000229,1.9888,space,0.8191,0,34,34,25,1,26,image/26.jpg,0,0,,R_59nXN3KJnjYkf8b,2,2024-05-10_20h40.49.992,face trait task,2021.2.3,Win32,60.24096386,121562,,,,,,,
,,,,,,3.985000229,1.2648,space,0.7738,0,35,35,3,1,4,image/4.jpg,0,0,,R_59nXN3KJnjYkf8b,2,2024-05-10_20h40.49.992,face trait task,2021.2.3,Win32,60.24096386,121562,,,,,,,
,,,,,,3.985000229,0.6623,space,0.913,0,36,36,37,1,38,image/38.jpg,0,0,,R_59nXN3KJnjYkf8b,2,2024-05-10_20h40.49.992,face trait task,2021.2.3,Win32,60.24096386,121562,,,,,,,
,,,,,,3.985000229,1.1819,space,0.6988,0,37,37,7,1,8,image/8.jpg,0,0,,R_59nXN3KJnjYkf8b,2,2024-05-10_20h40.49.992,face trait task,2021.2.3,Win32,60.24096386,121562,,,,,,,
,,,,,,3.985000229,1.0984,space,0.7088,0,38,38,28,1,29,image/29.jpg,0,0,,R_59nXN3KJnjYkf8b,2,2024-05-10_20h40.49.992,face trait task,2021.2.3,Win32,60.24096386,121562,,,,,,,
,,,,,,3.985000229,1.0893,space,0.812,0,39,39,22,1,23,image/23.jpg,0,0,,R_59nXN3KJnjYkf8b,2,2024-05-10_20h40.49.992,face trait task,2021.2.3,Win32,60.24096386,121562,,,,,,,
,,,,,,3.985000229,1.0785,space,1.1707,0,40,40,5,1,6,image/6.jpg,0,0,,R_59nXN3KJnjYkf8b,2,2024-05-10_20h40.49.992,face trait task,2021.2.3,Win32,60.24096386,121562,,,,,,,
,,,,,,3.985000229,1.9804,space,0.5809,0,41,41,19,1,20,image/20.jpg,0,0,,R_59nXN3KJnjYkf8b,2,2024-05-10_20h40.49.992,face trait task,2021.2.3,Win32,60.24096386,121562,,,,,,,
,,,,,,3.985000229,1.1981,space,0.9278,0,42,42,2,1,3,image/3.jpg,0,0,,R_59nXN3KJnjYkf8b,2,2024-05-10_20h40.49.992,face trait task,2021.2.3,Win32,60.24096386,121562,,,,,,,
,,,,,,3.985000229,0.688,space,0.9416,0,43,43,40,1,41,image/41.jpg,0,0,,R_59nXN3KJnjYkf8b,2,2024-05-10_20h40.49.992,face trait task,2021.2.3,Win32,60.24096386,121562,,,,,,,
,,,,,,3.985000229,1.2167,space,0.7407,0,44,44,43,1,44,image/44.jpg,0,0,,R_59nXN3KJnjYkf8b,2,2024-05-10_20h40.49.992,face trait task,2021.2.3,Win32,60.24096386,121562,,,,,,,
,,,,,,1.005000114,2.5637,space,0.4734,0,45,45,52,1,54,image/fill_img.png,1,1,Please move the slider all the way to the LEFT to show that you are paying attention.,R_59nXN3KJnjYkf8b,2,2024-05-10_20h40.49.992,face trait task,2021.2.3,Win32,60.24096386,121562,,,,,,,
,,,,,,3.965000153,3.1674,space,0.5393,0,46,46,33,1,34,image/34.jpg,0,0,,R_59nXN3KJnjYkf8b,2,2024-05-10_20h40.49.992,face trait task,2021.2.3,Win32,60.24096386,121562,,,,,,,
,,,,,,3.995000076,1.6854,space,0.4422,0,47,47,45,1,46,image/46.jpg,0,0,,R_59nXN3KJnjYkf8b,2,2024-05-10_20h40.49.992,face trait task,2021.2.3,Win32,60.24096386,121562,,,,,,,
,,,,,,3.995000076,1.0824,space,0.9376,0,48,48,34,1,35,image/35.jpg,0,0,,R_59nXN3KJnjYkf8b,2,2024-05-10_20h40.49.992,face trait task,2021.2.3,Win32,60.24096386,121562,,,,,,,
,,,,,,7,6.7974,space,4.3727,0,49,49,51,1,59,image/fill_img.png,1,7,Please move the slider all the way to the RIGHT to show that you are paying attention.,R_59nXN3KJnjYkf8b,2,2024-05-10_20h40.49.992,face trait task,2021.2.3,Win32,60.24096386,121562,,,,,,,
,,,,,,4.004999924,2.182,space,0.8732,0,50,50,17,1,18,image/18.jpg,0,0,,R_59nXN3KJnjYkf8b,2,2024-05-10_20h40.49.992,face trait task,2021.2.3,Win32,60.24096386,121562,,,,,,,
,,,,,,4.004999924,1.1462,space,0.4761,0,51,51,12,1,13,image/13.jpg,0,0,,R_59nXN3KJnjYkf8b,2,2024-05-10_20h40.49.992,face trait task,2021.2.3,Win32,60.24096386,121562,,,,,,,
,,,,,,4.004999924,1.1165,space,0.7067,0,52,52,35,1,36,image/36.jpg,0,0,,R_59nXN3KJnjYkf8b,2,2024-05-10_20h40.49.992,face trait task,2021.2.3,Win32,60.24096386,121562,,,,,,,
,,,,,,,,,,,,,,,,,,,,R_59nXN3KJnjYkf8b,2,2024-05-10_20h40.49.992,face trait task,2021.2.3,Win32,60.24096386,121562,0,2,2,0,1,0,critical.png
,,,,,trustworthy,3.029999924,2.0727,space,0.7137,0,0,0,12,1,13,image/13.jpg,0,0,,R_59nXN3KJnjYkf8b,2,2024-05-10_20h40.49.992,face trait task,2021.2.3,Win32,60.24096386,121562,,,,,,,
,,,,,,3.029999924,1.447,space,0.1836,0,1,1,21,1,22,image/22.jpg,0,0,,R_59nXN3KJnjYkf8b,2,2024-05-10_20h40.49.992,face trait task,2021.2.3,Win32,60.24096386,121562,,,,,,,
,,,,,,3.029999924,1.1939,space,1.0834,0,2,2,10,1,11,image/11.jpg,0,0,,R_59nXN3KJnjYkf8b,2,2024-05-10_20h40.49.992,face trait task,2021.2.3,Win32,60.24096386,121562,,,,,,,
,,,,,,3.029999924,1.9265,space,1.0389,0,3,3,8,1,9,image/9.jpg,0,0,,R_59nXN3KJnjYkf8b,2,2024-05-10_20h40.49.992,face trait task,2021.2.3,Win32,60.24096386,121562,,,,,,,
,,,,,,3.029999924,1.5332,space,0.7322,0,4,4,25,1,26,image/26.jpg,0,0,,R_59nXN3KJnjYkf8b,2,2024-05-10_20h40.49.992,face trait task,2021.2.3,Win32,60.24096386,121562,,,,,,,
,,,,,,1,5.3966,space,1.305,0,5,5,52,1,54,image/fill_img.png,1,1,Please move the slider all the way to the LEFT to show that you are paying attention.,R_59nXN3KJnjYkf8b,2,2024-05-10_20h40.49.992,face trait task,2021.2.3,Win32,60.24096386,121562,,,,,,,
,,,,,,2.954999924,4.1209,space,0.4808,0,6,6,19,1,20,image/20.jpg,0,0,,R_59nXN3KJnjYkf8b,2,2024-05-10_20h40.49.992,face trait task,2021.2.3,Win32,60.24096386,121562,,,,,,,
,,,,,,2.954999924,1.2699,space,0.4294,0,7,7,4,1,5,image/5.jpg,0,0,,R_59nXN3KJnjYkf8b,2,2024-05-10_20h40.49.992,face trait task,2021.2.3,Win32,60.24096386,121562,,,,,,,
,,,,,,2.954999924,1.2192,space,0.4502,0,8,8,14,1,15,image/15.jpg,0,0,,R_59nXN3KJnjYkf8b,2,2024-05-10_20h40.49.992,face trait task,2021.2.3,Win32,60.24096386,121562,,,,,,,
,,,,,,2.954999924,0.6999,space,0.7115,0,9,9,35,1,36,image/36.jpg,0,0,,R_59nXN3KJnjYkf8b,2,2024-05-10_20h40.49.992,face trait task,2021.2.3,Win32,60.24096386,121562,,,,,,,
,,,,,,2.954999924,0.9883,space,0.4026,0,10,10,9,1,10,image/10.jpg,0,0,,R_59nXN3KJnjYkf8b,2,2024-05-10_20h40.49.992,face trait task,2021.2.3,Win32,60.24096386,121562,,,,,,,
,,,,,,2.954999924,0.6792,space,0.6564,0,11,11,39,1,40,image/40.jpg,0,0,,R_59nXN3KJnjYkf8b,2,2024-05-10_20h40.49.992,face trait task,2021.2.3,Win32,60.24096386,121562,,,,,,,
,,,,,,2.954999924,0.6805,space,0.5582,0,12,12,27,1,28,image/28.jpg,0,0,,R_59nXN3KJnjYkf8b,2,2024-05-10_20h40.49.992,face trait task,2021.2.3,Win32,60.24096386,121562,,,,,,,
,,,,,,2.954999924,1.446,space,0.3253,0,13,13,5,1,6,image/6.jpg,0,0,,R_59nXN3KJnjYkf8b,2,2024-05-10_20h40.49.992,face trait task,2021.2.3,Win32,60.24096386,121562,,,,,,,
,,,,,,2.954999924,0.8844,space,0.4128,0,14,14,17,1,18,image/18.jpg,0,0,,R_59nXN3KJnjYkf8b,2,2024-05-10_20h40.49.992,face trait task,2021.2.3,Win32,60.24096386,121562,,,,,,,
,,,,,,2.954999924,1.2344,space,0.3945,0,15,15,29,1,30,image/30.jpg,0,0,,R_59nXN3KJnjYkf8b,2,2024-05-10_20h40.49.992,face trait task,2021.2.3,Win32,60.24096386,121562,,,,,,,
,,,,,,2.954999924,1.1579,space,0.3589,0,16,16,15,1,16,image/16.jpg,0,0,,R_59nXN3KJnjYkf8b,2,2024-05-10_20h40.49.992,face trait task,2021.2.3,Win32,60.24096386,121562,,,,,,,
,,,,,,2.954999924,0.7813,space,0.4342,0,17,17,23,1,24,image/24.jpg,0,0,,R_59nXN3KJnjYkf8b,2,2024-05-10_20h40.49.992,face trait task,2021.2.3,Win32,60.24096386,121562,,,,,,,
,,,,,,2.954999924,0.6198,space,0.2356,0,18,18,6,1,7,image/7.jpg,0,0,,R_59nXN3KJnjYkf8b,2,2024-05-10_20h40.49.992,face trait task,2021.2.3,Win32,60.24096386,121562,,,,,,,
,,,,,,2.954999924,1.0643,space,0.3247,0,19,19,30,1,31,image/31.jpg,0,0,,R_59nXN3KJnjYkf8b,2,2024-05-10_20h40.49.992,face trait task,2021.2.3,Win32,60.24096386,121562,,,,,,,
,,,,,,2.954999924,1.1517,space,0.4235,0,20,20,24,1,25,image/25.jpg,0,0,,R_59nXN3KJnjYkf8b,2,2024-05-10_20h40.49.992,face trait task,2021.2.3,Win32,60.24096386,121562,,,,,,,
,,,,,,2.954999924,1.2305,space,0.4639,0,21,21,26,1,27,image/27.jpg,0,0,,R_59nXN3KJnjYkf8b,2,2024-05-10_20h40.49.992,face trait task,2021.2.3,Win32,60.24096386,121562,,,,,,,
,,,,,,2.954999924,1.1409,space,0.4708,0,22,22,22,1,23,image/23.jpg,0,0,,R_59nXN3KJnjYkf8b,2,2024-05-10_20h40.49.992,face trait task,2021.2.3,Win32,60.24096386,121562,,,,,,,
,,,,,,2.954999924,1.2352,space,0.5098,0,23,23,2,1,3,image/3.jpg,0,0,,R_59nXN3KJnjYkf8b,2,2024-05-10_20h40.49.992,face trait task,2021.2.3,Win32,60.24096386,121562,,,,,,,
,,,,,,2.954999924,1.2153,space,0.4173,0,24,24,18,1,19,image/19.jpg,0,0,,R_59nXN3KJnjYkf8b,2,2024-05-10_20h40.49.992,face trait task,2021.2.3,Win32,60.24096386,121562,,,,,,,
,,,,,,2.954999924,0.6848,space,0.6425,0,25,25,11,1,12,image/12.jpg,0,0,,R_59nXN3KJnjYkf8b,2,2024-05-10_20h40.49.992,face trait task,2021.2.3,Win32,60.24096386,121562,,,,,,,
,,,,,,2.954999924,1.1013,space,0.5129,0,26,26,49,1,50,image/50.jpg,0,0,,R_59nXN3KJnjYkf8b,2,2024-05-10_20h40.49.992,face trait task,2021.2.3,Win32,60.24096386,121562,,,,,,,
,,,,,,2.954999924,0.9103,space,0.4106,0,27,27,38,1,39,image/39.jpg,0,0,,R_59nXN3KJnjYkf8b,2,2024-05-10_20h40.49.992,face trait task,2021.2.3,Win32,60.24096386,121562,,,,,,,
,,,,,,2.954999924,0.694,space,0.4821,0,28,28,20,1,21,image/21.jpg,0,0,,R_59nXN3KJnjYkf8b,2,2024-05-10_20h40.49.992,face trait task,2021.2.3,Win32,60.24096386,121562,,,,,,,
,,,,,,2.954999924,0.843,space,0.4148,0,29,29,31,1,32,image/32.jpg,0,0,,R_59nXN3KJnjYkf8b,2,2024-05-10_20h40.49.992,face trait task,2021.2.3,Win32,60.24096386,121562,,,,,,,
,,,,,,2.954999924,1.2386,space,0.3965,0,30,30,13,1,14,image/14.jpg,0,0,,R_59nXN3KJnjYkf8b,2,2024-05-10_20h40.49.992,face trait task,2021.2.3,Win32,60.24096386,121562,,,,,,,
,,,,,,2.954999924,1.142,space,0.4195,0,31,31,32,1,33,image/33.jpg,0,0,,R_59nXN3KJnjYkf8b,2,2024-05-10_20h40.49.992,face trait task,2021.2.3,Win32,60.24096386,121562,,,,,,,
,,,,,,2.954999924,1.1604,space,0.3309,0,32,32,16,1,17,image/17.jpg,0,0,,R_59nXN3KJnjYkf8b,2,2024-05-10_20h40.49.992,face trait task,2021.2.3,Win32,60.24096386,121562,,,,,,,
,,,,,,2.954999924,1.0459,space,0.3857,0,33,33,34,1,35,image/35.jpg,0,0,,R_59nXN3KJnjYkf8b,2,2024-05-10_20h40.49.992,face trait task,2021.2.3,Win32,60.24096386,121562,,,,,,,
,,,,,,2.954999924,0.6838,space,0.5348,0,34,34,33,1,34,image/34.jpg,0,0,,R_59nXN3KJnjYkf8b,2,2024-05-10_20h40.49.992,face trait task,2021.2.3,Win32,60.24096386,121562,,,,,,,
,,,,,,2.954999924,1.0339,space,0.5,0,35,35,42,1,43,image/43.jpg,0,0,,R_59nXN3KJnjYkf8b,2,2024-05-10_20h40.49.992,face trait task,2021.2.3,Win32,60.24096386,121562,,,,,,,
,,,,,,2.954999924,1.0655,space,0.337,0,36,36,48,1,49,image/49.jpg,0,0,,R_59nXN3KJnjYkf8b,2,2024-05-10_20h40.49.992,face trait task,2021.2.3,Win32,60.24096386,121562,,,,,,,
,,,,,,2.954999924,0.9277,space,0.8637,0,37,37,36,1,37,image/37.jpg,0,0,,R_59nXN3KJnjYkf8b,2,2024-05-10_20h40.49.992,face trait task,2021.2.3,Win32,60.24096386,121562,,,,,,,
,,,,,,2.954999924,0.9706,space,0.4124,0,38,38,43,1,44,image/44.jpg,0,0,,R_59nXN3KJnjYkf8b,2,2024-05-10_20h40.49.992,face trait task,2021.2.3,Win32,60.24096386,121562,,,,,,,
,,,,,,2.954999924,1.2526,space,0.3093,0,39,39,40,1,41,image/41.jpg,0,0,,R_59nXN3KJnjYkf8b,2,2024-05-10_20h40.49.992,face trait task,2021.2.3,Win32,60.24096386,121562,,,,,,,
,,,,,,2.954999924,1.1349,space,0.383,0,40,40,0,1,1,image/1.jpg,0,0,,R_59nXN3KJnjYkf8b,2,2024-05-10_20h40.49.992,face trait task,2021.2.3,Win32,60.24096386,121562,,,,,,,
,,,,,,2.954999924,1.2345,space,0.4713,0,41,41,45,1,46,image/46.jpg,0,0,,R_59nXN3KJnjYkf8b,2,2024-05-10_20h40.49.992,face trait task,2021.2.3,Win32,60.24096386,121562,,,,,,,
,,,,,,2.954999924,1.1989,space,0.3579,0,42,42,28,1,29,image/29.jpg,0,0,,R_59nXN3KJnjYkf8b,2,2024-05-10_20h40.49.992,face trait task,2021.2.3,Win32,60.24096386,121562,,,,,,,
,,,,,,2.954999924,0.8279,space,0.468,0,43,43,46,1,47,image/47.jpg,0,0,,R_59nXN3KJnjYkf8b,2,2024-05-10_20h40.49.992,face trait task,2021.2.3,Win32,60.24096386,121562,,,,,,,
,,,,,,2.954999924,0.9427,space,0.3565,0,44,44,37,1,38,image/38.jpg,0,0,,R_59nXN3KJnjYkf8b,2,2024-05-10_20h40.49.992,face trait task,2021.2.3,Win32,60.24096386,121562,,,,,,,
,,,,,,2.954999924,0.6776,space,0.6409,0,45,45,44,1,45,image/45.jpg,0,0,,R_59nXN3KJnjYkf8b,2,2024-05-10_20h40.49.992,face trait task,2021.2.3,Win32,60.24096386,121562,,,,,,,
,,,,,,2.954999924,1.1935,space,0.3754,0,46,46,7,1,8,image/8.jpg,0,0,,R_59nXN3KJnjYkf8b,2,2024-05-10_20h40.49.992,face trait task,2021.2.3,Win32,60.24096386,121562,,,,,,,
,,,,,,2.954999924,1.1907,space,0.3377,0,47,47,47,1,48,image/48.jpg,0,0,,R_59nXN3KJnjYkf8b,2,2024-05-10_20h40.49.992,face trait task,2021.2.3,Win32,60.24096386,121562,,,,,,,
,,,,,,2.954999924,1.2955,space,0.3449,0,48,48,3,1,4,image/4.jpg,0,0,,R_59nXN3KJnjYkf8b,2,2024-05-10_20h40.49.992,face trait task,2021.2.3,Win32,60.24096386,121562,,,,,,,
,,,,,,2.954999924,1.1595,space,0.2731,0,49,49,1,1,2,image/2.jpg,0,0,,R_59nXN3KJnjYkf8b,2,2024-05-10_20h40.49.992,face trait task,2021.2.3,Win32,60.24096386,121562,,,,,,,
,,,,,,2.954999924,1.2075,space,0.3293,0,50,50,41,1,42,image/42.jpg,0,0,,R_59nXN3KJnjYkf8b,2,2024-05-10_20h40.49.992,face trait task,2021.2.3,Win32,60.24096386,121562,,,,,,,
,,,,,,7,7.9121,space,3.6708,0,51,51,51,1,59,image/fill_img.png,1,7,Please move the slider all the way to the RIGHT to show that you are paying attention.,R_59nXN3KJnjYkf8b,2,2024-05-10_20h40.49.992,face trait task,2021.2.3,Win32,60.24096386,121562,,,,,,,
,,,,,,1,5.1702,space,1.5932,0,52,52,50,1,54,image/fill_img.png,1,1,Please move the slider all the way to the LEFT to show that you are paying attention.,R_59nXN3KJnjYkf8b,2,2024-05-10_20h40.49.992,face trait task,2021.2.3,Win32,60.24096386,121562,,,,,,,
,,,,,,,,,,,,,,,,,,,,R_59nXN3KJnjYkf8b,2,2024-05-10_20h40.49.992,face trait task,2021.2.3,Win32,60.24096386,121562,0,3,3,2,1,2,trustworthy.png
