choose_trial,key_resp.keys,key_resp.rt,key_resp_4.keys,key_resp_4.rt,session_trait,slider_face_judge.response,slider_face_judge.rt,key_resp_3.keys,key_resp_3.rt,face_loop.thisRepN,face_loop.thisTrialN,face_loop.thisN,face_loop.thisIndex,face_loop.ran,face_serial,image_name,isCheck,answer,check_question,participant,session,date,expName,psychopyVersion,OS,frameRate,SONAid,session.thisRepN,session.thisTrialN,session.thisN,session.thisIndex,session.ran,session_serial,slider_judge_img
"[0,1,2,3,4,5,6,7,8,9,10,11,12,13,14,15,16,17,18,19,20,21,22,23,24,25,26,27,28,29,30,31,32,33,34,35,36,37,38,39,40,41,42,43,44,45,46,47,48,49,59,54,55]",space,9.4625,space,19.4024,critical,3.995442708,13.3029,space,1.0623,0,0,0,26,1,27,image/27.jpg,0,0,,R_5BbMyj9NaP7q9xv,2,2024-05-30_17h46.44.472,face trait task,2021.2.3,MacIntel,60.24096386,120749,,,,,,,
,,,,,,3.995078125,7.642,space,0.6212,0,1,1,21,1,22,image/22.jpg,0,0,,R_5BbMyj9NaP7q9xv,2,2024-05-30_17h46.44.472,face trait task,2021.2.3,MacIntel,60.24096386,120749,,,,,,,
,,,,,,4.982838542,3.8087,space,0.5219,0,2,2,27,1,28,image/28.jpg,0,0,,R_5BbMyj9NaP7q9xv,2,2024-05-30_17h46.44.472,face trait task,2021.2.3,MacIntel,60.24096386,120749,,,,,,,
,,,,,,3.01640625,4.6252,space,0.4892,0,3,3,6,1,7,image/7.jpg,0,0,,R_5BbMyj9NaP7q9xv,2,2024-05-30_17h46.44.472,face trait task,2021.2.3,MacIntel,60.24096386,120749,,,,,,,
,,,,,,2.035494792,5.7458,space,2.857,0,4,4,17,1,18,image/18.jpg,0,0,,R_5BbMyj9NaP7q9xv,2,2024-05-30_17h46.44.472,face trait task,2021.2.3,MacIntel,60.24096386,120749,,,,,,,
,,,,,,5.019713542,2.1317,space,0.5006,0,5,5,48,1,49,image/49.jpg,0,0,,R_5BbMyj9NaP7q9xv,2,2024-05-30_17h46.44.472,face trait task,2021.2.3,MacIntel,60.24096386,120749,,,,,,,
,,,,,,1.9984375,3.3802,space,0.412,0,6,6,15,1,16,image/16.jpg,0,0,,R_5BbMyj9NaP7q9xv,2,2024-05-30_17h46.44.472,face trait task,2021.2.3,MacIntel,60.24096386,120749,,,,,,,
,,,,,,3.011822917,3.5764,space,0.3604,0,7,7,23,1,24,image/24.jpg,0,0,,R_5BbMyj9NaP7q9xv,2,2024-05-30_17h46.44.472,face trait task,2021.2.3,MacIntel,60.24096386,120749,,,,,,,
,,,,,,3.960182292,4.5812,space,2.1715,0,8,8,35,1,36,image/36.jpg,0,0,,R_5BbMyj9NaP7q9xv,2,2024-05-30_17h46.44.472,face trait task,2021.2.3,MacIntel,60.24096386,120749,,,,,,,
,,,,,,1.029010417,5.9939,space,1.6546,0,9,9,51,1,55,image/fill_img.png,1,1,Please move the slider all the way to the LEFT to show that you are paying attention.,R_5BbMyj9NaP7q9xv,2,2024-05-30_17h46.44.472,face trait task,2021.2.3,MacIntel,60.24096386,120749,,,,,,,
,,,,,,6.948697917,2.5269,space,0.5843,0,10,10,50,1,60,image/fill_img.png,1,7,Please move the slider all the way to the RIGHT to show that you are paying attention.,R_5BbMyj9NaP7q9xv,2,2024-05-30_17h46.44.472,face trait task,2021.2.3,MacIntel,60.24096386,120749,,,,,,,
,,,,,,4.552317708,4.2283,space,1.6672,0,11,11,13,1,14,image/14.jpg,0,0,,R_5BbMyj9NaP7q9xv,2,2024-05-30_17h46.44.472,face trait task,2021.2.3,MacIntel,60.24096386,120749,,,,,,,
,,,,,,3.767005208,2.7613,space,0.451,0,12,12,47,1,48,image/48.jpg,0,0,,R_5BbMyj9NaP7q9xv,2,2024-05-30_17h46.44.472,face trait task,2021.2.3,MacIntel,60.24096386,120749,,,,,,,
,,,,,,4.016666667,3.1125,space,0.2357,0,13,13,7,1,8,image/8.jpg,0,0,,R_5BbMyj9NaP7q9xv,2,2024-05-30_17h46.44.472,face trait task,2021.2.3,MacIntel,60.24096386,120749,,,,,,,
,,,,,,2.607057292,2.9303,space,0.3216,0,14,14,20,1,21,image/21.jpg,0,0,,R_5BbMyj9NaP7q9xv,2,2024-05-30_17h46.44.472,face trait task,2021.2.3,MacIntel,60.24096386,120749,,,,,,,
,,,,,,4.457213542,3.6805,space,1.396,0,15,15,33,1,34,image/34.jpg,0,0,,R_5BbMyj9NaP7q9xv,2,2024-05-30_17h46.44.472,face trait task,2021.2.3,MacIntel,60.24096386,120749,,,,,,,
,,,,,,4.421875,3.9969,space,0.5539,0,16,16,12,1,13,image/13.jpg,0,0,,R_5BbMyj9NaP7q9xv,2,2024-05-30_17h46.44.472,face trait task,2021.2.3,MacIntel,60.24096386,120749,,,,,,,
,,,,,,3.979947917,3.4286,space,1.089,0,17,17,24,1,25,image/25.jpg,0,0,,R_5BbMyj9NaP7q9xv,2,2024-05-30_17h46.44.472,face trait task,2021.2.3,MacIntel,60.24096386,120749,,,,,,,
,,,,,,4.573229167,4.6418,space,0.3583,0,18,18,19,1,20,image/20.jpg,0,0,,R_5BbMyj9NaP7q9xv,2,2024-05-30_17h46.44.472,face trait task,2021.2.3,MacIntel,60.24096386,120749,,,,,,,
,,,,,,3.436953125,2.4794,space,0.2389,0,19,19,18,1,19,image/19.jpg,0,0,,R_5BbMyj9NaP7q9xv,2,2024-05-30_17h46.44.472,face trait task,2021.2.3,MacIntel,60.24096386,120749,,,,,,,
,,,,,,5.0128125,3.0476,space,0.662,0,20,20,28,1,29,image/29.jpg,0,0,,R_5BbMyj9NaP7q9xv,2,2024-05-30_17h46.44.472,face trait task,2021.2.3,MacIntel,60.24096386,120749,,,,,,,
,,,,,,2.606744792,3.146,space,0.9361,0,21,21,4,1,5,image/5.jpg,0,0,,R_5BbMyj9NaP7q9xv,2,2024-05-30_17h46.44.472,face trait task,2021.2.3,MacIntel,60.24096386,120749,,,,,,,
,,,,,,3.311145833,3.9972,space,1.8808,0,22,22,32,1,33,image/33.jpg,0,0,,R_5BbMyj9NaP7q9xv,2,2024-05-30_17h46.44.472,face trait task,2021.2.3,MacIntel,60.24096386,120749,,,,,,,
,,,,,,3.1884375,1.7132,space,0.1807,0,23,23,34,1,35,image/35.jpg,0,0,,R_5BbMyj9NaP7q9xv,2,2024-05-30_17h46.44.472,face trait task,2021.2.3,MacIntel,60.24096386,120749,,,,,,,
,,,,,,5.413151042,2.147,space,0.6045,0,24,24,8,1,9,image/9.jpg,0,0,,R_5BbMyj9NaP7q9xv,2,2024-05-30_17h46.44.472,face trait task,2021.2.3,MacIntel,60.24096386,120749,,,,,,,
,,,,,,4.372395833,2.8308,space,0.2272,0,25,25,49,1,50,image/50.jpg,0,0,,R_5BbMyj9NaP7q9xv,2,2024-05-30_17h46.44.472,face trait task,2021.2.3,MacIntel,60.24096386,120749,,,,,,,
,,,,,,5.440390625,2.8483,space,0.2952,0,26,26,5,1,6,image/6.jpg,0,0,,R_5BbMyj9NaP7q9xv,2,2024-05-30_17h46.44.472,face trait task,2021.2.3,MacIntel,60.24096386,120749,,,,,,,
,,,,,,5.485104167,4.0626,space,0.3045,0,27,27,1,1,2,image/2.jpg,0,0,,R_5BbMyj9NaP7q9xv,2,2024-05-30_17h46.44.472,face trait task,2021.2.3,MacIntel,60.24096386,120749,,,,,,,
,,,,,,4.605911458,4.2276,space,1.5046,0,28,28,39,1,40,image/40.jpg,0,0,,R_5BbMyj9NaP7q9xv,2,2024-05-30_17h46.44.472,face trait task,2021.2.3,MacIntel,60.24096386,120749,,,,,,,
,,,,,,3.768463542,3.2775,space,0.3834,0,29,29,44,1,45,image/45.jpg,0,0,,R_5BbMyj9NaP7q9xv,2,2024-05-30_17h46.44.472,face trait task,2021.2.3,MacIntel,60.24096386,120749,,,,,,,
,,,,,,2.964270833,4.6581,space,0.3047,0,30,30,10,1,11,image/11.jpg,0,0,,R_5BbMyj9NaP7q9xv,2,2024-05-30_17h46.44.472,face trait task,2021.2.3,MacIntel,60.24096386,120749,,,,,,,
,,,,,,5.644973958,2.0803,space,0.6501,0,31,31,29,1,30,image/30.jpg,0,0,,R_5BbMyj9NaP7q9xv,2,2024-05-30_17h46.44.472,face trait task,2021.2.3,MacIntel,60.24096386,120749,,,,,,,
,,,,,,6.13390625,3.4115,space,0.71,0,32,32,0,1,1,image/1.jpg,0,0,,R_5BbMyj9NaP7q9xv,2,2024-05-30_17h46.44.472,face trait task,2021.2.3,MacIntel,60.24096386,120749,,,,,,,
,,,,,,5.602734375,2.298,space,0.4372,0,33,33,41,1,42,image/42.jpg,0,0,,R_5BbMyj9NaP7q9xv,2,2024-05-30_17h46.44.472,face trait task,2021.2.3,MacIntel,60.24096386,120749,,,,,,,
,,,,,,6.344192708,2.3822,space,0.2842,0,34,34,36,1,37,image/37.jpg,0,0,,R_5BbMyj9NaP7q9xv,2,2024-05-30_17h46.44.472,face trait task,2021.2.3,MacIntel,60.24096386,120749,,,,,,,
,,,,,,3.733828125,2.1633,space,0.3069,0,35,35,37,1,38,image/38.jpg,0,0,,R_5BbMyj9NaP7q9xv,2,2024-05-30_17h46.44.472,face trait task,2021.2.3,MacIntel,60.24096386,120749,,,,,,,
,,,,,,3.195078125,2.4637,space,0.2677,0,36,36,11,1,12,image/12.jpg,0,0,,R_5BbMyj9NaP7q9xv,2,2024-05-30_17h46.44.472,face trait task,2021.2.3,MacIntel,60.24096386,120749,,,,,,,
,,,,,,6.506354167,2.1806,space,0.3516,0,37,37,25,1,26,image/26.jpg,0,0,,R_5BbMyj9NaP7q9xv,2,2024-05-30_17h46.44.472,face trait task,2021.2.3,MacIntel,60.24096386,120749,,,,,,,
,,,,,,6.694088542,4.558,space,0.3549,0,38,38,30,1,31,image/31.jpg,0,0,,R_5BbMyj9NaP7q9xv,2,2024-05-30_17h46.44.472,face trait task,2021.2.3,MacIntel,60.24096386,120749,,,,,,,
,,,,,,6.401927083,3.1277,space,0.2713,0,39,39,45,1,46,image/46.jpg,0,0,,R_5BbMyj9NaP7q9xv,2,2024-05-30_17h46.44.472,face trait task,2021.2.3,MacIntel,60.24096386,120749,,,,,,,
,,,,,,3.63046875,2.9136,space,1.4139,0,40,40,46,1,47,image/47.jpg,0,0,,R_5BbMyj9NaP7q9xv,2,2024-05-30_17h46.44.472,face trait task,2021.2.3,MacIntel,60.24096386,120749,,,,,,,
,,,,,,3.337005208,2.6967,space,0.3019,0,41,41,3,1,4,image/4.jpg,0,0,,R_5BbMyj9NaP7q9xv,2,2024-05-30_17h46.44.472,face trait task,2021.2.3,MacIntel,60.24096386,120749,,,,,,,
,,,,,,5.22265625,4.0969,space,2.8525,0,42,42,38,1,39,image/39.jpg,0,0,,R_5BbMyj9NaP7q9xv,2,2024-05-30_17h46.44.472,face trait task,2021.2.3,MacIntel,60.24096386,120749,,,,,,,
,,,,,,4.001380208,2.8463,space,0.7839,0,43,43,14,1,15,image/15.jpg,0,0,,R_5BbMyj9NaP7q9xv,2,2024-05-30_17h46.44.472,face trait task,2021.2.3,MacIntel,60.24096386,120749,,,,,,,
,,,,,,3.998723958,2.9473,space,1.0001,0,44,44,40,1,41,image/41.jpg,0,0,,R_5BbMyj9NaP7q9xv,2,2024-05-30_17h46.44.472,face trait task,2021.2.3,MacIntel,60.24096386,120749,,,,,,,
,,,,,,6.956953125,4.0188,space,0.2978,0,45,45,52,1,56,image/fill_img.png,1,7,Please move the slider all the way to the RIGHT to show that you are paying attention.,R_5BbMyj9NaP7q9xv,2,2024-05-30_17h46.44.472,face trait task,2021.2.3,MacIntel,60.24096386,120749,,,,,,,
,,,,,,4.531145833,2.7127,space,0.5842,0,46,46,16,1,17,image/17.jpg,0,0,,R_5BbMyj9NaP7q9xv,2,2024-05-30_17h46.44.472,face trait task,2021.2.3,MacIntel,60.24096386,120749,,,,,,,
,,,,,,3.726614583,2.0116,space,0.4504,0,47,47,9,1,10,image/10.jpg,0,0,,R_5BbMyj9NaP7q9xv,2,2024-05-30_17h46.44.472,face trait task,2021.2.3,MacIntel,60.24096386,120749,,,,,,,
,,,,,,5.46671875,2.4305,space,0.4495,0,48,48,42,1,43,image/43.jpg,0,0,,R_5BbMyj9NaP7q9xv,2,2024-05-30_17h46.44.472,face trait task,2021.2.3,MacIntel,60.24096386,120749,,,,,,,
,,,,,,3.695859375,1.681,space,0.347,0,49,49,43,1,44,image/44.jpg,0,0,,R_5BbMyj9NaP7q9xv,2,2024-05-30_17h46.44.472,face trait task,2021.2.3,MacIntel,60.24096386,120749,,,,,,,
,,,,,,3.545208333,2.4309,space,0.3667,0,50,50,22,1,23,image/23.jpg,0,0,,R_5BbMyj9NaP7q9xv,2,2024-05-30_17h46.44.472,face trait task,2021.2.3,MacIntel,60.24096386,120749,,,,,,,
,,,,,,3.967552083,4.2628,space,1.6392,0,51,51,31,1,32,image/32.jpg,0,0,,R_5BbMyj9NaP7q9xv,2,2024-05-30_17h46.44.472,face trait task,2021.2.3,MacIntel,60.24096386,120749,,,,,,,
,,,,,,2.893385417,1.996,space,0.4717,0,52,52,2,1,3,image/3.jpg,0,0,,R_5BbMyj9NaP7q9xv,2,2024-05-30_17h46.44.472,face trait task,2021.2.3,MacIntel,60.24096386,120749,,,,,,,
,,,,,,,,,,,,,,,,,,,,R_5BbMyj9NaP7q9xv,2,2024-05-30_17h46.44.472,face trait task,2021.2.3,MacIntel,60.24096386,120749,0,0,0,0,1,0,critical.png
,,,,,competent,5.185989583,3.3001,space,0.5017,0,0,0,29,1,30,image/30.jpg,0,0,,R_5BbMyj9NaP7q9xv,2,2024-05-30_17h46.44.472,face trait task,2021.2.3,MacIntel,60.24096386,120749,,,,,,,
,,,,,,6.33890625,3.0749,space,0.6878,0,1,1,17,1,18,image/18.jpg,0,0,,R_5BbMyj9NaP7q9xv,2,2024-05-30_17h46.44.472,face trait task,2021.2.3,MacIntel,60.24096386,120749,,,,,,,
,,,,,,4.532369792,2.6636,space,1.3669,0,2,2,26,1,27,image/27.jpg,0,0,,R_5BbMyj9NaP7q9xv,2,2024-05-30_17h46.44.472,face trait task,2021.2.3,MacIntel,60.24096386,120749,,,,,,,
,,,,,,4.116041667,2.2792,space,0.3677,0,3,3,44,1,45,image/45.jpg,0,0,,R_5BbMyj9NaP7q9xv,2,2024-05-30_17h46.44.472,face trait task,2021.2.3,MacIntel,60.24096386,120749,,,,,,,
,,,,,,4.837578125,6.4782,space,0.3345,0,4,4,14,1,15,image/15.jpg,0,0,,R_5BbMyj9NaP7q9xv,2,2024-05-30_17h46.44.472,face trait task,2021.2.3,MacIntel,60.24096386,120749,,,,,,,
,,,,,,4.622604167,2.2132,space,0.5345,0,5,5,32,1,33,image/33.jpg,0,0,,R_5BbMyj9NaP7q9xv,2,2024-05-30_17h46.44.472,face trait task,2021.2.3,MacIntel,60.24096386,120749,,,,,,,
,,,,,,4.25078125,1.8964,space,0.2205,0,6,6,47,1,48,image/48.jpg,0,0,,R_5BbMyj9NaP7q9xv,2,2024-05-30_17h46.44.472,face trait task,2021.2.3,MacIntel,60.24096386,120749,,,,,,,
,,,,,,5.778854167,1.7683,space,0.5488,0,7,7,13,1,14,image/14.jpg,0,0,,R_5BbMyj9NaP7q9xv,2,2024-05-30_17h46.44.472,face trait task,2021.2.3,MacIntel,60.24096386,120749,,,,,,,
,,,,,,5.866328125,1.9787,space,0.6885,0,8,8,41,1,42,image/42.jpg,0,0,,R_5BbMyj9NaP7q9xv,2,2024-05-30_17h46.44.472,face trait task,2021.2.3,MacIntel,60.24096386,120749,,,,,,,
,,,,,,3.765755208,2.8465,space,1.382,0,9,9,42,1,43,image/43.jpg,0,0,,R_5BbMyj9NaP7q9xv,2,2024-05-30_17h46.44.472,face trait task,2021.2.3,MacIntel,60.24096386,120749,,,,,,,
,,,,,,6.718984375,1.6979,space,0.8672,0,10,10,18,1,19,image/19.jpg,0,0,,R_5BbMyj9NaP7q9xv,2,2024-05-30_17h46.44.472,face trait task,2021.2.3,MacIntel,60.24096386,120749,,,,,,,
,,,,,,6.782135417,1.8128,space,0.9839,0,11,11,16,1,17,image/17.jpg,0,0,,R_5BbMyj9NaP7q9xv,2,2024-05-30_17h46.44.472,face trait task,2021.2.3,MacIntel,60.24096386,120749,,,,,,,
,,,,,,6.388307292,2.0809,space,1.0713,0,12,12,2,1,3,image/3.jpg,0,0,,R_5BbMyj9NaP7q9xv,2,2024-05-30_17h46.44.472,face trait task,2021.2.3,MacIntel,60.24096386,120749,,,,,,,
,,,,,,5.810963542,2.6129,space,0.7186,0,13,13,25,1,26,image/26.jpg,0,0,,R_5BbMyj9NaP7q9xv,2,2024-05-30_17h46.44.472,face trait task,2021.2.3,MacIntel,60.24096386,120749,,,,,,,
,,,,,,4.447239583,2.6452,space,0.6999,0,14,14,4,1,5,image/5.jpg,0,0,,R_5BbMyj9NaP7q9xv,2,2024-05-30_17h46.44.472,face trait task,2021.2.3,MacIntel,60.24096386,120749,,,,,,,
,,,,,,5.843671875,2.4806,space,0.7861,0,15,15,49,1,50,image/50.jpg,0,0,,R_5BbMyj9NaP7q9xv,2,2024-05-30_17h46.44.472,face trait task,2021.2.3,MacIntel,60.24096386,120749,,,,,,,
,,,,,,5.201276042,2.2459,space,0.4516,0,16,16,45,1,46,image/46.jpg,0,0,,R_5BbMyj9NaP7q9xv,2,2024-05-30_17h46.44.472,face trait task,2021.2.3,MacIntel,60.24096386,120749,,,,,,,
,,,,,,5.881197917,2.3307,space,0.3006,0,17,17,46,1,47,image/47.jpg,0,0,,R_5BbMyj9NaP7q9xv,2,2024-05-30_17h46.44.472,face trait task,2021.2.3,MacIntel,60.24096386,120749,,,,,,,
,,,,,,4.149140625,3.1671,space,0.9036,0,18,18,28,1,29,image/29.jpg,0,0,,R_5BbMyj9NaP7q9xv,2,2024-05-30_17h46.44.472,face trait task,2021.2.3,MacIntel,60.24096386,120749,,,,,,,
,,,,,,5.284635417,3.4641,space,2.5524,0,19,19,23,1,24,image/24.jpg,0,0,,R_5BbMyj9NaP7q9xv,2,2024-05-30_17h46.44.472,face trait task,2021.2.3,MacIntel,60.24096386,120749,,,,,,,
,,,,,,5.059270833,4.8131,space,3.4529,0,20,20,7,1,8,image/8.jpg,0,0,,R_5BbMyj9NaP7q9xv,2,2024-05-30_17h46.44.472,face trait task,2021.2.3,MacIntel,60.24096386,120749,,,,,,,
,,,,,,6.700364583,2.2138,space,0.8138,0,21,21,21,1,22,image/22.jpg,0,0,,R_5BbMyj9NaP7q9xv,2,2024-05-30_17h46.44.472,face trait task,2021.2.3,MacIntel,60.24096386,120749,,,,,,,
,,,,,,6.690989583,2.697,space,0.339,0,22,22,9,1,10,image/10.jpg,0,0,,R_5BbMyj9NaP7q9xv,2,2024-05-30_17h46.44.472,face trait task,2021.2.3,MacIntel,60.24096386,120749,,,,,,,
,,,,,,5.712994792,2.4306,space,0.9354,0,23,23,31,1,32,image/32.jpg,0,0,,R_5BbMyj9NaP7q9xv,2,2024-05-30_17h46.44.472,face trait task,2021.2.3,MacIntel,60.24096386,120749,,,,,,,
,,,,,,3.911119792,1.9296,space,0.5506,0,24,24,39,1,40,image/40.jpg,0,0,,R_5BbMyj9NaP7q9xv,2,2024-05-30_17h46.44.472,face trait task,2021.2.3,MacIntel,60.24096386,120749,,,,,,,
,,,,,,5.396380208,3.5142,space,1.4129,0,25,25,37,1,38,image/38.jpg,0,0,,R_5BbMyj9NaP7q9xv,2,2024-05-30_17h46.44.472,face trait task,2021.2.3,MacIntel,60.24096386,120749,,,,,,,
,,,,,,3.898046875,3.5119,space,1.1131,0,26,26,15,1,16,image/16.jpg,0,0,,R_5BbMyj9NaP7q9xv,2,2024-05-30_17h46.44.472,face trait task,2021.2.3,MacIntel,60.24096386,120749,,,,,,,
,,,,,,6.96953125,2.6289,space,1.3847,0,27,27,50,1,60,image/fill_img.png,1,7,Please move the slider all the way to the RIGHT to show that you are paying attention.,R_5BbMyj9NaP7q9xv,2,2024-05-30_17h46.44.472,face trait task,2021.2.3,MacIntel,60.24096386,120749,,,,,,,
,,,,,,5.357239583,2.4615,space,0.7892,0,28,28,40,1,41,image/41.jpg,0,0,,R_5BbMyj9NaP7q9xv,2,2024-05-30_17h46.44.472,face trait task,2021.2.3,MacIntel,60.24096386,120749,,,,,,,
,,,,,,6.4534375,1.8151,space,0.3294,0,29,29,1,1,2,image/2.jpg,0,0,,R_5BbMyj9NaP7q9xv,2,2024-05-30_17h46.44.472,face trait task,2021.2.3,MacIntel,60.24096386,120749,,,,,,,
,,,,,,3.797890625,2.3319,space,0.3342,0,30,30,36,1,37,image/37.jpg,0,0,,R_5BbMyj9NaP7q9xv,2,2024-05-30_17h46.44.472,face trait task,2021.2.3,MacIntel,60.24096386,120749,,,,,,,
,,,,,,6.272395833,1.8128,space,0.2349,0,31,31,11,1,12,image/12.jpg,0,0,,R_5BbMyj9NaP7q9xv,2,2024-05-30_17h46.44.472,face trait task,2021.2.3,MacIntel,60.24096386,120749,,,,,,,
,,,,,,5.129973958,1.9799,space,0.2991,0,32,32,5,1,6,image/6.jpg,0,0,,R_5BbMyj9NaP7q9xv,2,2024-05-30_17h46.44.472,face trait task,2021.2.3,MacIntel,60.24096386,120749,,,,,,,
,,,,,,5.89203125,5.1301,space,1.2701,0,33,33,43,1,44,image/44.jpg,0,0,,R_5BbMyj9NaP7q9xv,2,2024-05-30_17h46.44.472,face trait task,2021.2.3,MacIntel,60.24096386,120749,,,,,,,
,,,,,,5.752057292,3.3921,space,0.3378,0,34,34,24,1,25,image/25.jpg,0,0,,R_5BbMyj9NaP7q9xv,2,2024-05-30_17h46.44.472,face trait task,2021.2.3,MacIntel,60.24096386,120749,,,,,,,
,,,,,,5.215572917,2.5973,space,0.4339,0,35,35,12,1,13,image/13.jpg,0,0,,R_5BbMyj9NaP7q9xv,2,2024-05-30_17h46.44.472,face trait task,2021.2.3,MacIntel,60.24096386,120749,,,,,,,
,,,,,,6.68453125,1.8972,space,0.5518,0,36,36,20,1,21,image/21.jpg,0,0,,R_5BbMyj9NaP7q9xv,2,2024-05-30_17h46.44.472,face trait task,2021.2.3,MacIntel,60.24096386,120749,,,,,,,
,,,,,,5.237578125,2.0963,space,0.9831,0,37,37,33,1,34,image/34.jpg,0,0,,R_5BbMyj9NaP7q9xv,2,2024-05-30_17h46.44.472,face trait task,2021.2.3,MacIntel,60.24096386,120749,,,,,,,
,,,,,,5.1015625,3.2458,space,0.5717,0,38,38,6,1,7,image/7.jpg,0,0,,R_5BbMyj9NaP7q9xv,2,2024-05-30_17h46.44.472,face trait task,2021.2.3,MacIntel,60.24096386,120749,,,,,,,
,,,,,,6.012578125,2.1462,space,0.505,0,39,39,3,1,4,image/4.jpg,0,0,,R_5BbMyj9NaP7q9xv,2,2024-05-30_17h46.44.472,face trait task,2021.2.3,MacIntel,60.24096386,120749,,,,,,,
,,,,,,5.013020833,4.7811,space,1.669,0,40,40,27,1,28,image/28.jpg,0,0,,R_5BbMyj9NaP7q9xv,2,2024-05-30_17h46.44.472,face trait task,2021.2.3,MacIntel,60.24096386,120749,,,,,,,
,,,,,,6.942890625,2.9116,space,0.9035,0,41,41,52,1,56,image/fill_img.png,1,7,Please move the slider all the way to the RIGHT to show that you are paying attention.,R_5BbMyj9NaP7q9xv,2,2024-05-30_17h46.44.472,face trait task,2021.2.3,MacIntel,60.24096386,120749,,,,,,,
,,,,,,5.05828125,3.2796,space,1.1364,0,42,42,34,1,35,image/35.jpg,0,0,,R_5BbMyj9NaP7q9xv,2,2024-05-30_17h46.44.472,face trait task,2021.2.3,MacIntel,60.24096386,120749,,,,,,,
,,,,,,5.878463542,1.9013,space,0.3834,0,43,43,10,1,11,image/11.jpg,0,0,,R_5BbMyj9NaP7q9xv,2,2024-05-30_17h46.44.472,face trait task,2021.2.3,MacIntel,60.24096386,120749,,,,,,,
,,,,,,5.440026042,1.7306,space,0.4302,0,44,44,22,1,23,image/23.jpg,0,0,,R_5BbMyj9NaP7q9xv,2,2024-05-30_17h46.44.472,face trait task,2021.2.3,MacIntel,60.24096386,120749,,,,,,,
,,,,,,5.137786458,2.7479,space,0.3446,0,45,45,30,1,31,image/31.jpg,0,0,,R_5BbMyj9NaP7q9xv,2,2024-05-30_17h46.44.472,face trait task,2021.2.3,MacIntel,60.24096386,120749,,,,,,,
,,,,,,3.98,2.2635,space,0.2853,0,46,46,35,1,36,image/36.jpg,0,0,,R_5BbMyj9NaP7q9xv,2,2024-05-30_17h46.44.472,face trait task,2021.2.3,MacIntel,60.24096386,120749,,,,,,,
,,,,,,4.884869792,2.6302,space,0.7858,0,47,47,48,1,49,image/49.jpg,0,0,,R_5BbMyj9NaP7q9xv,2,2024-05-30_17h46.44.472,face trait task,2021.2.3,MacIntel,60.24096386,120749,,,,,,,
,,,,,,6.431432292,1.8816,space,0.6841,0,48,48,19,1,20,image/20.jpg,0,0,,R_5BbMyj9NaP7q9xv,2,2024-05-30_17h46.44.472,face trait task,2021.2.3,MacIntel,60.24096386,120749,,,,,,,
,,,,,,4.619505208,2.4316,space,0.9348,0,49,49,38,1,39,image/39.jpg,0,0,,R_5BbMyj9NaP7q9xv,2,2024-05-30_17h46.44.472,face trait task,2021.2.3,MacIntel,60.24096386,120749,,,,,,,
,,,,,,1.001901042,2.0453,space,0.4124,0,50,50,51,1,55,image/fill_img.png,1,1,Please move the slider all the way to the LEFT to show that you are paying attention.,R_5BbMyj9NaP7q9xv,2,2024-05-30_17h46.44.472,face trait task,2021.2.3,MacIntel,60.24096386,120749,,,,,,,
,,,,,,5.340625,2.9616,space,1.0823,0,51,51,0,1,1,image/1.jpg,0,0,,R_5BbMyj9NaP7q9xv,2,2024-05-30_17h46.44.472,face trait task,2021.2.3,MacIntel,60.24096386,120749,,,,,,,
,,,,,,6.27734375,2.9933,space,0.2104,0,52,52,8,1,9,image/9.jpg,0,0,,R_5BbMyj9NaP7q9xv,2,2024-05-30_17h46.44.472,face trait task,2021.2.3,MacIntel,60.24096386,120749,,,,,,,
,,,,,,,,,,,,,,,,,,,,R_5BbMyj9NaP7q9xv,2,2024-05-30_17h46.44.472,face trait task,2021.2.3,MacIntel,60.24096386,120749,0,1,1,1,1,1,competent.png
,,,,,trustworthy,4.892109375,3.4868,space,0.2385,0,0,0,32,1,33,image/33.jpg,0,0,,R_5BbMyj9NaP7q9xv,2,2024-05-30_17h46.44.472,face trait task,2021.2.3,MacIntel,60.24096386,120749,,,,,,,
,,,,,,2.996145833,3.5307,space,1.5714,0,1,1,38,1,39,image/39.jpg,0,0,,R_5BbMyj9NaP7q9xv,2,2024-05-30_17h46.44.472,face trait task,2021.2.3,MacIntel,60.24096386,120749,,,,,,,
,,,,,,3.112994792,2.1842,space,0.237,0,2,2,48,1,49,image/49.jpg,0,0,,R_5BbMyj9NaP7q9xv,2,2024-05-30_17h46.44.472,face trait task,2021.2.3,MacIntel,60.24096386,120749,,,,,,,
,,,,,,5.955286458,2.3302,space,0.9869,0,3,3,15,1,16,image/16.jpg,0,0,,R_5BbMyj9NaP7q9xv,2,2024-05-30_17h46.44.472,face trait task,2021.2.3,MacIntel,60.24096386,120749,,,,,,,
,,,,,,5.560390625,2.6143,space,0.7346,0,4,4,5,1,6,image/6.jpg,0,0,,R_5BbMyj9NaP7q9xv,2,2024-05-30_17h46.44.472,face trait task,2021.2.3,MacIntel,60.24096386,120749,,,,,,,
,,,,,,5.756354167,2.1626,space,0.3175,0,5,5,23,1,24,image/24.jpg,0,0,,R_5BbMyj9NaP7q9xv,2,2024-05-30_17h46.44.472,face trait task,2021.2.3,MacIntel,60.24096386,120749,,,,,,,
,,,,,,5.971302083,2.2803,space,0.4503,0,6,6,10,1,11,image/11.jpg,0,0,,R_5BbMyj9NaP7q9xv,2,2024-05-30_17h46.44.472,face trait task,2021.2.3,MacIntel,60.24096386,120749,,,,,,,
,,,,,,5.834453125,3.5079,space,0.2891,0,7,7,31,1,32,image/32.jpg,0,0,,R_5BbMyj9NaP7q9xv,2,2024-05-30_17h46.44.472,face trait task,2021.2.3,MacIntel,60.24096386,120749,,,,,,,
,,,,,,6.641848958,1.73,space,0.3655,0,8,8,20,1,21,image/21.jpg,0,0,,R_5BbMyj9NaP7q9xv,2,2024-05-30_17h46.44.472,face trait task,2021.2.3,MacIntel,60.24096386,120749,,,,,,,
,,,,,,6.510104167,3.0138,space,0.7794,0,9,9,1,1,2,image/2.jpg,0,0,,R_5BbMyj9NaP7q9xv,2,2024-05-30_17h46.44.472,face trait task,2021.2.3,MacIntel,60.24096386,120749,,,,,,,
,,,,,,3.984348958,4.7302,space,2.6668,0,10,10,29,1,30,image/30.jpg,0,0,,R_5BbMyj9NaP7q9xv,2,2024-05-30_17h46.44.472,face trait task,2021.2.3,MacIntel,60.24096386,120749,,,,,,,
,,,,,,6.007734375,3.464,space,1.7513,0,11,11,24,1,25,image/25.jpg,0,0,,R_5BbMyj9NaP7q9xv,2,2024-05-30_17h46.44.472,face trait task,2021.2.3,MacIntel,60.24096386,120749,,,,,,,
,,,,,,5.087109375,3.2966,space,2.0234,0,12,12,43,1,44,image/44.jpg,0,0,,R_5BbMyj9NaP7q9xv,2,2024-05-30_17h46.44.472,face trait task,2021.2.3,MacIntel,60.24096386,120749,,,,,,,
,,,,,,4.705052083,2.93,space,0.4175,0,13,13,34,1,35,image/35.jpg,0,0,,R_5BbMyj9NaP7q9xv,2,2024-05-30_17h46.44.472,face trait task,2021.2.3,MacIntel,60.24096386,120749,,,,,,,
,,,,,,5.3190625,1.9299,space,0.8465,0,14,14,2,1,3,image/3.jpg,0,0,,R_5BbMyj9NaP7q9xv,2,2024-05-30_17h46.44.472,face trait task,2021.2.3,MacIntel,60.24096386,120749,,,,,,,
,,,,,,2.034453125,2.8979,space,0.3177,0,15,15,39,1,40,image/40.jpg,0,0,,R_5BbMyj9NaP7q9xv,2,2024-05-30_17h46.44.472,face trait task,2021.2.3,MacIntel,60.24096386,120749,,,,,,,
,,,,,,3.998984375,1.8305,space,0.5875,0,16,16,7,1,8,image/8.jpg,0,0,,R_5BbMyj9NaP7q9xv,2,2024-05-30_17h46.44.472,face trait task,2021.2.3,MacIntel,60.24096386,120749,,,,,,,
,,,,,,6.03109375,1.797,space,0.2684,0,17,17,3,1,4,image/4.jpg,0,0,,R_5BbMyj9NaP7q9xv,2,2024-05-30_17h46.44.472,face trait task,2021.2.3,MacIntel,60.24096386,120749,,,,,,,
,,,,,,3.7165625,3.1803,space,1.328,0,18,18,28,1,29,image/29.jpg,0,0,,R_5BbMyj9NaP7q9xv,2,2024-05-30_17h46.44.472,face trait task,2021.2.3,MacIntel,60.24096386,120749,,,,,,,
,,,,,,4.97515625,3.78,space,1.0312,0,19,19,49,1,50,image/50.jpg,0,0,,R_5BbMyj9NaP7q9xv,2,2024-05-30_17h46.44.472,face trait task,2021.2.3,MacIntel,60.24096386,120749,,,,,,,
,,,,,,6.574869792,3.681,space,1.4856,0,20,20,21,1,22,image/22.jpg,0,0,,R_5BbMyj9NaP7q9xv,2,2024-05-30_17h46.44.472,face trait task,2021.2.3,MacIntel,60.24096386,120749,,,,,,,
,,,,,,5.993802083,3.3805,space,0.2801,0,21,21,14,1,15,image/15.jpg,0,0,,R_5BbMyj9NaP7q9xv,2,2024-05-30_17h46.44.472,face trait task,2021.2.3,MacIntel,60.24096386,120749,,,,,,,
,,,,,,4.836770833,2.1637,space,1.3993,0,22,22,41,1,42,image/42.jpg,0,0,,R_5BbMyj9NaP7q9xv,2,2024-05-30_17h46.44.472,face trait task,2021.2.3,MacIntel,60.24096386,120749,,,,,,,
,,,,,,6.952942708,2.3284,space,0.6524,0,23,23,52,1,56,image/fill_img.png,1,7,Please move the slider all the way to the RIGHT to show that you are paying attention.,R_5BbMyj9NaP7q9xv,2,2024-05-30_17h46.44.472,face trait task,2021.2.3,MacIntel,60.24096386,120749,,,,,,,
,,,,,,3.004505208,2.6106,space,0.8225,0,24,24,40,1,41,image/41.jpg,0,0,,R_5BbMyj9NaP7q9xv,2,2024-05-30_17h46.44.472,face trait task,2021.2.3,MacIntel,60.24096386,120749,,,,,,,
,,,,,,6.11875,1.8972,space,0.3033,0,25,25,4,1,5,image/5.jpg,0,0,,R_5BbMyj9NaP7q9xv,2,2024-05-30_17h46.44.472,face trait task,2021.2.3,MacIntel,60.24096386,120749,,,,,,,
,,,,,,6.125625,1.6306,space,0.651,0,26,26,33,1,34,image/34.jpg,0,0,,R_5BbMyj9NaP7q9xv,2,2024-05-30_17h46.44.472,face trait task,2021.2.3,MacIntel,60.24096386,120749,,,,,,,
,,,,,,6.047421875,2.7807,space,0.4021,0,27,27,13,1,14,image/14.jpg,0,0,,R_5BbMyj9NaP7q9xv,2,2024-05-30_17h46.44.472,face trait task,2021.2.3,MacIntel,60.24096386,120749,,,,,,,
,,,,,,4.815625,3.0799,space,0.4118,0,28,28,11,1,12,image/12.jpg,0,0,,R_5BbMyj9NaP7q9xv,2,2024-05-30_17h46.44.472,face trait task,2021.2.3,MacIntel,60.24096386,120749,,,,,,,
,,,,,,6.683046875,1.7627,space,0.5725,0,29,29,17,1,18,image/18.jpg,0,0,,R_5BbMyj9NaP7q9xv,2,2024-05-30_17h46.44.472,face trait task,2021.2.3,MacIntel,60.24096386,120749,,,,,,,
,,,,,,3.979505208,2.097,space,0.2331,0,30,30,9,1,10,image/10.jpg,0,0,,R_5BbMyj9NaP7q9xv,2,2024-05-30_17h46.44.472,face trait task,2021.2.3,MacIntel,60.24096386,120749,,,,,,,
,,,,,,3.3634375,1.6969,space,0.2182,0,31,31,45,1,46,image/46.jpg,0,0,,R_5BbMyj9NaP7q9xv,2,2024-05-30_17h46.44.472,face trait task,2021.2.3,MacIntel,60.24096386,120749,,,,,,,
,,,,,,1.134973958,3.1454,space,0.8849,0,32,32,51,1,55,image/fill_img.png,1,1,Please move the slider all the way to the LEFT to show that you are paying attention.,R_5BbMyj9NaP7q9xv,2,2024-05-30_17h46.44.472,face trait task,2021.2.3,MacIntel,60.24096386,120749,,,,,,,
,,,,,,6.834114583,2.4769,space,0.4451,0,33,33,16,1,17,image/17.jpg,0,0,,R_5BbMyj9NaP7q9xv,2,2024-05-30_17h46.44.472,face trait task,2021.2.3,MacIntel,60.24096386,120749,,,,,,,
,,,,,,5.533411458,2.0124,space,0.5964,0,34,34,0,1,1,image/1.jpg,0,0,,R_5BbMyj9NaP7q9xv,2,2024-05-30_17h46.44.472,face trait task,2021.2.3,MacIntel,60.24096386,120749,,,,,,,
,,,,,,6.191588542,2.3463,space,0.2223,0,35,35,18,1,19,image/19.jpg,0,0,,R_5BbMyj9NaP7q9xv,2,2024-05-30_17h46.44.472,face trait task,2021.2.3,MacIntel,60.24096386,120749,,,,,,,
,,,,,,6.478098958,2.4634,space,0.2633,0,36,36,19,1,20,image/20.jpg,0,0,,R_5BbMyj9NaP7q9xv,2,2024-05-30_17h46.44.472,face trait task,2021.2.3,MacIntel,60.24096386,120749,,,,,,,
,,,,,,4.130338542,2.916,space,0.5635,0,37,37,37,1,38,image/38.jpg,0,0,,R_5BbMyj9NaP7q9xv,2,2024-05-30_17h46.44.472,face trait task,2021.2.3,MacIntel,60.24096386,120749,,,,,,,
,,,,,,4.009921875,1.8982,space,0.2207,0,38,38,25,1,26,image/26.jpg,0,0,,R_5BbMyj9NaP7q9xv,2,2024-05-30_17h46.44.472,face trait task,2021.2.3,MacIntel,60.24096386,120749,,,,,,,
,,,,,,4.237578125,2.5326,space,0.3532,0,39,39,26,1,27,image/27.jpg,0,0,,R_5BbMyj9NaP7q9xv,2,2024-05-30_17h46.44.472,face trait task,2021.2.3,MacIntel,60.24096386,120749,,,,,,,
,,,,,,4.995729167,2.1813,space,0.3482,0,40,40,22,1,23,image/23.jpg,0,0,,R_5BbMyj9NaP7q9xv,2,2024-05-30_17h46.44.472,face trait task,2021.2.3,MacIntel,60.24096386,120749,,,,,,,
,,,,,,3.468723958,1.8615,space,0.2814,0,41,41,47,1,48,image/48.jpg,0,0,,R_5BbMyj9NaP7q9xv,2,2024-05-30_17h46.44.472,face trait task,2021.2.3,MacIntel,60.24096386,120749,,,,,,,
,,,,,,2.537708333,1.762,space,0.2492,0,42,42,42,1,43,image/43.jpg,0,0,,R_5BbMyj9NaP7q9xv,2,2024-05-30_17h46.44.472,face trait task,2021.2.3,MacIntel,60.24096386,120749,,,,,,,
,,,,,,6.035390625,1.9513,space,0.6159,0,43,43,12,1,13,image/13.jpg,0,0,,R_5BbMyj9NaP7q9xv,2,2024-05-30_17h46.44.472,face trait task,2021.2.3,MacIntel,60.24096386,120749,,,,,,,
,,,,,,3.694895833,3.1158,space,1.3019,0,44,44,35,1,36,image/36.jpg,0,0,,R_5BbMyj9NaP7q9xv,2,2024-05-30_17h46.44.472,face trait task,2021.2.3,MacIntel,60.24096386,120749,,,,,,,
,,,,,,3.142395833,1.6807,space,1.6226,0,45,45,30,1,31,image/31.jpg,0,0,,R_5BbMyj9NaP7q9xv,2,2024-05-30_17h46.44.472,face trait task,2021.2.3,MacIntel,60.24096386,120749,,,,,,,
,,,,,,6.886875,1.8934,space,0.2796,0,46,46,50,1,60,image/fill_img.png,1,7,Please move the slider all the way to the RIGHT to show that you are paying attention.,R_5BbMyj9NaP7q9xv,2,2024-05-30_17h46.44.472,face trait task,2021.2.3,MacIntel,60.24096386,120749,,,,,,,
,,,,,,3.114609375,2.6286,space,0.3344,0,47,47,44,1,45,image/45.jpg,0,0,,R_5BbMyj9NaP7q9xv,2,2024-05-30_17h46.44.472,face trait task,2021.2.3,MacIntel,60.24096386,120749,,,,,,,
,,,,,,4.811223958,2.1306,space,0.5659,0,48,48,6,1,7,image/7.jpg,0,0,,R_5BbMyj9NaP7q9xv,2,2024-05-30_17h46.44.472,face trait task,2021.2.3,MacIntel,60.24096386,120749,,,,,,,
,,,,,,5.058671875,2.5292,space,0.2472,0,49,49,27,1,28,image/28.jpg,0,0,,R_5BbMyj9NaP7q9xv,2,2024-05-30_17h46.44.472,face trait task,2021.2.3,MacIntel,60.24096386,120749,,,,,,,
,,,,,,4.00125,2.6131,space,0.7862,0,50,50,36,1,37,image/37.jpg,0,0,,R_5BbMyj9NaP7q9xv,2,2024-05-30_17h46.44.472,face trait task,2021.2.3,MacIntel,60.24096386,120749,,,,,,,
,,,,,,5.490677083,1.8953,space,0.2341,0,51,51,46,1,47,image/47.jpg,0,0,,R_5BbMyj9NaP7q9xv,2,2024-05-30_17h46.44.472,face trait task,2021.2.3,MacIntel,60.24096386,120749,,,,,,,
,,,,,,5.299322917,1.4819,space,0.4682,0,52,52,8,1,9,image/9.jpg,0,0,,R_5BbMyj9NaP7q9xv,2,2024-05-30_17h46.44.472,face trait task,2021.2.3,MacIntel,60.24096386,120749,,,,,,,
,,,,,,,,,,,,,,,,,,,,R_5BbMyj9NaP7q9xv,2,2024-05-30_17h46.44.472,face trait task,2021.2.3,MacIntel,60.24096386,120749,0,2,2,2,1,2,trustworthy.png
,,,,,friendly,4.975807292,2.9219,space,0.4338,0,0,0,12,1,13,image/13.jpg,0,0,,R_5BbMyj9NaP7q9xv,2,2024-05-30_17h46.44.472,face trait task,2021.2.3,MacIntel,60.24096386,120749,,,,,,,
,,,,,,4.983020833,2.8132,space,0.3721,0,1,1,15,1,16,image/16.jpg,0,0,,R_5BbMyj9NaP7q9xv,2,2024-05-30_17h46.44.472,face trait task,2021.2.3,MacIntel,60.24096386,120749,,,,,,,
,,,,,,3.935833333,4.3477,space,2.8182,0,2,2,32,1,33,image/33.jpg,0,0,,R_5BbMyj9NaP7q9xv,2,2024-05-30_17h46.44.472,face trait task,2021.2.3,MacIntel,60.24096386,120749,,,,,,,
,,,,,,4.017630208,2.5296,space,0.717,0,3,3,13,1,14,image/14.jpg,0,0,,R_5BbMyj9NaP7q9xv,2,2024-05-30_17h46.44.472,face trait task,2021.2.3,MacIntel,60.24096386,120749,,,,,,,
,,,,,,3.880078125,1.9314,space,0.3836,0,4,4,37,1,38,image/38.jpg,0,0,,R_5BbMyj9NaP7q9xv,2,2024-05-30_17h46.44.472,face trait task,2021.2.3,MacIntel,60.24096386,120749,,,,,,,
,,,,,,2.609375,3.6467,space,1.436,0,5,5,38,1,39,image/39.jpg,0,0,,R_5BbMyj9NaP7q9xv,2,2024-05-30_17h46.44.472,face trait task,2021.2.3,MacIntel,60.24096386,120749,,,,,,,
,,,,,,2.240260417,1.5956,space,0.5179,0,6,6,42,1,43,image/43.jpg,0,0,,R_5BbMyj9NaP7q9xv,2,2024-05-30_17h46.44.472,face trait task,2021.2.3,MacIntel,60.24096386,120749,,,,,,,
,,,,,,4.979947917,2.1795,space,0.5524,0,7,7,22,1,23,image/23.jpg,0,0,,R_5BbMyj9NaP7q9xv,2,2024-05-30_17h46.44.472,face trait task,2021.2.3,MacIntel,60.24096386,120749,,,,,,,
,,,,,,4.660234375,2.2144,space,0.5531,0,8,8,23,1,24,image/24.jpg,0,0,,R_5BbMyj9NaP7q9xv,2,2024-05-30_17h46.44.472,face trait task,2021.2.3,MacIntel,60.24096386,120749,,,,,,,
,,,,,,2.648046875,2.0803,space,0.4182,0,9,9,36,1,37,image/37.jpg,0,0,,R_5BbMyj9NaP7q9xv,2,2024-05-30_17h46.44.472,face trait task,2021.2.3,MacIntel,60.24096386,120749,,,,,,,
,,,,,,6.765807292,2.397,space,1.1847,0,10,10,52,1,56,image/fill_img.png,1,7,Please move the slider all the way to the RIGHT to show that you are paying attention.,R_5BbMyj9NaP7q9xv,2,2024-05-30_17h46.44.472,face trait task,2021.2.3,MacIntel,60.24096386,120749,,,,,,,
,,,,,,5.229401042,2.7454,space,0.4636,0,11,11,16,1,17,image/17.jpg,0,0,,R_5BbMyj9NaP7q9xv,2,2024-05-30_17h46.44.472,face trait task,2021.2.3,MacIntel,60.24096386,120749,,,,,,,
,,,,,,3.471484375,1.5307,space,0.2831,0,12,12,0,1,1,image/1.jpg,0,0,,R_5BbMyj9NaP7q9xv,2,2024-05-30_17h46.44.472,face trait task,2021.2.3,MacIntel,60.24096386,120749,,,,,,,
,,,,,,5.035546875,2.2136,space,0.3217,0,13,13,40,1,41,image/41.jpg,0,0,,R_5BbMyj9NaP7q9xv,2,2024-05-30_17h46.44.472,face trait task,2021.2.3,MacIntel,60.24096386,120749,,,,,,,
,,,,,,6.018854167,1.7468,space,0.3474,0,14,14,10,1,11,image/11.jpg,0,0,,R_5BbMyj9NaP7q9xv,2,2024-05-30_17h46.44.472,face trait task,2021.2.3,MacIntel,60.24096386,120749,,,,,,,
,,,,,,3.961354167,3.2971,space,1.6527,0,15,15,5,1,6,image/6.jpg,0,0,,R_5BbMyj9NaP7q9xv,2,2024-05-30_17h46.44.472,face trait task,2021.2.3,MacIntel,60.24096386,120749,,,,,,,
,,,,,,3.855729167,1.997,space,0.1848,0,16,16,47,1,48,image/48.jpg,0,0,,R_5BbMyj9NaP7q9xv,2,2024-05-30_17h46.44.472,face trait task,2021.2.3,MacIntel,60.24096386,120749,,,,,,,
,,,,,,6.167760417,1.9136,space,0.7354,0,17,17,3,1,4,image/4.jpg,0,0,,R_5BbMyj9NaP7q9xv,2,2024-05-30_17h46.44.472,face trait task,2021.2.3,MacIntel,60.24096386,120749,,,,,,,
,,,,,,5.09390625,1.8298,space,0.585,0,18,18,46,1,47,image/47.jpg,0,0,,R_5BbMyj9NaP7q9xv,2,2024-05-30_17h46.44.472,face trait task,2021.2.3,MacIntel,60.24096386,120749,,,,,,,
,,,,,,2.135807292,1.9478,space,1.4852,0,19,19,30,1,31,image/31.jpg,0,0,,R_5BbMyj9NaP7q9xv,2,2024-05-30_17h46.44.472,face trait task,2021.2.3,MacIntel,60.24096386,120749,,,,,,,
,,,,,,1.079401042,1.9264,space,0.1827,0,20,20,51,1,55,image/fill_img.png,1,1,Please move the slider all the way to the LEFT to show that you are paying attention.,R_5BbMyj9NaP7q9xv,2,2024-05-30_17h46.44.472,face trait task,2021.2.3,MacIntel,60.24096386,120749,,,,,,,
,,,,,,3.998776042,4.0777,space,1.69,0,21,21,44,1,45,image/45.jpg,0,0,,R_5BbMyj9NaP7q9xv,2,2024-05-30_17h46.44.472,face trait task,2021.2.3,MacIntel,60.24096386,120749,,,,,,,
,,,,,,6.334375,4.2986,space,3.0344,0,22,22,20,1,21,image/21.jpg,0,0,,R_5BbMyj9NaP7q9xv,2,2024-05-30_17h46.44.472,face trait task,2021.2.3,MacIntel,60.24096386,120749,,,,,,,
,,,,,,5.001953125,3.5638,space,0.5913,0,23,23,7,1,8,image/8.jpg,0,0,,R_5BbMyj9NaP7q9xv,2,2024-05-30_17h46.44.472,face trait task,2021.2.3,MacIntel,60.24096386,120749,,,,,,,
,,,,,,2.990208333,1.9851,space,0.5034,0,24,24,25,1,26,image/26.jpg,0,0,,R_5BbMyj9NaP7q9xv,2,2024-05-30_17h46.44.472,face trait task,2021.2.3,MacIntel,60.24096386,120749,,,,,,,
,,,,,,2.176614583,2.8465,space,0.6345,0,25,25,39,1,40,image/40.jpg,0,0,,R_5BbMyj9NaP7q9xv,2,2024-05-30_17h46.44.472,face trait task,2021.2.3,MacIntel,60.24096386,120749,,,,,,,
,,,,,,4.00203125,2.3139,space,0.5858,0,26,26,11,1,12,image/12.jpg,0,0,,R_5BbMyj9NaP7q9xv,2,2024-05-30_17h46.44.472,face trait task,2021.2.3,MacIntel,60.24096386,120749,,,,,,,
,,,,,,5.002447917,2.2646,space,1.0896,0,27,27,9,1,10,image/10.jpg,0,0,,R_5BbMyj9NaP7q9xv,2,2024-05-30_17h46.44.472,face trait task,2021.2.3,MacIntel,60.24096386,120749,,,,,,,
,,,,,,4.592005208,2.1132,space,0.7003,0,28,28,6,1,7,image/7.jpg,0,0,,R_5BbMyj9NaP7q9xv,2,2024-05-30_17h46.44.472,face trait task,2021.2.3,MacIntel,60.24096386,120749,,,,,,,
,,,,,,2.65375,1.6796,space,0.6365,0,29,29,45,1,46,image/46.jpg,0,0,,R_5BbMyj9NaP7q9xv,2,2024-05-30_17h46.44.472,face trait task,2021.2.3,MacIntel,60.24096386,120749,,,,,,,
,,,,,,5.027942708,4.4464,space,2.0841,0,30,30,43,1,44,image/44.jpg,0,0,,R_5BbMyj9NaP7q9xv,2,2024-05-30_17h46.44.472,face trait task,2021.2.3,MacIntel,60.24096386,120749,,,,,,,
,,,,,,3.972057292,2.7003,space,0.9875,0,31,31,49,1,50,image/50.jpg,0,0,,R_5BbMyj9NaP7q9xv,2,2024-05-30_17h46.44.472,face trait task,2021.2.3,MacIntel,60.24096386,120749,,,,,,,
,,,,,,4.6784375,3.0973,space,1.3183,0,32,32,33,1,34,image/34.jpg,0,0,,R_5BbMyj9NaP7q9xv,2,2024-05-30_17h46.44.472,face trait task,2021.2.3,MacIntel,60.24096386,120749,,,,,,,
,,,,,,3.992838542,2.6795,space,0.7009,0,33,33,48,1,49,image/49.jpg,0,0,,R_5BbMyj9NaP7q9xv,2,2024-05-30_17h46.44.472,face trait task,2021.2.3,MacIntel,60.24096386,120749,,,,,,,
,,,,,,6.948880208,2.599,space,0.3347,0,34,34,50,1,60,image/fill_img.png,1,7,Please move the slider all the way to the RIGHT to show that you are paying attention.,R_5BbMyj9NaP7q9xv,2,2024-05-30_17h46.44.472,face trait task,2021.2.3,MacIntel,60.24096386,120749,,,,,,,
,,,,,,4.482005208,2.2976,space,0.5166,0,35,35,21,1,22,image/22.jpg,0,0,,R_5BbMyj9NaP7q9xv,2,2024-05-30_17h46.44.472,face trait task,2021.2.3,MacIntel,60.24096386,120749,,,,,,,
,,,,,,4.974140625,1.9303,space,0.5011,0,36,36,34,1,35,image/35.jpg,0,0,,R_5BbMyj9NaP7q9xv,2,2024-05-30_17h46.44.472,face trait task,2021.2.3,MacIntel,60.24096386,120749,,,,,,,
,,,,,,5.93,1.8975,space,0.7187,0,37,37,4,1,5,image/5.jpg,0,0,,R_5BbMyj9NaP7q9xv,2,2024-05-30_17h46.44.472,face trait task,2021.2.3,MacIntel,60.24096386,120749,,,,,,,
,,,,,,6.036041667,2.6148,space,0.5194,0,38,38,19,1,20,image/20.jpg,0,0,,R_5BbMyj9NaP7q9xv,2,2024-05-30_17h46.44.472,face trait task,2021.2.3,MacIntel,60.24096386,120749,,,,,,,
,,,,,,5.315520833,1.6972,space,0.367,0,39,39,14,1,15,image/15.jpg,0,0,,R_5BbMyj9NaP7q9xv,2,2024-05-30_17h46.44.472,face trait task,2021.2.3,MacIntel,60.24096386,120749,,,,,,,
,,,,,,3.535520833,2.3796,space,1.2846,0,40,40,35,1,36,image/36.jpg,0,0,,R_5BbMyj9NaP7q9xv,2,2024-05-30_17h46.44.472,face trait task,2021.2.3,MacIntel,60.24096386,120749,,,,,,,
,,,,,,6.445416667,2.713,space,2.084,0,41,41,17,1,18,image/18.jpg,0,0,,R_5BbMyj9NaP7q9xv,2,2024-05-30_17h46.44.472,face trait task,2021.2.3,MacIntel,60.24096386,120749,,,,,,,
,,,,,,2.169010417,3.1302,space,1.8382,0,42,42,29,1,30,image/30.jpg,0,0,,R_5BbMyj9NaP7q9xv,2,2024-05-30_17h46.44.472,face trait task,2021.2.3,MacIntel,60.24096386,120749,,,,,,,
,,,,,,4.759505208,4.5312,space,2.269,0,43,43,26,1,27,image/27.jpg,0,0,,R_5BbMyj9NaP7q9xv,2,2024-05-30_17h46.44.472,face trait task,2021.2.3,MacIntel,60.24096386,120749,,,,,,,
,,,,,,4.806822917,3.4803,space,0.3502,0,44,44,41,1,42,image/42.jpg,0,0,,R_5BbMyj9NaP7q9xv,2,2024-05-30_17h46.44.472,face trait task,2021.2.3,MacIntel,60.24096386,120749,,,,,,,
,,,,,,6.124609375,2.8466,space,1.4721,0,45,45,1,1,2,image/2.jpg,0,0,,R_5BbMyj9NaP7q9xv,2,2024-05-30_17h46.44.472,face trait task,2021.2.3,MacIntel,60.24096386,120749,,,,,,,
,,,,,,4.1934375,1.8803,space,0.735,0,46,46,8,1,9,image/9.jpg,0,0,,R_5BbMyj9NaP7q9xv,2,2024-05-30_17h46.44.472,face trait task,2021.2.3,MacIntel,60.24096386,120749,,,,,,,
,,,,,,4.6159375,1.8306,space,0.6343,0,47,47,31,1,32,image/32.jpg,0,0,,R_5BbMyj9NaP7q9xv,2,2024-05-30_17h46.44.472,face trait task,2021.2.3,MacIntel,60.24096386,120749,,,,,,,
,,,,,,3.987161458,1.9299,space,1.1006,0,48,48,28,1,29,image/29.jpg,0,0,,R_5BbMyj9NaP7q9xv,2,2024-05-30_17h46.44.472,face trait task,2021.2.3,MacIntel,60.24096386,120749,,,,,,,
,,,,,,5.408958333,2.28,space,1.2506,0,49,49,24,1,25,image/25.jpg,0,0,,R_5BbMyj9NaP7q9xv,2,2024-05-30_17h46.44.472,face trait task,2021.2.3,MacIntel,60.24096386,120749,,,,,,,
,,,,,,4.99640625,2.4631,space,1.4348,0,50,50,18,1,19,image/19.jpg,0,0,,R_5BbMyj9NaP7q9xv,2,2024-05-30_17h46.44.472,face trait task,2021.2.3,MacIntel,60.24096386,120749,,,,,,,
,,,,,,5.966536458,1.8809,space,1.0864,0,51,51,2,1,3,image/3.jpg,0,0,,R_5BbMyj9NaP7q9xv,2,2024-05-30_17h46.44.472,face trait task,2021.2.3,MacIntel,60.24096386,120749,,,,,,,
,,,,,,4.016796875,3.2976,space,0.5833,0,52,52,27,1,28,image/28.jpg,0,0,,R_5BbMyj9NaP7q9xv,2,2024-05-30_17h46.44.472,face trait task,2021.2.3,MacIntel,60.24096386,120749,,,,,,,
,,,,,,,,,,,,,,,,,,,,R_5BbMyj9NaP7q9xv,2,2024-05-30_17h46.44.472,face trait task,2021.2.3,MacIntel,60.24096386,120749,0,3,3,3,1,3,friendly.png
