chooserow,ParID,pre_instru_resp_2.keys,pre_instru_resp_2.rt,pre_instru_resp_3.keys,pre_instru_resp_3.rt,pre_instru_resp_9.keys,pre_instru_resp_9.rt,pre_instru_resp_8.keys,pre_instru_resp_8.rt,pre_instru_resp_4.keys,pre_instru_resp_4.rt,pre_instru_resp_5.keys,pre_instru_resp_5.rt,pre_instru_resp_6.keys,pre_instru_resp_6.rt,key_resp_3.keys,key_resp_3.rt,key_resp_4.keys,key_resp_4.rt,key_resp_5.keys,key_resp_5.rt,key_resp_6.keys,key_resp_6.rt,key_resp_7.keys,key_resp_7.rt,trials_2.thisRepN,trials_2.thisTrialN,trials_2.thisN,trials_2.thisIndex,trials_2.ran,participant,session,date,expName,psychopyVersion,OS,frameRate,SONAid,pre_instru_resp.keys,pre_instru_resp.rt,clicked,judge_2.x,judge_2.y,judge_2.leftButton,judge_2.midButton,judge_2.rightButton,trials.thisRepN,trials.thisTrialN,trials.thisN,trials.thisIndex,trials.ran,prac_answer,prac_dot_sti,dotlefttext,dotrighttext,judge_2.clicked_name,prac_acc,judge.x,judge.y,judge.leftButton,judge.midButton,judge.rightButton,judge.clicked_name,clicked_guilt,slider_guilt.response,slider_guilt.rt,key_guilt.keys,key_guilt.rt,share_slider.response,share_slider.rt,key_share.keys,slider_apology.response,slider_apology.rt,key_apology.keys,slider_hide.response,slider_hide.rt,slider_forgiveness.response,slider_forgiveness.rt,key_forgiveness.keys,slider_mad.response,slider_mad.rt,trialseq.thisRepN,trialseq.thisTrialN,trialseq.thisN,trialseq.thisIndex,trialseq.ran,type_trial,stipic,DV,picture,answer,number,key_apology.rt,key_share.rt,key_forgiveness.rt
"[48,76,120,109,178,138,111,49,143,32,163,71,84,80,103,173,118,154,196,77,18,201,60,135,45,157,155,182,59,186,185,121,123,66,107,104,94,175,156,151,89,0]",R_5BbMyj9NaP7q9xv,space,1.3126,space,3.1039,space,12.6047,space,15.5039,space,20.0457,space,14.574,space,5.9395,3,7.4047,1,8.3077,3,8.2195,1,16.8727,3,7.6056,0,0,0,0,1,R_5BbMyj9NaP7q9xv,1,2024-05-30_17h30.53.338,interaction task,2021.2.3,MacIntel,59.88023952,120749,,,,,,,,,,,,,,,,,,,,,,,,,,,,,,,,,,,,,,,,,,,,,,,,,,,,,,,,,
,,,,space,1.3003,space,2.1294,space,4.3136,space,18.982,space,1.331,space,0.4808,3,2.8984,1,3.2795,3,4.1524,2,6.4843,2,2.332,1,0,1,0,1,R_5BbMyj9NaP7q9xv,1,2024-05-30_17h30.53.338,interaction task,2021.2.3,MacIntel,59.88023952,120749,,,,,,,,,,,,,,,,,,,,,,,,,,,,,,,,,,,,,,,,,,,,,,,,,,,,,,,,,
,,,,,,,,,,,,,,,,,,,,,,,,,,,,,,,R_5BbMyj9NaP7q9xv,1,2024-05-30_17h30.53.338,interaction task,2021.2.3,MacIntel,59.88023952,120749,space,2.3181,[],0.279703776,-0.308394097,0,0,0,0,0,0,2,1,LeftButton_2,9dot1.png,Smaller,Greater,,,,,,,,,,,,,,,,,,,,,,,,,,,,,,,,,,,,,,,,
,,,,,,,,,,,,,,,,,,,,,,,,,,,,,,,R_5BbMyj9NaP7q9xv,1,2024-05-30_17h30.53.338,interaction task,2021.2.3,MacIntel,59.88023952,120749,,,"[""LeftButton_2""]",-0.28742947,-0.333897569,1,0,0,0,1,1,1,1,RightButton_2,9dot2.png,Greater,Smaller,LeftButton_2,,,,,,,,,,,,,,,,,,,,,,,,,,,,,,,,,,,,,,,
,,,,,,,,,,,,,,,,,,,,,,,,,,,,,,,R_5BbMyj9NaP7q9xv,1,2024-05-30_17h30.53.338,interaction task,2021.2.3,MacIntel,59.88023952,120749,,,"[""RightButton_2""]",0.258924696,-0.311015625,1,0,0,0,2,2,0,1,RightButton_2,9dot2.png,Greater,Smaller,RightButton_2,,,,,,,,,,,,,,,,,,,,,,,,,,,,,,,,,,,,,,,
,,,,,,,,,,,,,,,,,,,,,,,,,,,,,,,R_5BbMyj9NaP7q9xv,1,2024-05-30_17h30.53.338,interaction task,2021.2.3,MacIntel,59.88023952,120749,,,,,,,,,,,,,,,,Greater,Smaller,,0.2,0.292778863,-0.519071181,1,0,0,RightButton,"[""RightButton""]",0,5.9973,space,1.4438,,,,,,,,,,,,,,0,0,0,0,1,1,both_wrong.png,0,RandomDot24.png,No answer,21,,,
,,,,,,,,,,,,,,,,,,,,,,,,,,,,,,,R_5BbMyj9NaP7q9xv,1,2024-05-30_17h30.53.338,interaction task,2021.2.3,MacIntel,59.88023952,120749,,,,,,,,,,,,,,,,Greater,Smaller,,,-0.25726454,-0.517664931,1,0,0,LeftButton,"[""LeftButton""]",,,,,,,,10,4.6773,space,0,7.8976,,,,,,0,1,1,1,1,1,both_wrong.png,2,RandomDot9.png,No answer,21,3.1683,,
,,,,,,,,,,,,,,,,,,,,,,,,,,,,,,,R_5BbMyj9NaP7q9xv,1,2024-05-30_17h30.53.338,interaction task,2021.2.3,MacIntel,59.88023952,120749,,,,,,,,,,,,,,,,Greater,Smaller,,,0.293001302,-0.530703125,1,0,0,RightButton,"[""RightButton""]",,,,,,,,9,2.2993,space,0,3.4645,,,,,,0,2,2,2,1,2,only_sub_right.png,2,RandomDot21.png,No answer,21,0.9036,,
,,,,,,,,,,,,,,,,,,,,,,,,,,,,,,,R_5BbMyj9NaP7q9xv,1,2024-05-30_17h30.53.338,interaction task,2021.2.3,MacIntel,59.88023952,120749,,,,,,,,,,,,,,,,Greater,Smaller,,,0.286105686,-0.525303819,1,0,0,RightButton,"[""RightButton""]",,,,,2.530110677,11.5653,space,,,,,,,,,,,0,3,3,3,1,2,only_sub_right.png,1,RandomDot3.png,No answer,19,,0.9516,
,,,,,,,,,,,,,,,,,,,,,,,,,,,,,,,R_5BbMyj9NaP7q9xv,1,2024-05-30_17h30.53.338,interaction task,2021.2.3,MacIntel,59.88023952,120749,,,,,,,,,,,,,,,,Smaller,Greater,,,-0.252473958,-0.487682292,1,0,0,LeftButton,"[""LeftButton""]",,,,,,,,79,9.748,space,0,7.2321,,,,,,0,4,4,4,1,3,only_sub_wrong.png,2,RandomDot22.png,No answer,19,4.8794,,
,,,,,,,,,,,,,,,,,,,,,,,,,,,,,,,R_5BbMyj9NaP7q9xv,1,2024-05-30_17h30.53.338,interaction task,2021.2.3,MacIntel,59.88023952,120749,,,,,,,,,,,,,,,,Smaller,Greater,,,-0.313384332,-0.482248264,1,0,0,LeftButton,"[""LeftButton""]",,,,,,,,,,,,,97.90033582,3.7228,space,2.048698793,6.6748,0,5,5,5,1,2,only_sub_right.png,3,RandomDot25.png,No answer,21,,,0.9672
,,,,,,,,,,,,,,,,,,,,,,,,,,,,,,,R_5BbMyj9NaP7q9xv,1,2024-05-30_17h30.53.338,interaction task,2021.2.3,MacIntel,59.88023952,120749,,,,,,,,,,,,,,,,Greater,Smaller,,,0.321717665,-0.518116319,1,0,0,RightButton,"[""RightButton""]",,,,,2.544108073,4.4651,space,,,,,,,,,,,0,6,6,6,1,2,only_sub_right.png,1,RandomDot4.png,No answer,19,,0.7028,
,,,,,,,,,,,,,,,,,,,,,,,,,,,,,,,R_5BbMyj9NaP7q9xv,1,2024-05-30_17h30.53.338,interaction task,2021.2.3,MacIntel,59.88023952,120749,,,,,,,,,,,,,,,,Greater,Smaller,,,0.311686198,-0.519921875,1,0,0,RightButton,"[""RightButton""]",4,2.5313,space,0.6846,,,,,,,,,,,,,,0,7,7,7,1,1,both_wrong.png,0,RandomDot16.png,No answer,19,,,
,,,,,,,,,,,,,,,,,,,,,,,,,,,,,,,R_5BbMyj9NaP7q9xv,1,2024-05-30_17h30.53.338,interaction task,2021.2.3,MacIntel,59.88023952,120749,,,,,,,,,,,,,,,,Smaller,Greater,,,-0.276605903,-0.499887153,1,0,0,LeftButton,"[""LeftButton""]",,,,,,,,,,,,,97.77648446,2.9818,space,4.861659126,6.3312,0,8,8,8,1,2,only_sub_right.png,3,RandomDot31.png,No answer,19,,,1.8893
,,,,,,,,,,,,,,,,,,,,,,,,,,,,,,,R_5BbMyj9NaP7q9xv,1,2024-05-30_17h30.53.338,interaction task,2021.2.3,MacIntel,59.88023952,120749,,,,,,,,,,,,,,,,Smaller,Greater,,,-0.331293403,-0.512421875,1,0,0,LeftButton,"[""LeftButton""]",,,,,,,,,,,,,,,,,,0,9,9,9,1,0,both_right.png,2,RandomDot29.png,No answer,20,,,
,,,,,,,,,,,,,,,,,,,,,,,,,,,,,,,R_5BbMyj9NaP7q9xv,1,2024-05-30_17h30.53.338,interaction task,2021.2.3,MacIntel,59.88023952,120749,,,,,,,,,,,,,,,,Smaller,Greater,,,-0.260791016,-0.494739583,1,0,0,LeftButton,"[""LeftButton""]",,,,,2.689887153,4.8454,space,,,,,,,,,,,0,10,10,10,1,3,only_sub_wrong.png,1,RandomDot6.png,No answer,20,,1.4367,
,,,,,,,,,,,,,,,,,,,,,,,,,,,,,,,R_5BbMyj9NaP7q9xv,1,2024-05-30_17h30.53.338,interaction task,2021.2.3,MacIntel,59.88023952,120749,,,,,,,,,,,,,,,,Smaller,Greater,,,-0.315825738,-0.501319444,1,0,0,LeftButton,"[""LeftButton""]",,,,,2.693115234,2.267,space,,,,,,,,,,,0,11,11,11,1,1,both_wrong.png,1,RandomDot14.png,No answer,20,,0.7674,
,,,,,,,,,,,,,,,,,,,,,,,,,,,,,,,R_5BbMyj9NaP7q9xv,1,2024-05-30_17h30.53.338,interaction task,2021.2.3,MacIntel,59.88023952,120749,,,,,,,,,,,,,,,,Greater,Smaller,,,-0.299213325,-0.490138889,1,0,0,LeftButton,"[""LeftButton""]",,,,,,,,,,,,,96.7127876,5.0986,space,2.466286125,6.5471,0,12,12,12,1,1,both_wrong.png,3,RandomDot6.png,No answer,20,,,1.1009
,,,,,,,,,,,,,,,,,,,,,,,,,,,,,,,R_5BbMyj9NaP7q9xv,1,2024-05-30_17h30.53.338,interaction task,2021.2.3,MacIntel,59.88023952,120749,,,,,,,,,,,,,,,,Smaller,Greater,,,0.296142578,-0.519565972,1,0,0,RightButton,"[""RightButton""]",,,,,,,,10,5.9995,space,1,8.067,,,,,,0,13,13,13,1,1,both_wrong.png,2,RandomDot8.png,No answer,20,1.0514,,
,,,,,,,,,,,,,,,,,,,,,,,,,,,,,,,R_5BbMyj9NaP7q9xv,1,2024-05-30_17h30.53.338,interaction task,2021.2.3,MacIntel,59.88023952,120749,,,,,,,,,,,,,,,,Smaller,Greater,,,-0.255192057,-0.524322917,1,0,0,LeftButton,"[""LeftButton""]",11,2.8631,space,0.7192,,,,,,,,,,,,,,0,14,14,14,1,2,only_sub_right.png,0,RandomDot21.png,No answer,21,,,
,,,,,,,,,,,,,,,,,,,,,,,,,,,,,,,R_5BbMyj9NaP7q9xv,1,2024-05-30_17h30.53.338,interaction task,2021.2.3,MacIntel,59.88023952,120749,,,,,,,,,,,,,,,,Greater,Smaller,,,0.281906467,-0.520659722,1,0,0,RightButton,"[""RightButton""]",,,,,,,,89,2.0817,space,2,3.3984,,,,,,0,15,15,15,1,3,only_sub_wrong.png,2,RandomDot20.png,No answer,19,0.5507,,
,,,,,,,,,,,,,,,,,,,,,,,,,,,,,,,R_5BbMyj9NaP7q9xv,1,2024-05-30_17h30.53.338,interaction task,2021.2.3,MacIntel,59.88023952,120749,,,,,,,,,,,,,,,,Smaller,Greater,,,-0.271706814,-0.519696181,1,0,0,LeftButton,"[""LeftButton""]",,,,,2.566514757,1.5832,space,,,,,,,,,,,0,16,16,16,1,2,only_sub_right.png,1,RandomDot34.png,No answer,19,,0.5504,
,,,,,,,,,,,,,,,,,,,,,,,,,,,,,,,R_5BbMyj9NaP7q9xv,1,2024-05-30_17h30.53.338,interaction task,2021.2.3,MacIntel,59.88023952,120749,,,,,,,,,,,,,,,,Smaller,Greater,,,-0.275368924,-0.496119792,1,0,0,LeftButton,"[""LeftButton""]",20,2.9594,space,0.5137,,,,,,,,,,,,,,0,17,17,17,1,3,only_sub_wrong.png,0,RandomDot25.png,No answer,21,,,
,,,,,,,,,,,,,,,,,,,,,,,,,,,,,,,R_5BbMyj9NaP7q9xv,1,2024-05-30_17h30.53.338,interaction task,2021.2.3,MacIntel,59.88023952,120749,,,,,,,,,,,,,,,,Smaller,Greater,,,-0.327208116,-0.529947917,1,0,0,LeftButton,"[""LeftButton""]",,,,,,,,,,,,,,,,,,0,18,18,18,1,4,both_right.png,10,RandomDot41.png,RightButton,5,,,
,,,,,,,,,,,,,,,,,,,,,,,,,,,,,,,R_5BbMyj9NaP7q9xv,1,2024-05-30_17h30.53.338,interaction task,2021.2.3,MacIntel,59.88023952,120749,,,,,,,,,,,,,,,,Greater,Smaller,,,0.289903429,-0.499487847,1,0,0,RightButton,"[""RightButton""]",,,,,,,,14,4.133,space,5,6.1655,,,,,,0,19,19,19,1,1,both_wrong.png,2,RandomDot13.png,No answer,21,0.9804,,
,,,,,,,,,,,,,,,,,,,,,,,,,,,,,,,R_5BbMyj9NaP7q9xv,1,2024-05-30_17h30.53.338,interaction task,2021.2.3,MacIntel,59.88023952,120749,,,,,,,,,,,,,,,,Smaller,Greater,,,-0.290380859,-0.532256944,1,0,0,LeftButton,"[""LeftButton""]",,,,,,,,,,,,,,,,,,0,20,20,20,1,0,both_right.png,1,RandomDot5.png,No answer,19,,,
,,,,,,,,,,,,,,,,,,,,,,,,,,,,,,,R_5BbMyj9NaP7q9xv,1,2024-05-30_17h30.53.338,interaction task,2021.2.3,MacIntel,59.88023952,120749,,,,,,,,,,,,,,,,Smaller,Greater,,,-0.291075304,-0.531145833,1,0,0,LeftButton,"[""LeftButton""]",,,,,,,,,,,,,,,,,,0,21,21,21,1,5,both_right.png,10,RandomDot42.png,LeftButton,19,,,
,,,,,,,,,,,,,,,,,,,,,,,,,,,,,,,R_5BbMyj9NaP7q9xv,1,2024-05-30_17h30.53.338,interaction task,2021.2.3,MacIntel,59.88023952,120749,,,,,,,,,,,,,,,,Greater,Smaller,,,0.285731337,-0.523116319,1,0,0,RightButton,"[""RightButton""]",,,,,2.511094835,2.7998,space,,,,,,,,,,,0,22,22,22,1,1,both_wrong.png,1,RandomDot13.png,No answer,19,,0.6184,
,,,,,,,,,,,,,,,,,,,,,,,,,,,,,,,R_5BbMyj9NaP7q9xv,1,2024-05-30_17h30.53.338,interaction task,2021.2.3,MacIntel,59.88023952,120749,,,,,,,,,,,,,,,,Greater,Smaller,,,-0.270952691,-0.496024306,1,0,0,LeftButton,"[""LeftButton""]",,,,,,,,,,,,,91.54939148,4.0642,space,9.114802539,5.3131,0,23,23,23,1,2,only_sub_right.png,3,RandomDot26.png,No answer,20,,,1.1723
,,,,,,,,,,,,,,,,,,,,,,,,,,,,,,,R_5BbMyj9NaP7q9xv,1,2024-05-30_17h30.53.338,interaction task,2021.2.3,MacIntel,59.88023952,120749,,,,,,,,,,,,,,,,Smaller,Greater,,,-0.318250868,-0.518394097,1,0,0,LeftButton,"[""LeftButton""]",,,,,,,,,,,,,,,,,,0,24,24,24,1,0,both_right.png,3,RandomDot13.png,No answer,20,,,
,,,,,,,,,,,,,,,,,,,,,,,,,,,,,,,R_5BbMyj9NaP7q9xv,1,2024-05-30_17h30.53.338,interaction task,2021.2.3,MacIntel,59.88023952,120749,,,,,,,,,,,,,,,,Greater,Smaller,,,0.306445313,-0.503671875,1,0,0,RightButton,"[""RightButton""]",,,,,2.584960938,1.9672,space,,,,,,,,,,,0,25,25,25,1,3,only_sub_wrong.png,1,RandomDot8.png,No answer,21,,0.4625,
,,,,,,,,,,,,,,,,,,,,,,,,,,,,,,,R_5BbMyj9NaP7q9xv,1,2024-05-30_17h30.53.338,interaction task,2021.2.3,MacIntel,59.88023952,120749,,,,,,,,,,,,,,,,Smaller,Greater,,,0.295100911,-0.53046875,1,0,0,RightButton,"[""RightButton""]",19,3.1856,space,0.6021,,,,,,,,,,,,,,0,26,26,26,1,3,only_sub_wrong.png,0,RandomDot2.png,No answer,20,,,
,,,,,,,,,,,,,,,,,,,,,,,,,,,,,,,R_5BbMyj9NaP7q9xv,1,2024-05-30_17h30.53.338,interaction task,2021.2.3,MacIntel,59.88023952,120749,,,,,,,,,,,,,,,,Greater,Smaller,,,0.317225477,-0.507690972,1,0,0,RightButton,"[""RightButton""]",,,,,,,,,,,,,88.04812447,3.4582,space,16.28174102,5.4792,0,27,27,27,1,3,only_sub_wrong.png,3,RandomDot8.png,No answer,21,,,0.8173
,,,,,,,,,,,,,,,,,,,,,,,,,,,,,,,R_5BbMyj9NaP7q9xv,1,2024-05-30_17h30.53.338,interaction task,2021.2.3,MacIntel,59.88023952,120749,,,,,,,,,,,,,,,,Smaller,Greater,,,-0.30272895,-0.495260417,1,0,0,LeftButton,"[""LeftButton""]",11,2.934,space,1.6171,,,,,,,,,,,,,,0,28,28,28,1,1,both_wrong.png,0,RandomDot14.png,No answer,21,,,
,,,,,,,,,,,,,,,,,,,,,,,,,,,,,,,R_5BbMyj9NaP7q9xv,1,2024-05-30_17h30.53.338,interaction task,2021.2.3,MacIntel,59.88023952,120749,,,,,,,,,,,,,,,,Smaller,Greater,,,0.300840929,-0.497057292,1,0,0,RightButton,"[""RightButton""]",,,,,,,,,,,,,90.39965629,2.9439,space,10.98736935,4.6139,0,29,29,29,1,3,only_sub_wrong.png,3,RandomDot9.png,No answer,19,,,0.3016
,,,,,,,,,,,,,,,,,,,,,,,,,,,,,,,R_5BbMyj9NaP7q9xv,1,2024-05-30_17h30.53.338,interaction task,2021.2.3,MacIntel,59.88023952,120749,,,,,,,,,,,,,,,,Greater,Smaller,,,0.299793837,-0.504921875,1,0,0,RightButton,"[""RightButton""]",,,,,,,,,,,,,89.11127332,3.3481,space,11.05422717,4.8289,0,30,30,30,1,3,only_sub_wrong.png,3,RandomDot34.png,No answer,20,,,0.2681
,,,,,,,,,,,,,,,,,,,,,,,,,,,,,,,R_5BbMyj9NaP7q9xv,1,2024-05-30_17h30.53.338,interaction task,2021.2.3,MacIntel,59.88023952,120749,,,,,,,,,,,,,,,,Greater,Smaller,,,-0.280767144,-0.502916667,1,0,0,LeftButton,"[""LeftButton""]",,,,,,,,76,7.5832,space,0,6.6831,,,,,,0,31,31,31,1,2,only_sub_right.png,2,RandomDot18.png,No answer,19,1.1668,,
,,,,,,,,,,,,,,,,,,,,,,,,,,,,,,,R_5BbMyj9NaP7q9xv,1,2024-05-30_17h30.53.338,interaction task,2021.2.3,MacIntel,59.88023952,120749,,,,,,,,,,,,,,,,Greater,Smaller,,,-0.276784939,-0.516631944,1,0,0,LeftButton,"[""LeftButton""]",,,,,,,,71,3.266,space,2,5.2826,,,,,,0,32,32,32,1,2,only_sub_right.png,2,RandomDot16.png,No answer,20,0.2512,,
,,,,,,,,,,,,,,,,,,,,,,,,,,,,,,,R_5BbMyj9NaP7q9xv,1,2024-05-30_17h30.53.338,interaction task,2021.2.3,MacIntel,59.88023952,120749,,,,,,,,,,,,,,,,Smaller,Greater,,,-0.26726888,-0.499548611,1,0,0,LeftButton,"[""LeftButton""]",,,,,3.987467448,3.9995,space,,,,,,,,,,,0,33,33,33,1,1,both_wrong.png,1,RandomDot10.png,No answer,19,,2.7448,
,,,,,,,,,,,,,,,,,,,,,,,,,,,,,,,R_5BbMyj9NaP7q9xv,1,2024-05-30_17h30.53.338,interaction task,2021.2.3,MacIntel,59.88023952,120749,,,,,,,,,,,,,,,,Smaller,Greater,,,-0.275916884,-0.494262153,1,0,0,LeftButton,"[""LeftButton""]",12,4.4828,space,2.0739,,,,,,,,,,,,,,0,34,34,34,1,2,only_sub_right.png,0,RandomDot37.png,No answer,21,,,
,,,,,,,,,,,,,,,,,,,,,,,,,,,,,,,R_5BbMyj9NaP7q9xv,1,2024-05-30_17h30.53.338,interaction task,2021.2.3,MacIntel,59.88023952,120749,,,,,,,,,,,,,,,,Smaller,Greater,,,-0.262738715,-0.5384375,1,0,0,LeftButton,"[""LeftButton""]",14,1.6169,space,0.5833,,,,,,,,,,,,,,0,35,35,35,1,2,only_sub_right.png,0,RandomDot29.png,No answer,20,,,
,,,,,,,,,,,,,,,,,,,,,,,,,,,,,,,R_5BbMyj9NaP7q9xv,1,2024-05-30_17h30.53.338,interaction task,2021.2.3,MacIntel,59.88023952,120749,,,,,,,,,,,,,,,,Smaller,Greater,,,0.289507378,-0.526284722,1,0,0,RightButton,"[""RightButton""]",,,,,,,,,,,,,92.91997668,2.4963,space,7.212094907,5.7458,0,36,36,36,1,1,both_wrong.png,3,RandomDot25.png,No answer,21,,,2.2172
,,,,,,,,,,,,,,,,,,,,,,,,,,,,,,,R_5BbMyj9NaP7q9xv,1,2024-05-30_17h30.53.338,interaction task,2021.2.3,MacIntel,59.88023952,120749,,,,,,,,,,,,,,,,Smaller,Greater,,,0.337749566,-0.458133681,1,0,0,RightButton,"[""RightButton""]",,,,,,,,84,1.9998,space,8,3.2168,,,,,,0,37,37,37,1,3,only_sub_wrong.png,2,RandomDot17.png,No answer,19,0.9834,,
,,,,,,,,,,,,,,,,,,,,,,,,,,,,,,,R_5BbMyj9NaP7q9xv,1,2024-05-30_17h30.53.338,interaction task,2021.2.3,MacIntel,59.88023952,120749,,,,,,,,,,,,,,,,Greater,Smaller,,,-0.251394314,-0.479296875,1,0,0,LeftButton,"[""LeftButton""]",,,,,3.858940972,2.9864,space,,,,,,,,,,,0,38,38,38,1,3,only_sub_wrong.png,1,RandomDot4.png,No answer,20,,1.2665,
,,,,,,,,,,,,,,,,,,,,,,,,,,,,,,,R_5BbMyj9NaP7q9xv,1,2024-05-30_17h30.53.338,interaction task,2021.2.3,MacIntel,59.88023952,120749,,,,,,,,,,,,,,,,Smaller,Greater,,,-0.274500868,-0.509288194,1,0,0,LeftButton,"[""LeftButton""]",14,4.3513,space,2.1514,,,,,,,,,,,,,,0,39,39,39,1,3,only_sub_wrong.png,0,RandomDot26.png,No answer,19,,,
,,,,,,,,,,,,,,,,,,,,,,,,,,,,,,,R_5BbMyj9NaP7q9xv,1,2024-05-30_17h30.53.338,interaction task,2021.2.3,MacIntel,59.88023952,120749,,,,,,,,,,,,,,,,Greater,Smaller,,,0.310904948,-0.497196181,1,0,0,RightButton,"[""RightButton""]",,,,,,,,,,,,,90.40787651,5.1132,space,11.65923559,7.4132,0,40,40,40,1,1,both_wrong.png,3,RandomDot6.png,No answer,21,,,1.1218
,,,,,,,,,,,,,,,,,,,,,,,,,,,,,,,R_5BbMyj9NaP7q9xv,1,2024-05-30_17h30.53.338,interaction task,2021.2.3,MacIntel,59.88023952,120749,,,,,,,,,,,,,,,,Greater,Smaller,,,-0.291981337,-0.511171875,1,0,0,LeftButton,"[""LeftButton""]",,,,,,,,,,,,,,,,,,0,41,41,41,1,0,both_right.png,0,RandomDot34.png,No answer,19,,,
