choose_trial,key_resp.keys,key_resp.rt,key_resp_4.keys,key_resp_4.rt,session_trait,slider_face_judge.response,slider_face_judge.rt,key_resp_3.keys,key_resp_3.rt,face_loop.thisRepN,face_loop.thisTrialN,face_loop.thisN,face_loop.thisIndex,face_loop.ran,face_serial,image_name,isCheck,answer,check_question,participant,session,date,expName,psychopyVersion,OS,frameRate,SONAid,session.thisRepN,session.thisTrialN,session.thisN,session.thisIndex,session.ran,session_serial,slider_judge_img
"[0,1,2,3,4,5,6,7,8,9,10,11,12,13,14,15,16,17,18,19,20,21,22,23,24,25,26,27,28,29,30,31,32,33,34,35,36,37,38,39,40,41,42,43,44,45,46,47,48,49,52,55,56]",space,10.3136,space,13.5445,trustworthy,4.173447537,6.8585,space,3.4354,0,0,0,11,1,12,image/12.jpg,0,0,,R_5CTfFYNxQEuWapL,2,2024-05-28_13h51.58.052,face trait task,2021.2.3,Win32,60.24096386,120980,,,,,,,
,,,,,,4.006423983,3.4762,space,1.7467,0,1,1,6,1,7,image/7.jpg,0,0,,R_5CTfFYNxQEuWapL,2,2024-05-28_13h51.58.052,face trait task,2021.2.3,Win32,60.24096386,120980,,,,,,,
,,,,,,3.736616702,2.3888,space,3.5691,0,2,2,26,1,27,image/27.jpg,0,0,,R_5CTfFYNxQEuWapL,2,2024-05-28_13h51.58.052,face trait task,2021.2.3,Win32,60.24096386,120980,,,,,,,
,,,,,,4.280514049,4.1024,space,0.2871,0,3,3,43,1,44,image/44.jpg,0,0,,R_5CTfFYNxQEuWapL,2,2024-05-28_13h51.58.052,face trait task,2021.2.3,Win32,60.24096386,120980,,,,,,,
,,,,,,3.740899488,9.035,space,0.3685,0,4,4,1,1,2,image/2.jpg,0,0,,R_5CTfFYNxQEuWapL,2,2024-05-28_13h51.58.052,face trait task,2021.2.3,Win32,60.24096386,120980,,,,,,,
,,,,,,3.179871782,5.1602,space,2.3767,0,5,5,45,1,46,image/46.jpg,0,0,,R_5CTfFYNxQEuWapL,2,2024-05-28_13h51.58.052,face trait task,2021.2.3,Win32,60.24096386,120980,,,,,,,
,,,,,,3.008565441,2.2114,space,0.5474,0,6,6,47,1,48,image/48.jpg,0,0,,R_5CTfFYNxQEuWapL,2,2024-05-28_13h51.58.052,face trait task,2021.2.3,Win32,60.24096386,120980,,,,,,,
,,,,,,4.02783752,2.6884,space,0.2412,0,7,7,21,1,22,image/22.jpg,0,0,,R_5CTfFYNxQEuWapL,2,2024-05-28_13h51.58.052,face trait task,2021.2.3,Win32,60.24096386,120980,,,,,,,
,,,,,,1.008565376,6.5671,space,0.6305,0,8,8,50,1,53,image/fill_img.png,1,1,Please move the slider all the way to the LEFT to show that you are paying attention.,R_5CTfFYNxQEuWapL,2,2024-05-28_13h51.58.052,face trait task,2021.2.3,Win32,60.24096386,120980,,,,,,,
,,,,,,3.462527028,6.7502,space,0.2211,0,9,9,5,1,6,image/6.jpg,0,0,,R_5CTfFYNxQEuWapL,2,2024-05-28_13h51.58.052,face trait task,2021.2.3,Win32,60.24096386,120980,,,,,,,
,,,,,,2.987152296,4.0389,space,0.2775,0,10,10,25,1,26,image/26.jpg,0,0,,R_5CTfFYNxQEuWapL,2,2024-05-28_13h51.58.052,face trait task,2021.2.3,Win32,60.24096386,120980,,,,,,,
,,,,,,3.372591268,2.9932,space,0.8861,0,11,11,12,1,13,image/13.jpg,0,0,,R_5CTfFYNxQEuWapL,2,2024-05-28_13h51.58.052,face trait task,2021.2.3,Win32,60.24096386,120980,,,,,,,
,,,,,,4.468950749,2.9203,space,2.5918,0,12,12,19,1,20,image/20.jpg,0,0,,R_5CTfFYNxQEuWapL,2,2024-05-28_13h51.58.052,face trait task,2021.2.3,Win32,60.24096386,120980,,,,,,,
,,,,,,3.466809422,2.1119,space,0.385,0,13,13,48,1,49,image/49.jpg,0,0,,R_5CTfFYNxQEuWapL,2,2024-05-28_13h51.58.052,face trait task,2021.2.3,Win32,60.24096386,120980,,,,,,,
,,,,,,3.993576017,1.6712,space,0.4356,0,14,14,7,1,8,image/8.jpg,0,0,,R_5CTfFYNxQEuWapL,2,2024-05-28_13h51.58.052,face trait task,2021.2.3,Win32,60.24096386,120980,,,,,,,
,,,,,,3.762312634,5.0649,space,0.1421,0,15,15,3,1,4,image/4.jpg,0,0,,R_5CTfFYNxQEuWapL,2,2024-05-28_13h51.58.052,face trait task,2021.2.3,Win32,60.24096386,120980,,,,,,,
,,,,,,3.471092208,14.4868,space,2.2603,0,16,16,15,1,16,image/16.jpg,0,0,,R_5CTfFYNxQEuWapL,2,2024-05-28_13h51.58.052,face trait task,2021.2.3,Win32,60.24096386,120980,,,,,,,
,,,,,,2.99143469,10.8693,space,1.3001,0,17,17,16,1,17,image/17.jpg,0,0,,R_5CTfFYNxQEuWapL,2,2024-05-28_13h51.58.052,face trait task,2021.2.3,Win32,60.24096386,120980,,,,,,,
,,,,,,4.002141589,6.8104,space,0.6673,0,18,18,23,1,24,image/24.jpg,0,0,,R_5CTfFYNxQEuWapL,2,2024-05-28_13h51.58.052,face trait task,2021.2.3,Win32,60.24096386,120980,,,,,,,
,,,,,,3.428265525,6.0115,space,1.2721,0,19,19,30,1,31,image/31.jpg,0,0,,R_5CTfFYNxQEuWapL,2,2024-05-28_13h51.58.052,face trait task,2021.2.3,Win32,60.24096386,120980,,,,,,,
,,,,,,3.518201285,6.02,space,7.4314,0,20,20,40,1,41,image/41.jpg,0,0,,R_5CTfFYNxQEuWapL,2,2024-05-28_13h51.58.052,face trait task,2021.2.3,Win32,60.24096386,120980,,,,,,,
,,,,,,5.000000131,8.9873,space,8.1068,0,21,21,17,1,18,image/18.jpg,0,0,,R_5CTfFYNxQEuWapL,2,2024-05-28_13h51.58.052,face trait task,2021.2.3,Win32,60.24096386,120980,,,,,,,
,,,,,,3.993576017,5.2883,space,3.8152,0,22,22,22,1,23,image/23.jpg,0,0,,R_5CTfFYNxQEuWapL,2,2024-05-28_13h51.58.052,face trait task,2021.2.3,Win32,60.24096386,120980,,,,,,,
,,,,,,3.492505353,7.7332,space,0.6019,0,23,23,29,1,30,image/30.jpg,0,0,,R_5CTfFYNxQEuWapL,2,2024-05-28_13h51.58.052,face trait task,2021.2.3,Win32,60.24096386,120980,,,,,,,
,,,,,,5.000000131,5.4498,space,1.4193,0,24,24,4,1,5,image/5.jpg,0,0,,R_5CTfFYNxQEuWapL,2,2024-05-28_13h51.58.052,face trait task,2021.2.3,Win32,60.24096386,120980,,,,,,,
,,,,,,5.359743171,6.8213,space,0.859,0,25,25,41,1,42,image/42.jpg,0,0,,R_5CTfFYNxQEuWapL,2,2024-05-28_13h51.58.052,face trait task,2021.2.3,Win32,60.24096386,120980,,,,,,,
,,,,,,3.398287199,6.562,space,0.9193,0,26,26,9,1,10,image/10.jpg,0,0,,R_5CTfFYNxQEuWapL,2,2024-05-28_13h51.58.052,face trait task,2021.2.3,Win32,60.24096386,120980,,,,,,,
,,,,,,3.051392124,5.8449,space,0.7248,0,27,27,37,1,38,image/38.jpg,0,0,,R_5CTfFYNxQEuWapL,2,2024-05-28_13h51.58.052,face trait task,2021.2.3,Win32,60.24096386,120980,,,,,,,
,,,,,,4.734475636,6.1809,space,1.0658,0,28,28,31,1,32,image/32.jpg,0,0,,R_5CTfFYNxQEuWapL,2,2024-05-28_13h51.58.052,face trait task,2021.2.3,Win32,60.24096386,120980,,,,,,,
,,,,,,4.995717345,2.7013,space,2.2281,0,29,29,44,1,45,image/45.jpg,0,0,,R_5CTfFYNxQEuWapL,2,2024-05-28_13h51.58.052,face trait task,2021.2.3,Win32,60.24096386,120980,,,,,,,
,,,,,,3.76659542,3.5269,space,2.3405,0,30,30,14,1,15,image/15.jpg,0,0,,R_5CTfFYNxQEuWapL,2,2024-05-28_13h51.58.052,face trait task,2021.2.3,Win32,60.24096386,120980,,,,,,,
,,,,,,6.978587247,3.7395,space,0.5486,0,31,31,52,1,57,image/fill_img.png,1,7,Please move the slider all the way to the RIGHT to show that you are paying attention.,R_5CTfFYNxQEuWapL,2,2024-05-28_13h51.58.052,face trait task,2021.2.3,Win32,60.24096386,120980,,,,,,,
,,,,,,3.672376874,7.3488,space,1.0312,0,32,32,8,1,9,image/9.jpg,0,0,,R_5CTfFYNxQEuWapL,2,2024-05-28_13h51.58.052,face trait task,2021.2.3,Win32,60.24096386,120980,,,,,,,
,,,,,,4.991434951,2.9632,space,1.2186,0,33,33,35,1,36,image/36.jpg,0,0,,R_5CTfFYNxQEuWapL,2,2024-05-28_13h51.58.052,face trait task,2021.2.3,Win32,60.24096386,120980,,,,,,,
,,,,,,3.732334309,3.8069,space,3.4131,0,34,34,36,1,37,image/37.jpg,0,0,,R_5CTfFYNxQEuWapL,2,2024-05-28_13h51.58.052,face trait task,2021.2.3,Win32,60.24096386,120980,,,,,,,
,,,,,,4.563169296,3.5536,space,3.0401,0,35,35,2,1,3,image/3.jpg,0,0,,R_5CTfFYNxQEuWapL,2,2024-05-28_13h51.58.052,face trait task,2021.2.3,Win32,60.24096386,120980,,,,,,,
,,,,,,3.835118034,8.5363,space,6.9502,0,36,36,18,1,19,image/19.jpg,0,0,,R_5CTfFYNxQEuWapL,2,2024-05-28_13h51.58.052,face trait task,2021.2.3,Win32,60.24096386,120980,,,,,,,
,,,,,,4.55888651,7.6899,space,0.9517,0,37,37,27,1,28,image/28.jpg,0,0,,R_5CTfFYNxQEuWapL,2,2024-05-28_13h51.58.052,face trait task,2021.2.3,Win32,60.24096386,120980,,,,,,,
,,,,,,2.781584844,4.4937,space,1.9566,0,38,38,39,1,40,image/40.jpg,0,0,,R_5CTfFYNxQEuWapL,2,2024-05-28_13h51.58.052,face trait task,2021.2.3,Win32,60.24096386,120980,,,,,,,
,,,,,,2.99143469,3.5193,space,2.3052,0,39,39,46,1,47,image/47.jpg,0,0,,R_5CTfFYNxQEuWapL,2,2024-05-28_13h51.58.052,face trait task,2021.2.3,Win32,60.24096386,120980,,,,,,,
,,,,,,4.199143469,4.514,space,4.136,0,40,40,32,1,33,image/33.jpg,0,0,,R_5CTfFYNxQEuWapL,2,2024-05-28_13h51.58.052,face trait task,2021.2.3,Win32,60.24096386,120980,,,,,,,
,,,,,,4.623126338,3.8382,space,3.2985,0,41,41,49,1,50,image/50.jpg,0,0,,R_5CTfFYNxQEuWapL,2,2024-05-28_13h51.58.052,face trait task,2021.2.3,Win32,60.24096386,120980,,,,,,,
,,,,,,4.032119914,4.8359,space,1.6836,0,42,42,28,1,29,image/29.jpg,0,0,,R_5CTfFYNxQEuWapL,2,2024-05-28_13h51.58.052,face trait task,2021.2.3,Win32,60.24096386,120980,,,,,,,
,,,,,,4.494646681,9.4153,space,5.7183,0,43,43,24,1,25,image/25.jpg,0,0,,R_5CTfFYNxQEuWapL,2,2024-05-28_13h51.58.052,face trait task,2021.2.3,Win32,60.24096386,120980,,,,,,,
,,,,,,3.749464668,8.995,space,0.3933,0,44,44,13,1,14,image/14.jpg,0,0,,R_5CTfFYNxQEuWapL,2,2024-05-28_13h51.58.052,face trait task,2021.2.3,Win32,60.24096386,120980,,,,,,,
,,,,,,6.987152034,3.6821,space,0.4841,0,45,45,51,1,56,image/fill_img.png,1,7,Please move the slider all the way to the RIGHT to show that you are paying attention.,R_5CTfFYNxQEuWapL,2,2024-05-28_13h51.58.052,face trait task,2021.2.3,Win32,60.24096386,120980,,,,,,,
,,,,,,4.970021413,3.6664,space,1.8192,0,46,46,0,1,1,image/1.jpg,0,0,,R_5CTfFYNxQEuWapL,2,2024-05-28_13h51.58.052,face trait task,2021.2.3,Win32,60.24096386,120980,,,,,,,
,,,,,,3.475374994,3.4523,space,4.7896,0,47,47,10,1,11,image/11.jpg,0,0,,R_5CTfFYNxQEuWapL,2,2024-05-28_13h51.58.052,face trait task,2021.2.3,Win32,60.24096386,120980,,,,,,,
,,,,,,4.982869379,4.2774,space,2.4178,0,48,48,20,1,21,image/21.jpg,0,0,,R_5CTfFYNxQEuWapL,2,2024-05-28_13h51.58.052,face trait task,2021.2.3,Win32,60.24096386,120980,,,,,,,
,,,,,,3.089936022,7.009,space,3.1939,0,49,49,38,1,39,image/39.jpg,0,0,,R_5CTfFYNxQEuWapL,2,2024-05-28_13h51.58.052,face trait task,2021.2.3,Win32,60.24096386,120980,,,,,,,
,,,,,,2.79443281,4.0484,space,2.7331,0,50,50,42,1,43,image/43.jpg,0,0,,R_5CTfFYNxQEuWapL,2,2024-05-28_13h51.58.052,face trait task,2021.2.3,Win32,60.24096386,120980,,,,,,,
,,,,,,5.248394266,3.3166,space,4.3487,0,51,51,33,1,34,image/34.jpg,0,0,,R_5CTfFYNxQEuWapL,2,2024-05-28_13h51.58.052,face trait task,2021.2.3,Win32,60.24096386,120980,,,,,,,
,,,,,,3.526766857,3.6112,space,2.2779,0,52,52,34,1,35,image/35.jpg,0,0,,R_5CTfFYNxQEuWapL,2,2024-05-28_13h51.58.052,face trait task,2021.2.3,Win32,60.24096386,120980,,,,,,,
,,,,,,,,,,,,,,,,,,,,R_5CTfFYNxQEuWapL,2,2024-05-28_13h51.58.052,face trait task,2021.2.3,Win32,60.24096386,120980,0,0,0,2,1,2,trustworthy.png
,,,,,competent,3.394004413,6.287,space,2.3608,0,0,0,47,1,48,image/48.jpg,0,0,,R_5CTfFYNxQEuWapL,2,2024-05-28_13h51.58.052,face trait task,2021.2.3,Win32,60.24096386,120980,,,,,,,
,,,,,,5.398287069,5.7661,space,1.1529,0,1,1,23,1,24,image/24.jpg,0,0,,R_5CTfFYNxQEuWapL,2,2024-05-28_13h51.58.052,face trait task,2021.2.3,Win32,60.24096386,120980,,,,,,,
,,,,,,4.965739019,6.9667,space,0.9856,0,2,2,42,1,43,image/43.jpg,0,0,,R_5CTfFYNxQEuWapL,2,2024-05-28_13h51.58.052,face trait task,2021.2.3,Win32,60.24096386,120980,,,,,,,
,,,,,,3.35117773,6.9284,space,0.3743,0,3,3,40,1,41,image/41.jpg,0,0,,R_5CTfFYNxQEuWapL,2,2024-05-28_13h51.58.052,face trait task,2021.2.3,Win32,60.24096386,120980,,,,,,,
,,,,,,3.723768737,3.5187,space,1.9225,0,4,4,44,1,45,image/45.jpg,0,0,,R_5CTfFYNxQEuWapL,2,2024-05-28_13h51.58.052,face trait task,2021.2.3,Win32,60.24096386,120980,,,,,,,
,,,,,,3.167023816,5.7889,space,1.5345,0,5,5,16,1,17,image/17.jpg,0,0,,R_5CTfFYNxQEuWapL,2,2024-05-28_13h51.58.052,face trait task,2021.2.3,Win32,60.24096386,120980,,,,,,,
,,,,,,5.565310623,6.116,space,2.7567,0,6,6,35,1,36,image/36.jpg,0,0,,R_5CTfFYNxQEuWapL,2,2024-05-28_13h51.58.052,face trait task,2021.2.3,Win32,60.24096386,120980,,,,,,,
,,,,,,5.021413276,3.4289,space,2.0387,0,7,7,33,1,34,image/34.jpg,0,0,,R_5CTfFYNxQEuWapL,2,2024-05-28_13h51.58.052,face trait task,2021.2.3,Win32,60.24096386,120980,,,,,,,
,,,,,,6.01927221,2.6653,space,2.6098,0,8,8,11,1,12,image/12.jpg,0,0,,R_5CTfFYNxQEuWapL,2,2024-05-28_13h51.58.052,face trait task,2021.2.3,Win32,60.24096386,120980,,,,,,,
,,,,,,4.528908184,7.4348,space,4.1234,0,9,9,1,1,2,image/2.jpg,0,0,,R_5CTfFYNxQEuWapL,2,2024-05-28_13h51.58.052,face trait task,2021.2.3,Win32,60.24096386,120980,,,,,,,
,,,,,,1,2.9293,space,0.4035,0,10,10,50,1,53,image/fill_img.png,1,1,Please move the slider all the way to the LEFT to show that you are paying attention.,R_5CTfFYNxQEuWapL,2,2024-05-28_13h51.58.052,face trait task,2021.2.3,Win32,60.24096386,120980,,,,,,,
,,,,,,5.616702486,2.6398,space,1.1065,0,11,11,19,1,20,image/20.jpg,0,0,,R_5CTfFYNxQEuWapL,2,2024-05-28_13h51.58.052,face trait task,2021.2.3,Win32,60.24096386,120980,,,,,,,
,,,,,,4.186295503,2.8851,space,1.8165,0,12,12,4,1,5,image/5.jpg,0,0,,R_5CTfFYNxQEuWapL,2,2024-05-28_13h51.58.052,face trait task,2021.2.3,Win32,60.24096386,120980,,,,,,,
,,,,,,6.190578158,3.3908,space,1.8012,0,13,13,7,1,8,image/8.jpg,0,0,,R_5CTfFYNxQEuWapL,2,2024-05-28_13h51.58.052,face trait task,2021.2.3,Win32,60.24096386,120980,,,,,,,
,,,,,,2.978586724,2.5278,space,1.8036,0,14,14,46,1,47,image/47.jpg,0,0,,R_5CTfFYNxQEuWapL,2,2024-05-28_13h51.58.052,face trait task,2021.2.3,Win32,60.24096386,120980,,,,,,,
,,,,,,3.698072805,5.475,space,3.3688,0,15,15,13,1,14,image/14.jpg,0,0,,R_5CTfFYNxQEuWapL,2,2024-05-28_13h51.58.052,face trait task,2021.2.3,Win32,60.24096386,120980,,,,,,,
,,,,,,3.805139317,3.9874,space,2.3761,0,16,16,27,1,28,image/28.jpg,0,0,,R_5CTfFYNxQEuWapL,2,2024-05-28_13h51.58.052,face trait task,2021.2.3,Win32,60.24096386,120980,,,,,,,
,,,,,,3.993576017,3.2363,space,3.516,0,17,17,5,1,6,image/6.jpg,0,0,,R_5CTfFYNxQEuWapL,2,2024-05-28_13h51.58.052,face trait task,2021.2.3,Win32,60.24096386,120980,,,,,,,
,,,,,,3.993576017,7.7734,space,7.4987,0,18,18,49,1,50,image/50.jpg,0,0,,R_5CTfFYNxQEuWapL,2,2024-05-28_13h51.58.052,face trait task,2021.2.3,Win32,60.24096386,120980,,,,,,,
,,,,,,4.841541756,9.8156,space,5.2249,0,19,19,29,1,30,image/30.jpg,0,0,,R_5CTfFYNxQEuWapL,2,2024-05-28_13h51.58.052,face trait task,2021.2.3,Win32,60.24096386,120980,,,,,,,
,,,,,,4.494646681,3.6419,space,3.2608,0,20,20,9,1,10,image/10.jpg,0,0,,R_5CTfFYNxQEuWapL,2,2024-05-28_13h51.58.052,face trait task,2021.2.3,Win32,60.24096386,120980,,,,,,,
,,,,,,6.974304069,2.161,space,0.8017,0,21,21,52,1,57,image/fill_img.png,1,7,Please move the slider all the way to the RIGHT to show that you are paying attention.,R_5CTfFYNxQEuWapL,2,2024-05-28_13h51.58.052,face trait task,2021.2.3,Win32,60.24096386,120980,,,,,,,
,,,,,,3.312633833,5.1195,space,2.27,0,22,22,38,1,39,image/39.jpg,0,0,,R_5CTfFYNxQEuWapL,2,2024-05-28_13h51.58.052,face trait task,2021.2.3,Win32,60.24096386,120980,,,,,,,
,,,,,,4.63169191,4.0931,space,1.3368,0,23,23,39,1,40,image/40.jpg,0,0,,R_5CTfFYNxQEuWapL,2,2024-05-28_13h51.58.052,face trait task,2021.2.3,Win32,60.24096386,120980,,,,,,,
,,,,,,5.663811563,3.6491,space,1.2519,0,24,24,25,1,26,image/26.jpg,0,0,,R_5CTfFYNxQEuWapL,2,2024-05-28_13h51.58.052,face trait task,2021.2.3,Win32,60.24096386,120980,,,,,,,
,,,,,,3.997858803,4.4496,space,3.6835,0,25,25,36,1,37,image/37.jpg,0,0,,R_5CTfFYNxQEuWapL,2,2024-05-28_13h51.58.052,face trait task,2021.2.3,Win32,60.24096386,120980,,,,,,,
,,,,,,4.798715465,5.1171,space,2.9184,0,26,26,37,1,38,image/38.jpg,0,0,,R_5CTfFYNxQEuWapL,2,2024-05-28_13h51.58.052,face trait task,2021.2.3,Win32,60.24096386,120980,,,,,,,
,,,,,,4.978586985,2.8689,space,2.2675,0,27,27,31,1,32,image/32.jpg,0,0,,R_5CTfFYNxQEuWapL,2,2024-05-28_13h51.58.052,face trait task,2021.2.3,Win32,60.24096386,120980,,,,,,,
,,,,,,5.321199274,4.21,space,2.6159,0,28,28,6,1,7,image/7.jpg,0,0,,R_5CTfFYNxQEuWapL,2,2024-05-28_13h51.58.052,face trait task,2021.2.3,Win32,60.24096386,120980,,,,,,,
,,,,,,5.000000131,4.0156,space,1.201,0,29,29,43,1,44,image/44.jpg,0,0,,R_5CTfFYNxQEuWapL,2,2024-05-28_13h51.58.052,face trait task,2021.2.3,Win32,60.24096386,120980,,,,,,,
,,,,,,5.745182144,4.5447,space,2.0437,0,30,30,41,1,42,image/42.jpg,0,0,,R_5CTfFYNxQEuWapL,2,2024-05-28_13h51.58.052,face trait task,2021.2.3,Win32,60.24096386,120980,,,,,,,
,,,,,,4.404710921,5.3879,space,1.8355,0,31,31,26,1,27,image/27.jpg,0,0,,R_5CTfFYNxQEuWapL,2,2024-05-28_13h51.58.052,face trait task,2021.2.3,Win32,60.24096386,120980,,,,,,,
,,,,,,3.423983131,6.3767,space,1.7523,0,32,32,34,1,35,image/35.jpg,0,0,,R_5CTfFYNxQEuWapL,2,2024-05-28_13h51.58.052,face trait task,2021.2.3,Win32,60.24096386,120980,,,,,,,
,,,,,,3.205567713,5.5274,space,2.6433,0,33,33,32,1,33,image/33.jpg,0,0,,R_5CTfFYNxQEuWapL,2,2024-05-28_13h51.58.052,face trait task,2021.2.3,Win32,60.24096386,120980,,,,,,,
,,,,,,4.704496919,6.4315,space,0.7402,0,34,34,20,1,21,image/21.jpg,0,0,,R_5CTfFYNxQEuWapL,2,2024-05-28_13h51.58.052,face trait task,2021.2.3,Win32,60.24096386,120980,,,,,,,
,,,,,,3.680942446,5.5127,space,0.9232,0,35,35,14,1,15,image/15.jpg,0,0,,R_5CTfFYNxQEuWapL,2,2024-05-28_13h51.58.052,face trait task,2021.2.3,Win32,60.24096386,120980,,,,,,,
,,,,,,3.184154176,4.0816,space,1.188,0,36,36,30,1,31,image/31.jpg,0,0,,R_5CTfFYNxQEuWapL,2,2024-05-28_13h51.58.052,face trait task,2021.2.3,Win32,60.24096386,120980,,,,,,,
,,,,,,4.010706769,4.2097,space,1.2831,0,37,37,18,1,19,image/19.jpg,0,0,,R_5CTfFYNxQEuWapL,2,2024-05-28_13h51.58.052,face trait task,2021.2.3,Win32,60.24096386,120980,,,,,,,
,,,,,,5.14561054,4.6684,space,3.0718,0,38,38,28,1,29,image/29.jpg,0,0,,R_5CTfFYNxQEuWapL,2,2024-05-28_13h51.58.052,face trait task,2021.2.3,Win32,60.24096386,120980,,,,,,,
,,,,,,5.693790281,7.1345,space,4.5022,0,39,39,0,1,1,image/1.jpg,0,0,,R_5CTfFYNxQEuWapL,2,2024-05-28_13h51.58.052,face trait task,2021.2.3,Win32,60.24096386,120980,,,,,,,
,,,,,,3.428265525,4.0799,space,2.5738,0,40,40,48,1,49,image/49.jpg,0,0,,R_5CTfFYNxQEuWapL,2,2024-05-28_13h51.58.052,face trait task,2021.2.3,Win32,60.24096386,120980,,,,,,,
,,,,,,4.349036664,3.534,space,1.4245,0,41,41,2,1,3,image/3.jpg,0,0,,R_5CTfFYNxQEuWapL,2,2024-05-28_13h51.58.052,face trait task,2021.2.3,Win32,60.24096386,120980,,,,,,,
,,,,,,6.987152034,3.0715,space,0.387,0,42,42,51,1,56,image/fill_img.png,1,7,Please move the slider all the way to the RIGHT to show that you are paying attention.,R_5CTfFYNxQEuWapL,2,2024-05-28_13h51.58.052,face trait task,2021.2.3,Win32,60.24096386,120980,,,,,,,
,,,,,,4.987152165,5.6825,space,1.1524,0,43,43,17,1,18,image/18.jpg,0,0,,R_5CTfFYNxQEuWapL,2,2024-05-28_13h51.58.052,face trait task,2021.2.3,Win32,60.24096386,120980,,,,,,,
,,,,,,5.569593409,4.5098,space,1.3532,0,44,44,3,1,4,image/4.jpg,0,0,,R_5CTfFYNxQEuWapL,2,2024-05-28_13h51.58.052,face trait task,2021.2.3,Win32,60.24096386,120980,,,,,,,
,,,,,,3.980728051,2.0397,space,1.3112,0,45,45,22,1,23,image/23.jpg,0,0,,R_5CTfFYNxQEuWapL,2,2024-05-28_13h51.58.052,face trait task,2021.2.3,Win32,60.24096386,120980,,,,,,,
,,,,,,3.976445658,8.2829,space,1.2181,0,46,46,12,1,13,image/13.jpg,0,0,,R_5CTfFYNxQEuWapL,2,2024-05-28_13h51.58.052,face trait task,2021.2.3,Win32,60.24096386,120980,,,,,,,
,,,,,,4.922912336,3.2202,space,2.268,0,47,47,21,1,22,image/22.jpg,0,0,,R_5CTfFYNxQEuWapL,2,2024-05-28_13h51.58.052,face trait task,2021.2.3,Win32,60.24096386,120980,,,,,,,
,,,,,,3.06424009,6.4776,space,3.9495,0,48,48,24,1,25,image/25.jpg,0,0,,R_5CTfFYNxQEuWapL,2,2024-05-28_13h51.58.052,face trait task,2021.2.3,Win32,60.24096386,120980,,,,,,,
,,,,,,3.406852379,4.7719,space,1.2034,0,49,49,10,1,11,image/11.jpg,0,0,,R_5CTfFYNxQEuWapL,2,2024-05-28_13h51.58.052,face trait task,2021.2.3,Win32,60.24096386,120980,,,,,,,
,,,,,,3.967880086,3.0855,space,2.0187,0,50,50,45,1,46,image/46.jpg,0,0,,R_5CTfFYNxQEuWapL,2,2024-05-28_13h51.58.052,face trait task,2021.2.3,Win32,60.24096386,120980,,,,,,,
,,,,,,3.877944325,6.9996,space,2.4552,0,51,51,15,1,16,image/16.jpg,0,0,,R_5CTfFYNxQEuWapL,2,2024-05-28_13h51.58.052,face trait task,2021.2.3,Win32,60.24096386,120980,,,,,,,
,,,,,,3.265524756,5.2806,space,2.3013,0,52,52,8,1,9,image/9.jpg,0,0,,R_5CTfFYNxQEuWapL,2,2024-05-28_13h51.58.052,face trait task,2021.2.3,Win32,60.24096386,120980,,,,,,,
,,,,,,,,,,,,,,,,,,,,R_5CTfFYNxQEuWapL,2,2024-05-28_13h51.58.052,face trait task,2021.2.3,Win32,60.24096386,120980,0,1,1,1,1,1,competent.png
,,,,,critical,3.650963728,5.1541,space,1.6343,0,0,0,37,1,38,image/38.jpg,0,0,,R_5CTfFYNxQEuWapL,2,2024-05-28_13h51.58.052,face trait task,2021.2.3,Win32,60.24096386,120980,,,,,,,
,,,,,,4.653105056,4.1672,space,3.6478,0,1,1,38,1,39,image/39.jpg,0,0,,R_5CTfFYNxQEuWapL,2,2024-05-28_13h51.58.052,face trait task,2021.2.3,Win32,60.24096386,120980,,,,,,,
,,,,,,4.186295503,3.2173,space,1.6229,0,2,2,12,1,13,image/13.jpg,0,0,,R_5CTfFYNxQEuWapL,2,2024-05-28_13h51.58.052,face trait task,2021.2.3,Win32,60.24096386,120980,,,,,,,
,,,,,,4.426124458,3.1324,space,4.2893,0,3,3,8,1,9,image/9.jpg,0,0,,R_5CTfFYNxQEuWapL,2,2024-05-28_13h51.58.052,face trait task,2021.2.3,Win32,60.24096386,120980,,,,,,,
,,,,,,4.970021413,3.009,space,2.1851,0,4,4,7,1,8,image/8.jpg,0,0,,R_5CTfFYNxQEuWapL,2,2024-05-28_13h51.58.052,face trait task,2021.2.3,Win32,60.24096386,120980,,,,,,,
,,,,,,3.368308482,3.0173,space,1.8122,0,5,5,15,1,16,image/16.jpg,0,0,,R_5CTfFYNxQEuWapL,2,2024-05-28_13h51.58.052,face trait task,2021.2.3,Win32,60.24096386,120980,,,,,,,
,,,,,,3.980728051,2.8329,space,1.9736,0,6,6,14,1,15,image/15.jpg,0,0,,R_5CTfFYNxQEuWapL,2,2024-05-28_13h51.58.052,face trait task,2021.2.3,Win32,60.24096386,120980,,,,,,,
,,,,,,3.830835248,4.7261,space,1.4981,0,7,7,24,1,25,image/25.jpg,0,0,,R_5CTfFYNxQEuWapL,2,2024-05-28_13h51.58.052,face trait task,2021.2.3,Win32,60.24096386,120980,,,,,,,
,,,,,,3.000000261,3.0058,space,2.1928,0,8,8,22,1,23,image/23.jpg,0,0,,R_5CTfFYNxQEuWapL,2,2024-05-28_13h51.58.052,face trait task,2021.2.3,Win32,60.24096386,120980,,,,,,,
,,,,,,1.004282786,3.7169,space,0.6362,0,9,9,50,1,53,image/fill_img.png,1,1,Please move the slider all the way to the LEFT to show that you are paying attention.,R_5CTfFYNxQEuWapL,2,2024-05-28_13h51.58.052,face trait task,2021.2.3,Win32,60.24096386,120980,,,,,,,
,,,,,,5.081370711,3.5352,space,2.8803,0,10,10,44,1,45,image/45.jpg,0,0,,R_5CTfFYNxQEuWapL,2,2024-05-28_13h51.58.052,face trait task,2021.2.3,Win32,60.24096386,120980,,,,,,,
,,,,,,6.995717606,3.3203,space,0.48,0,11,11,52,1,57,image/fill_img.png,1,7,Please move the slider all the way to the RIGHT to show that you are paying attention.,R_5CTfFYNxQEuWapL,2,2024-05-28_13h51.58.052,face trait task,2021.2.3,Win32,60.24096386,120980,,,,,,,
,,,,,,6.301927456,5.2698,space,5.5441,0,12,12,30,1,31,image/31.jpg,0,0,,R_5CTfFYNxQEuWapL,2,2024-05-28_13h51.58.052,face trait task,2021.2.3,Win32,60.24096386,120980,,,,,,,
,,,,,,4.862955294,2.9573,space,3.4106,0,13,13,4,1,5,image/5.jpg,0,0,,R_5CTfFYNxQEuWapL,2,2024-05-28_13h51.58.052,face trait task,2021.2.3,Win32,60.24096386,120980,,,,,,,
,,,,,,5.860814227,3.0718,space,2.4575,0,14,14,25,1,26,image/26.jpg,0,0,,R_5CTfFYNxQEuWapL,2,2024-05-28_13h51.58.052,face trait task,2021.2.3,Win32,60.24096386,120980,,,,,,,
,,,,,,3.364025696,3.5725,space,2.6778,0,15,15,28,1,29,image/29.jpg,0,0,,R_5CTfFYNxQEuWapL,2,2024-05-28_13h51.58.052,face trait task,2021.2.3,Win32,60.24096386,120980,,,,,,,
,,,,,,6.991435212,2.5539,space,0.4898,0,16,16,51,1,56,image/fill_img.png,1,7,Please move the slider all the way to the RIGHT to show that you are paying attention.,R_5CTfFYNxQEuWapL,2,2024-05-28_13h51.58.052,face trait task,2021.2.3,Win32,60.24096386,120980,,,,,,,
,,,,,,3.993576017,4.5804,space,0.8593,0,17,17,49,1,50,image/50.jpg,0,0,,R_5CTfFYNxQEuWapL,2,2024-05-28_13h51.58.052,face trait task,2021.2.3,Win32,60.24096386,120980,,,,,,,
,,,,,,4.760171568,2.9179,space,2.7858,0,18,18,36,1,37,image/37.jpg,0,0,,R_5CTfFYNxQEuWapL,2,2024-05-28_13h51.58.052,face trait task,2021.2.3,Win32,60.24096386,120980,,,,,,,
,,,,,,4.396145741,5.8452,space,2.9463,0,19,19,18,1,19,image/19.jpg,0,0,,R_5CTfFYNxQEuWapL,2,2024-05-28_13h51.58.052,face trait task,2021.2.3,Win32,60.24096386,120980,,,,,,,
,,,,,,2.961456364,4.6987,space,2.531,0,20,20,41,1,42,image/42.jpg,0,0,,R_5CTfFYNxQEuWapL,2,2024-05-28_13h51.58.052,face trait task,2021.2.3,Win32,60.24096386,120980,,,,,,,
,,,,,,5.222698334,4.9258,space,2.1706,0,21,21,6,1,7,image/7.jpg,0,0,,R_5CTfFYNxQEuWapL,2,2024-05-28_13h51.58.052,face trait task,2021.2.3,Win32,60.24096386,120980,,,,,,,
,,,,,,5.847966262,4.033,space,2.853,0,22,22,21,1,22,image/22.jpg,0,0,,R_5CTfFYNxQEuWapL,2,2024-05-28_13h51.58.052,face trait task,2021.2.3,Win32,60.24096386,120980,,,,,,,
,,,,,,5.364025957,7.7929,space,5.024,0,23,23,3,1,4,image/4.jpg,0,0,,R_5CTfFYNxQEuWapL,2,2024-05-28_13h51.58.052,face trait task,2021.2.3,Win32,60.24096386,120980,,,,,,,
,,,,,,3.552462788,5.1025,space,1.3889,0,24,24,5,1,6,image/6.jpg,0,0,,R_5CTfFYNxQEuWapL,2,2024-05-28_13h51.58.052,face trait task,2021.2.3,Win32,60.24096386,120980,,,,,,,
,,,,,,3.997858803,3.3678,space,2.1864,0,25,25,35,1,36,image/36.jpg,0,0,,R_5CTfFYNxQEuWapL,2,2024-05-28_13h51.58.052,face trait task,2021.2.3,Win32,60.24096386,120980,,,,,,,
,,,,,,4.957173448,3.1762,space,1.0926,0,26,26,29,1,30,image/30.jpg,0,0,,R_5CTfFYNxQEuWapL,2,2024-05-28_13h51.58.052,face trait task,2021.2.3,Win32,60.24096386,120980,,,,,,,
,,,,,,3.338329764,4.7457,space,0.836,0,27,27,9,1,10,image/10.jpg,0,0,,R_5CTfFYNxQEuWapL,2,2024-05-28_13h51.58.052,face trait task,2021.2.3,Win32,60.24096386,120980,,,,,,,
,,,,,,3.047109338,4.7528,space,2.1113,0,28,28,48,1,49,image/49.jpg,0,0,,R_5CTfFYNxQEuWapL,2,2024-05-28_13h51.58.052,face trait task,2021.2.3,Win32,60.24096386,120980,,,,,,,
,,,,,,5.706638246,4.1729,space,1.3589,0,29,29,16,1,17,image/17.jpg,0,0,,R_5CTfFYNxQEuWapL,2,2024-05-28_13h51.58.052,face trait task,2021.2.3,Win32,60.24096386,120980,,,,,,,
,,,,,,4.417558887,7.4075,space,3.7276,0,30,30,1,1,2,image/2.jpg,0,0,,R_5CTfFYNxQEuWapL,2,2024-05-28_13h51.58.052,face trait task,2021.2.3,Win32,60.24096386,120980,,,,,,,
,,,,,,4.777301927,5.3342,space,0.7488,0,31,31,42,1,43,image/43.jpg,0,0,,R_5CTfFYNxQEuWapL,2,2024-05-28_13h51.58.052,face trait task,2021.2.3,Win32,60.24096386,120980,,,,,,,
,,,,,,4.498929467,4.2299,space,1.3891,0,32,32,33,1,34,image/34.jpg,0,0,,R_5CTfFYNxQEuWapL,2,2024-05-28_13h51.58.052,face trait task,2021.2.3,Win32,60.24096386,120980,,,,,,,
,,,,,,5.355460385,2.7244,space,1.9547,0,33,33,40,1,41,image/41.jpg,0,0,,R_5CTfFYNxQEuWapL,2,2024-05-28_13h51.58.052,face trait task,2021.2.3,Win32,60.24096386,120980,,,,,,,
,,,,,,3.989293623,3.3234,space,0.9133,0,34,34,20,1,21,image/21.jpg,0,0,,R_5CTfFYNxQEuWapL,2,2024-05-28_13h51.58.052,face trait task,2021.2.3,Win32,60.24096386,120980,,,,,,,
,,,,,,3.629550583,2.9874,space,1.9112,0,35,35,2,1,3,image/3.jpg,0,0,,R_5CTfFYNxQEuWapL,2,2024-05-28_13h51.58.052,face trait task,2021.2.3,Win32,60.24096386,120980,,,,,,,
,,,,,,4.297644801,4.4876,space,0.9034,0,36,36,17,1,18,image/18.jpg,0,0,,R_5CTfFYNxQEuWapL,2,2024-05-28_13h51.58.052,face trait task,2021.2.3,Win32,60.24096386,120980,,,,,,,
,,,,,,4.36188463,4.71,space,1.5224,0,37,37,26,1,27,image/27.jpg,0,0,,R_5CTfFYNxQEuWapL,2,2024-05-28_13h51.58.052,face trait task,2021.2.3,Win32,60.24096386,120980,,,,,,,
,,,,,,4.974304199,2.2873,space,1.9692,0,38,38,39,1,40,image/40.jpg,0,0,,R_5CTfFYNxQEuWapL,2,2024-05-28_13h51.58.052,face trait task,2021.2.3,Win32,60.24096386,120980,,,,,,,
,,,,,,3.453961456,2.5075,space,3.0281,0,39,39,10,1,11,image/11.jpg,0,0,,R_5CTfFYNxQEuWapL,2,2024-05-28_13h51.58.052,face trait task,2021.2.3,Win32,60.24096386,120980,,,,,,,
,,,,,,4.970021413,4.6387,space,2.0456,0,40,40,45,1,46,image/46.jpg,0,0,,R_5CTfFYNxQEuWapL,2,2024-05-28_13h51.58.052,face trait task,2021.2.3,Win32,60.24096386,120980,,,,,,,
,,,,,,4.002141589,3.601,space,1.691,0,41,41,11,1,12,image/12.jpg,0,0,,R_5CTfFYNxQEuWapL,2,2024-05-28_13h51.58.052,face trait task,2021.2.3,Win32,60.24096386,120980,,,,,,,
,,,,,,4.73875803,3.2944,space,1.3404,0,42,42,31,1,32,image/32.jpg,0,0,,R_5CTfFYNxQEuWapL,2,2024-05-28_13h51.58.052,face trait task,2021.2.3,Win32,60.24096386,120980,,,,,,,
,,,,,,3.539614822,3.4229,space,1.1467,0,43,43,13,1,14,image/14.jpg,0,0,,R_5CTfFYNxQEuWapL,2,2024-05-28_13h51.58.052,face trait task,2021.2.3,Win32,60.24096386,120980,,,,,,,
,,,,,,3.24411161,2.8603,space,0.8852,0,44,44,46,1,47,image/47.jpg,0,0,,R_5CTfFYNxQEuWapL,2,2024-05-28_13h51.58.052,face trait task,2021.2.3,Win32,60.24096386,120980,,,,,,,
,,,,,,5.000000131,2.4885,space,1.841,0,45,45,0,1,1,image/1.jpg,0,0,,R_5CTfFYNxQEuWapL,2,2024-05-28_13h51.58.052,face trait task,2021.2.3,Win32,60.24096386,120980,,,,,,,
,,,,,,3.963597692,4.4941,space,1.1455,0,46,46,43,1,44,image/44.jpg,0,0,,R_5CTfFYNxQEuWapL,2,2024-05-28_13h51.58.052,face trait task,2021.2.3,Win32,60.24096386,120980,,,,,,,
,,,,,,4.211991435,2.9763,space,0.7251,0,47,47,32,1,33,image/33.jpg,0,0,,R_5CTfFYNxQEuWapL,2,2024-05-28_13h51.58.052,face trait task,2021.2.3,Win32,60.24096386,120980,,,,,,,
,,,,,,4.002141589,4.5854,space,0.9689,0,48,48,23,1,24,image/24.jpg,0,0,,R_5CTfFYNxQEuWapL,2,2024-05-28_13h51.58.052,face trait task,2021.2.3,Win32,60.24096386,120980,,,,,,,
,,,,,,4.284796835,2.569,space,1.7692,0,49,49,47,1,48,image/48.jpg,0,0,,R_5CTfFYNxQEuWapL,2,2024-05-28_13h51.58.052,face trait task,2021.2.3,Win32,60.24096386,120980,,,,,,,
,,,,,,3.355460516,2.484,space,1.4438,0,50,50,34,1,35,image/35.jpg,0,0,,R_5CTfFYNxQEuWapL,2,2024-05-28_13h51.58.052,face trait task,2021.2.3,Win32,60.24096386,120980,,,,,,,
,,,,,,4.563169296,4.6362,space,0.6777,0,51,51,27,1,28,image/28.jpg,0,0,,R_5CTfFYNxQEuWapL,2,2024-05-28_13h51.58.052,face trait task,2021.2.3,Win32,60.24096386,120980,,,,,,,
,,,,,,4.777301927,4.1434,space,1.5622,0,52,52,19,1,20,image/20.jpg,0,0,,R_5CTfFYNxQEuWapL,2,2024-05-28_13h51.58.052,face trait task,2021.2.3,Win32,60.24096386,120980,,,,,,,
,,,,,,,,,,,,,,,,,,,,R_5CTfFYNxQEuWapL,2,2024-05-28_13h51.58.052,face trait task,2021.2.3,Win32,60.24096386,120980,0,2,2,0,1,0,critical.png
,,,,,friendly,3.35117773,6.3631,space,0.7613,0,0,0,40,1,41,image/41.jpg,0,0,,R_5CTfFYNxQEuWapL,2,2024-05-28_13h51.58.052,face trait task,2021.2.3,Win32,60.24096386,120980,,,,,,,
,,,,,,3.993576017,6.7711,space,0.8134,0,1,1,15,1,16,image/16.jpg,0,0,,R_5CTfFYNxQEuWapL,2,2024-05-28_13h51.58.052,face trait task,2021.2.3,Win32,60.24096386,120980,,,,,,,
,,,,,,3.338329764,3.4898,space,1.2698,0,2,2,42,1,43,image/43.jpg,0,0,,R_5CTfFYNxQEuWapL,2,2024-05-28_13h51.58.052,face trait task,2021.2.3,Win32,60.24096386,120980,,,,,,,
,,,,,,4.768736747,4.5908,space,1.2081,0,3,3,28,1,29,image/29.jpg,0,0,,R_5CTfFYNxQEuWapL,2,2024-05-28_13h51.58.052,face trait task,2021.2.3,Win32,60.24096386,120980,,,,,,,
,,,,,,4.014989555,2.8154,space,2.8616,0,4,4,6,1,7,image/7.jpg,0,0,,R_5CTfFYNxQEuWapL,2,2024-05-28_13h51.58.052,face trait task,2021.2.3,Win32,60.24096386,120980,,,,,,,
,,,,,,1.008565376,2.9596,space,0.3955,0,5,5,50,1,53,image/fill_img.png,1,1,Please move the slider all the way to the LEFT to show that you are paying attention.,R_5CTfFYNxQEuWapL,2,2024-05-28_13h51.58.052,face trait task,2021.2.3,Win32,60.24096386,120980,,,,,,,
,,,,,,4.241970152,5.5423,space,2.6208,0,6,6,10,1,11,image/11.jpg,0,0,,R_5CTfFYNxQEuWapL,2,2024-05-28_13h51.58.052,face trait task,2021.2.3,Win32,60.24096386,120980,,,,,,,
,,,,,,3.899357863,8.666,space,4.5597,0,7,7,44,1,45,image/45.jpg,0,0,,R_5CTfFYNxQEuWapL,2,2024-05-28_13h51.58.052,face trait task,2021.2.3,Win32,60.24096386,120980,,,,,,,
,,,,,,3.989293623,3.2666,space,1.4533,0,8,8,24,1,25,image/25.jpg,0,0,,R_5CTfFYNxQEuWapL,2,2024-05-28_13h51.58.052,face trait task,2021.2.3,Win32,60.24096386,120980,,,,,,,
,,,,,,3.304068653,4.8586,space,1.7038,0,9,9,22,1,23,image/23.jpg,0,0,,R_5CTfFYNxQEuWapL,2,2024-05-28_13h51.58.052,face trait task,2021.2.3,Win32,60.24096386,120980,,,,,,,
,,,,,,3.26124197,5.0082,space,1.4302,0,10,10,29,1,30,image/30.jpg,0,0,,R_5CTfFYNxQEuWapL,2,2024-05-28_13h51.58.052,face trait task,2021.2.3,Win32,60.24096386,120980,,,,,,,
,,,,,,4.811563431,4.24,space,2.4545,0,11,11,26,1,27,image/27.jpg,0,0,,R_5CTfFYNxQEuWapL,2,2024-05-28_13h51.58.052,face trait task,2021.2.3,Win32,60.24096386,120980,,,,,,,
,,,,,,4.674518201,5.7841,space,3.521,0,12,12,27,1,28,image/28.jpg,0,0,,R_5CTfFYNxQEuWapL,2,2024-05-28_13h51.58.052,face trait task,2021.2.3,Win32,60.24096386,120980,,,,,,,
,,,,,,3.989293623,3.9086,space,0.8126,0,13,13,19,1,20,image/20.jpg,0,0,,R_5CTfFYNxQEuWapL,2,2024-05-28_13h51.58.052,face trait task,2021.2.3,Win32,60.24096386,120980,,,,,,,
,,,,,,3.66809448,2.5622,space,1.9063,0,14,14,38,1,39,image/39.jpg,0,0,,R_5CTfFYNxQEuWapL,2,2024-05-28_13h51.58.052,face trait task,2021.2.3,Win32,60.24096386,120980,,,,,,,
,,,,,,3.479657388,4.1282,space,2.3754,0,15,15,39,1,40,image/40.jpg,0,0,,R_5CTfFYNxQEuWapL,2,2024-05-28_13h51.58.052,face trait task,2021.2.3,Win32,60.24096386,120980,,,,,,,
,,,,,,3.985010837,2.7256,space,2.0419,0,16,16,13,1,14,image/14.jpg,0,0,,R_5CTfFYNxQEuWapL,2,2024-05-28_13h51.58.052,face trait task,2021.2.3,Win32,60.24096386,120980,,,,,,,
,,,,,,5.492505615,6.8163,space,3.8279,0,17,17,47,1,48,image/48.jpg,0,0,,R_5CTfFYNxQEuWapL,2,2024-05-28_13h51.58.052,face trait task,2021.2.3,Win32,60.24096386,120980,,,,,,,
,,,,,,5.770878075,3.7515,space,1.7861,0,18,18,2,1,3,image/3.jpg,0,0,,R_5CTfFYNxQEuWapL,2,2024-05-28_13h51.58.052,face trait task,2021.2.3,Win32,60.24096386,120980,,,,,,,
,,,,,,5.526766726,2.6377,space,2.6452,0,19,19,3,1,4,image/4.jpg,0,0,,R_5CTfFYNxQEuWapL,2,2024-05-28_13h51.58.052,face trait task,2021.2.3,Win32,60.24096386,120980,,,,,,,
,,,,,,5.012848096,6.3235,space,3.0253,0,20,20,43,1,44,image/44.jpg,0,0,,R_5CTfFYNxQEuWapL,2,2024-05-28_13h51.58.052,face trait task,2021.2.3,Win32,60.24096386,120980,,,,,,,
,,,,,,3.077088056,2.8865,space,2.2008,0,21,21,8,1,9,image/9.jpg,0,0,,R_5CTfFYNxQEuWapL,2,2024-05-28_13h51.58.052,face trait task,2021.2.3,Win32,60.24096386,120980,,,,,,,
,,,,,,3.629550583,5.0202,space,2.599,0,22,22,12,1,13,image/13.jpg,0,0,,R_5CTfFYNxQEuWapL,2,2024-05-28_13h51.58.052,face trait task,2021.2.3,Win32,60.24096386,120980,,,,,,,
,,,,,,5.749464929,4.225,space,3.3695,0,23,23,11,1,12,image/12.jpg,0,0,,R_5CTfFYNxQEuWapL,2,2024-05-28_13h51.58.052,face trait task,2021.2.3,Win32,60.24096386,120980,,,,,,,
,,,,,,3.389721627,4.5345,space,1.7095,0,24,24,45,1,46,image/46.jpg,0,0,,R_5CTfFYNxQEuWapL,2,2024-05-28_13h51.58.052,face trait task,2021.2.3,Win32,60.24096386,120980,,,,,,,
,,,,,,5.955032381,5.3594,space,4.1835,0,25,25,35,1,36,image/36.jpg,0,0,,R_5CTfFYNxQEuWapL,2,2024-05-28_13h51.58.052,face trait task,2021.2.3,Win32,60.24096386,120980,,,,,,,
,,,,,,5.531049512,3.2532,space,1.8696,0,26,26,32,1,33,image/33.jpg,0,0,,R_5CTfFYNxQEuWapL,2,2024-05-28_13h51.58.052,face trait task,2021.2.3,Win32,60.24096386,120980,,,,,,,
,,,,,,6.970021675,1.9009,space,0.551,0,27,27,51,1,56,image/fill_img.png,1,7,Please move the slider all the way to the RIGHT to show that you are paying attention.,R_5CTfFYNxQEuWapL,2,2024-05-28_13h51.58.052,face trait task,2021.2.3,Win32,60.24096386,120980,,,,,,,
,,,,,,4.263383298,7.9657,space,5.0672,0,28,28,34,1,35,image/35.jpg,0,0,,R_5CTfFYNxQEuWapL,2,2024-05-28_13h51.58.052,face trait task,2021.2.3,Win32,60.24096386,120980,,,,,,,
,,,,,,2.704497049,4.3105,space,1.4907,0,29,29,16,1,17,image/17.jpg,0,0,,R_5CTfFYNxQEuWapL,2,2024-05-28_13h51.58.052,face trait task,2021.2.3,Win32,60.24096386,120980,,,,,,,
,,,,,,6.98286964,4.1669,space,0.3911,0,30,30,52,1,57,image/fill_img.png,1,7,Please move the slider all the way to the RIGHT to show that you are paying attention.,R_5CTfFYNxQEuWapL,2,2024-05-28_13h51.58.052,face trait task,2021.2.3,Win32,60.24096386,120980,,,,,,,
,,,,,,4.12633846,5.7809,space,2.5633,0,31,31,41,1,42,image/42.jpg,0,0,,R_5CTfFYNxQEuWapL,2,2024-05-28_13h51.58.052,face trait task,2021.2.3,Win32,60.24096386,120980,,,,,,,
,,,,,,3.659528908,4.2349,space,2.3348,0,32,32,37,1,38,image/38.jpg,0,0,,R_5CTfFYNxQEuWapL,2,2024-05-28_13h51.58.052,face trait task,2021.2.3,Win32,60.24096386,120980,,,,,,,
,,,,,,3.997858803,2.0178,space,2.249,0,33,33,31,1,32,image/32.jpg,0,0,,R_5CTfFYNxQEuWapL,2,2024-05-28_13h51.58.052,face trait task,2021.2.3,Win32,60.24096386,120980,,,,,,,
,,,,,,5.2355463,1.8603,space,1.5344,0,34,34,20,1,21,image/21.jpg,0,0,,R_5CTfFYNxQEuWapL,2,2024-05-28_13h51.58.052,face trait task,2021.2.3,Win32,60.24096386,120980,,,,,,,
,,,,,,5.308351308,3.1871,space,1.8924,0,35,35,49,1,50,image/50.jpg,0,0,,R_5CTfFYNxQEuWapL,2,2024-05-28_13h51.58.052,face trait task,2021.2.3,Win32,60.24096386,120980,,,,,,,
,,,,,,3.680942446,4.7358,space,2.9524,0,36,36,21,1,22,image/22.jpg,0,0,,R_5CTfFYNxQEuWapL,2,2024-05-28_13h51.58.052,face trait task,2021.2.3,Win32,60.24096386,120980,,,,,,,
,,,,,,4.211991435,5.6729,space,2.9219,0,37,37,7,1,8,image/8.jpg,0,0,,R_5CTfFYNxQEuWapL,2,2024-05-28_13h51.58.052,face trait task,2021.2.3,Win32,60.24096386,120980,,,,,,,
,,,,,,4.019271949,3.2591,space,2.3878,0,38,38,0,1,1,image/1.jpg,0,0,,R_5CTfFYNxQEuWapL,2,2024-05-28_13h51.58.052,face trait task,2021.2.3,Win32,60.24096386,120980,,,,,,,
,,,,,,3.723768737,2.0556,space,5.7161,0,39,39,25,1,26,image/26.jpg,0,0,,R_5CTfFYNxQEuWapL,2,2024-05-28_13h51.58.052,face trait task,2021.2.3,Win32,60.24096386,120980,,,,,,,
,,,,,,5.659529169,5.1966,space,3.0551,0,40,40,48,1,49,image/49.jpg,0,0,,R_5CTfFYNxQEuWapL,2,2024-05-28_13h51.58.052,face trait task,2021.2.3,Win32,60.24096386,120980,,,,,,,
,,,,,,2.965738758,4.4425,space,3.9944,0,41,41,30,1,31,image/31.jpg,0,0,,R_5CTfFYNxQEuWapL,2,2024-05-28_13h51.58.052,face trait task,2021.2.3,Win32,60.24096386,120980,,,,,,,
,,,,,,4.010706769,4.8781,space,1.3392,0,42,42,17,1,18,image/18.jpg,0,0,,R_5CTfFYNxQEuWapL,2,2024-05-28_13h51.58.052,face trait task,2021.2.3,Win32,60.24096386,120980,,,,,,,
,,,,,,5.051391994,5.8591,space,4.6038,0,43,43,33,1,34,image/34.jpg,0,0,,R_5CTfFYNxQEuWapL,2,2024-05-28_13h51.58.052,face trait task,2021.2.3,Win32,60.24096386,120980,,,,,,,
,,,,,,4.199143469,4.8991,space,0.7736,0,44,44,18,1,19,image/19.jpg,0,0,,R_5CTfFYNxQEuWapL,2,2024-05-28_13h51.58.052,face trait task,2021.2.3,Win32,60.24096386,120980,,,,,,,
,,,,,,3.989293623,2.9083,space,1.1401,0,45,45,1,1,2,image/2.jpg,0,0,,R_5CTfFYNxQEuWapL,2,2024-05-28_13h51.58.052,face trait task,2021.2.3,Win32,60.24096386,120980,,,,,,,
,,,,,,4.434689638,5.0123,space,4.8787,0,46,46,5,1,6,image/6.jpg,0,0,,R_5CTfFYNxQEuWapL,2,2024-05-28_13h51.58.052,face trait task,2021.2.3,Win32,60.24096386,120980,,,,,,,
,,,,,,4.982869379,2.9366,space,1.2961,0,47,47,4,1,5,image/5.jpg,0,0,,R_5CTfFYNxQEuWapL,2,2024-05-28_13h51.58.052,face trait task,2021.2.3,Win32,60.24096386,120980,,,,,,,
,,,,,,3.989293623,5.9324,space,1.0022,0,48,48,14,1,15,image/15.jpg,0,0,,R_5CTfFYNxQEuWapL,2,2024-05-28_13h51.58.052,face trait task,2021.2.3,Win32,60.24096386,120980,,,,,,,
,,,,,,3.591006685,10.7826,space,2.4098,0,49,49,46,1,47,image/47.jpg,0,0,,R_5CTfFYNxQEuWapL,2,2024-05-28_13h51.58.052,face trait task,2021.2.3,Win32,60.24096386,120980,,,,,,,
,,,,,,4.014989555,7.9516,space,0.7196,0,50,50,9,1,10,image/10.jpg,0,0,,R_5CTfFYNxQEuWapL,2,2024-05-28_13h51.58.052,face trait task,2021.2.3,Win32,60.24096386,120980,,,,,,,
,,,,,,4.010706769,4.1742,space,0.8935,0,51,51,23,1,24,image/24.jpg,0,0,,R_5CTfFYNxQEuWapL,2,2024-05-28_13h51.58.052,face trait task,2021.2.3,Win32,60.24096386,120980,,,,,,,
,,,,,,3.449679062,6.628,space,5.0289,0,52,52,36,1,37,image/37.jpg,0,0,,R_5CTfFYNxQEuWapL,2,2024-05-28_13h51.58.052,face trait task,2021.2.3,Win32,60.24096386,120980,,,,,,,
,,,,,,,,,,,,,,,,,,,,R_5CTfFYNxQEuWapL,2,2024-05-28_13h51.58.052,face trait task,2021.2.3,Win32,60.24096386,120980,0,3,3,3,1,3,friendly.png
