chooserow,ParID,pre_instru_resp_2.keys,pre_instru_resp_2.rt,pre_instru_resp_3.keys,pre_instru_resp_3.rt,pre_instru_resp_9.keys,pre_instru_resp_9.rt,pre_instru_resp_8.keys,pre_instru_resp_8.rt,pre_instru_resp_4.keys,pre_instru_resp_4.rt,pre_instru_resp_5.keys,pre_instru_resp_5.rt,pre_instru_resp_6.keys,pre_instru_resp_6.rt,key_resp_3.keys,key_resp_3.rt,key_resp_4.keys,key_resp_4.rt,key_resp_5.keys,key_resp_5.rt,key_resp_6.keys,key_resp_6.rt,key_resp_7.keys,key_resp_7.rt,trials_2.thisRepN,trials_2.thisTrialN,trials_2.thisN,trials_2.thisIndex,trials_2.ran,participant,session,date,expName,psychopyVersion,OS,frameRate,SONAid,pre_instru_resp.keys,pre_instru_resp.rt,clicked,judge_2.x,judge_2.y,judge_2.leftButton,judge_2.midButton,judge_2.rightButton,judge_2.clicked_name,trials.thisRepN,trials.thisTrialN,trials.thisN,trials.thisIndex,trials.ran,prac_answer,prac_dot_sti,dotlefttext,dotrighttext,prac_acc,judge.x,judge.y,judge.leftButton,judge.midButton,judge.rightButton,judge.clicked_name,clicked_guilt,slider_guilt.response,slider_guilt.rt,key_guilt.keys,share_slider.response,share_slider.rt,key_share.keys,slider_apology.response,slider_apology.rt,key_apology.keys,slider_hide.response,slider_hide.rt,slider_forgiveness.response,slider_forgiveness.rt,key_forgiveness.keys,key_forgiveness.rt,slider_mad.response,slider_mad.rt,trialseq.thisRepN,trialseq.thisTrialN,trialseq.thisN,trialseq.thisIndex,trialseq.ran,type_trial,stipic,DV,picture,answer,number,key_share.rt,key_apology.rt,key_guilt.rt
"[93,159,197,202,164,174,171,185,186,83,162,178,187,90,49,145,78,8,147,113,89,53,22,48,96,109,142,27,72,65,123,43,151,143,64,60,122,110,101,139,103,121]",R_5EccKcotuRFOO33,space,2.582,space,7.376,space,31.673,space,53.493,space,53.075,space,16.626,space,7.908,3,10.564,1,10.572,3,9.898,1,13.52,3,7.887,0,0,0,0,1,R_5EccKcotuRFOO33,1,2024-05-01_16h57.34.722,interaction task,2021.2.3,MacIntel,55.55555556,120209,,,,,,,,,,,,,,,,,,,,,,,,,,,,,,,,,,,,,,,,,,,,,,,,,,,,,,,,,
,,,,space,2.734,space,17.522,space,35.177,space,55.332,space,17.78,space,14.351,3,2.921,1,7.153,3,7.745,2,7.98,2,11.527,1,0,1,0,1,R_5EccKcotuRFOO33,1,2024-05-01_16h57.34.722,interaction task,2021.2.3,MacIntel,55.55555556,120209,,,,,,,,,,,,,,,,,,,,,,,,,,,,,,,,,,,,,,,,,,,,,,,,,,,,,,,,,
,,,,,,,,,,,,,,,,,,,,,,,,,,,,,,,R_5EccKcotuRFOO33,1,2024-05-01_16h57.34.722,interaction task,2021.2.3,MacIntel,55.55555556,120209,space,4.155,"[""RightButton_2""]",0.377777778,-0.302222222,1,0,0,RightButton_2,0,0,0,2,1,RightButton_2,9dot1.png,Greater,Smaller,,,,,,,,,,,,,,,,,,,,,,,,,,,,,,,,,,,,,,,
,,,,,,,,,,,,,,,,,,,,,,,,,,,,,,,R_5EccKcotuRFOO33,1,2024-05-01_16h57.34.722,interaction task,2021.2.3,MacIntel,55.55555556,120209,,,"[""RightButton_2""]",0.213888889,-0.335555556,1,0,0,RightButton_2,0,1,1,0,1,RightButton_2,9dot2.png,Greater,Smaller,,,,,,,,,,,,,,,,,,,,,,,,,,,,,,,,,,,,,,,
,,,,,,,,,,,,,,,,,,,,,,,,,,,,,,,R_5EccKcotuRFOO33,1,2024-05-01_16h57.34.722,interaction task,2021.2.3,MacIntel,55.55555556,120209,,,"[""LeftButton_2""]",-0.238888889,-0.3,1,0,0,LeftButton_2,0,2,2,1,1,RightButton_2,9dot2.png,Greater,Smaller,,,,,,,,,,,,,,,,,,,,,,,,,,,,,,,,,,,,,,,
,,,,,,,,,,,,,,,,,,,,,,,,,,,,,,,R_5EccKcotuRFOO33,1,2024-05-01_16h57.34.722,interaction task,2021.2.3,MacIntel,55.55555556,120209,,,,,,,,,,,,,,,,,Smaller,Greater,0.4,-0.343055556,-0.506666667,1,0,0,LeftButton,"[""LeftButton""]",,,,,,,,,,,,30.07856341,15.371,space,3.058,30.78002245,9.789,0,0,0,0,1,1,both_wrong.png,3,RandomDot12.png,No answer,21,,,
,,,,,,,,,,,,,,,,,,,,,,,,,,,,,,,R_5EccKcotuRFOO33,1,2024-05-01_16h57.34.722,interaction task,2021.2.3,MacIntel,55.55555556,120209,,,,,,,,,,,,,,,,,Greater,Smaller,,0.269444444,-0.506666667,1,0,0,RightButton,"[""RightButton""]",,,,2,13.069,space,,,,,,,,,,,,0,1,1,1,1,3,only_sub_wrong.png,1,RandomDot11.png,No answer,20,1.654,,
,,,,,,,,,,,,,,,,,,,,,,,,,,,,,,,R_5EccKcotuRFOO33,1,2024-05-01_16h57.34.722,interaction task,2021.2.3,MacIntel,55.55555556,120209,,,,,,,,,,,,,,,,,Smaller,Greater,,0.331944444,-0.524444444,1,0,0,RightButton,"[""RightButton""]",,,,,,,,,,,,,,,,,,0,2,2,2,1,4,both_right.png,10,RandomDot41.png,RightButton,5,,,
,,,,,,,,,,,,,,,,,,,,,,,,,,,,,,,R_5EccKcotuRFOO33,1,2024-05-01_16h57.34.722,interaction task,2021.2.3,MacIntel,55.55555556,120209,,,,,,,,,,,,,,,,,Smaller,Greater,,-0.323611111,-0.533333333,1,0,0,LeftButton,"[""LeftButton""]",,,,,,,,,,,,,,,,,,0,3,3,3,1,5,both_right.png,10,RandomDot42.png,LeftButton,21,,,
,,,,,,,,,,,,,,,,,,,,,,,,,,,,,,,R_5EccKcotuRFOO33,1,2024-05-01_16h57.34.722,interaction task,2021.2.3,MacIntel,55.55555556,120209,,,,,,,,,,,,,,,,,Smaller,Greater,,-0.211111111,-0.502222222,1,0,0,LeftButton,"[""LeftButton""]",,,,1.979166667,2.015,space,,,,,,,,,,,,0,4,4,4,1,3,only_sub_wrong.png,1,RandomDot40.png,No answer,19,1.644,,
,,,,,,,,,,,,,,,,,,,,,,,,,,,,,,,R_5EccKcotuRFOO33,1,2024-05-01_16h57.34.722,interaction task,2021.2.3,MacIntel,55.55555556,120209,,,,,,,,,,,,,,,,,Smaller,Greater,,-0.277777778,-0.515555556,1,0,0,LeftButton,"[""LeftButton""]",,,,,,,49,7.066,space,51,8.498,,,,,,,0,5,5,5,1,3,only_sub_wrong.png,2,RandomDot15.png,No answer,21,,1.422,
,,,,,,,,,,,,,,,,,,,,,,,,,,,,,,,R_5EccKcotuRFOO33,1,2024-05-01_16h57.34.722,interaction task,2021.2.3,MacIntel,55.55555556,120209,,,,,,,,,,,,,,,,,Greater,Smaller,,-0.245833333,-0.522222222,1,0,0,LeftButton,"[""LeftButton""]",,,,,,,60,5.048,space,21,9.865,,,,,,,0,6,6,6,1,3,only_sub_wrong.png,2,RandomDot23.png,No answer,20,,1.355,
,,,,,,,,,,,,,,,,,,,,,,,,,,,,,,,R_5EccKcotuRFOO33,1,2024-05-01_16h57.34.722,interaction task,2021.2.3,MacIntel,55.55555556,120209,,,,,,,,,,,,,,,,,Greater,Smaller,,0.318055556,-0.457777778,1,0,0,RightButton,"[""RightButton""]",,,,,,,,,,,,39.75869809,3.229,space,1.171,39.61840629,6.096,0,7,7,7,1,3,only_sub_wrong.png,3,RandomDot34.png,No answer,20,,,
,,,,,,,,,,,,,,,,,,,,,,,,,,,,,,,R_5EccKcotuRFOO33,1,2024-05-01_16h57.34.722,interaction task,2021.2.3,MacIntel,55.55555556,120209,,,,,,,,,,,,,,,,,Smaller,Greater,,-0.269444444,-0.515555556,1,0,0,LeftButton,"[""LeftButton""]",,,,,,,,,,,,39.33782267,3.096,space,0.74,39.75869809,4.614,0,8,8,8,1,3,only_sub_wrong.png,3,RandomDot9.png,No answer,19,,,
,,,,,,,,,,,,,,,,,,,,,,,,,,,,,,,R_5EccKcotuRFOO33,1,2024-05-01_16h57.34.722,interaction task,2021.2.3,MacIntel,55.55555556,120209,,,,,,,,,,,,,,,,,Smaller,Greater,,0.309722222,-0.48,1,0,0,RightButton,"[""RightButton""]",,,,,,,61,3.35,space,21,4.967,,,,,,,0,9,9,9,1,1,both_wrong.png,2,RandomDot8.png,No answer,20,,0.705,
,,,,,,,,,,,,,,,,,,,,,,,,,,,,,,,R_5EccKcotuRFOO33,1,2024-05-01_16h57.34.722,interaction task,2021.2.3,MacIntel,55.55555556,120209,,,,,,,,,,,,,,,,,Smaller,Greater,,-0.306944444,-0.531111111,1,0,0,LeftButton,"[""LeftButton""]",,,,2.013888889,2.968,space,,,,,,,,,,,,0,10,10,10,1,3,only_sub_wrong.png,1,RandomDot15.png,No answer,21,1.187,,
,,,,,,,,,,,,,,,,,,,,,,,,,,,,,,,R_5EccKcotuRFOO33,1,2024-05-01_16h57.34.722,interaction task,2021.2.3,MacIntel,55.55555556,120209,,,,,,,,,,,,,,,,,Smaller,Greater,,-0.302777778,-0.524444444,1,0,0,LeftButton,"[""LeftButton""]",,,,,,,60,4.184,space,21,5.699,,,,,,,0,11,11,11,1,3,only_sub_wrong.png,2,RandomDot22.png,No answer,19,,1.254,
,,,,,,,,,,,,,,,,,,,,,,,,,,,,,,,R_5EccKcotuRFOO33,1,2024-05-01_16h57.34.722,interaction task,2021.2.3,MacIntel,55.55555556,120209,,,,,,,,,,,,,,,,,Smaller,Greater,,0.272222222,-0.5,1,0,0,RightButton,"[""RightButton""]",,,,,,,,,,,,70.90347924,3.047,space,4.706,50.14029181,8.913,0,12,12,12,1,3,only_sub_wrong.png,3,RandomDot18.png,No answer,21,,,
,,,,,,,,,,,,,,,,,,,,,,,,,,,,,,,R_5EccKcotuRFOO33,1,2024-05-01_16h57.34.722,interaction task,2021.2.3,MacIntel,55.55555556,120209,,,,,,,,,,,,,,,,,Smaller,Greater,,0.327777778,-0.491111111,1,0,0,RightButton,"[""RightButton""]",,,,,,,,,,,,49.57912458,3.847,space,1.086,100,6.815,0,13,13,13,1,1,both_wrong.png,3,RandomDot29.png,No answer,19,,,
,,,,,,,,,,,,,,,,,,,,,,,,,,,,,,,R_5EccKcotuRFOO33,1,2024-05-01_16h57.34.722,interaction task,2021.2.3,MacIntel,55.55555556,120209,,,,,,,,,,,,,,,,,Greater,Smaller,,-0.244444444,-0.5,1,0,0,LeftButton,"[""LeftButton""]",70,7.037,space,,,,,,,,,,,,,,,0,14,14,14,1,1,both_wrong.png,0,RandomDot16.png,No answer,19,,,0.82
,,,,,,,,,,,,,,,,,,,,,,,,,,,,,,,R_5EccKcotuRFOO33,1,2024-05-01_16h57.34.722,interaction task,2021.2.3,MacIntel,55.55555556,120209,,,,,,,,,,,,,,,,,Greater,Smaller,,0.305555556,-0.486666667,1,0,0,RightButton,"[""RightButton""]",79,3.504,space,,,,,,,,,,,,,,,0,15,15,15,1,3,only_sub_wrong.png,0,RandomDot15.png,No answer,20,,,1.475
,,,,,,,,,,,,,,,,,,,,,,,,,,,,,,,R_5EccKcotuRFOO33,1,2024-05-01_16h57.34.722,interaction task,2021.2.3,MacIntel,55.55555556,120209,,,,,,,,,,,,,,,,,Smaller,Greater,,0.280555556,-0.54,1,0,0,RightButton,"[""RightButton""]",,,,,,,80,4.016,space,0,9.883,,,,,,,0,16,16,16,1,1,both_wrong.png,2,RandomDot19.png,No answer,19,,1.17,
,,,,,,,,,,,,,,,,,,,,,,,,,,,,,,,R_5EccKcotuRFOO33,1,2024-05-01_16h57.34.722,interaction task,2021.2.3,MacIntel,55.55555556,120209,,,,,,,,,,,,,,,,,Smaller,Greater,,-0.240277778,-0.528888889,1,0,0,LeftButton,"[""LeftButton""]",,,,,,,,,,,,,,,,,,0,17,17,17,1,0,both_right.png,0,RandomDot15.png,No answer,21,,,
,,,,,,,,,,,,,,,,,,,,,,,,,,,,,,,R_5EccKcotuRFOO33,1,2024-05-01_16h57.34.722,interaction task,2021.2.3,MacIntel,55.55555556,120209,,,,,,,,,,,,,,,,,Greater,Smaller,,0.240277778,-0.502222222,1,0,0,RightButton,"[""RightButton""]",100,3.354,space,,,,,,,,,,,,,,,0,18,18,18,1,3,only_sub_wrong.png,0,RandomDot5.png,No answer,20,,,0.637
,,,,,,,,,,,,,,,,,,,,,,,,,,,,,,,R_5EccKcotuRFOO33,1,2024-05-01_16h57.34.722,interaction task,2021.2.3,MacIntel,55.55555556,120209,,,,,,,,,,,,,,,,,Greater,Smaller,,-0.269444444,-0.488888889,1,0,0,LeftButton,"[""LeftButton""]",,,,1.972222222,2.001,space,,,,,,,,,,,,0,19,19,19,1,2,only_sub_right.png,1,RandomDot3.png,No answer,20,1.143,,
,,,,,,,,,,,,,,,,,,,,,,,,,,,,,,,R_5EccKcotuRFOO33,1,2024-05-01_16h57.34.722,interaction task,2021.2.3,MacIntel,55.55555556,120209,,,,,,,,,,,,,,,,,Greater,Smaller,,-0.305555556,-0.531111111,1,0,0,LeftButton,"[""LeftButton""]",,,,,,,,,,,,48.87766554,4.598,space,0.487,60.1010101,8.031,0,20,20,20,1,1,both_wrong.png,3,RandomDot6.png,No answer,21,,,
,,,,,,,,,,,,,,,,,,,,,,,,,,,,,,,R_5EccKcotuRFOO33,1,2024-05-01_16h57.34.722,interaction task,2021.2.3,MacIntel,55.55555556,120209,,,,,,,,,,,,,,,,,Greater,Smaller,,0.326388889,-0.526666667,1,0,0,RightButton,"[""RightButton""]",82,2.871,space,,,,,,,,,,,,,,,0,21,21,21,1,1,both_wrong.png,0,RandomDot32.png,No answer,19,,,1.154
,,,,,,,,,,,,,,,,,,,,,,,,,,,,,,,R_5EccKcotuRFOO33,1,2024-05-01_16h57.34.722,interaction task,2021.2.3,MacIntel,55.55555556,120209,,,,,,,,,,,,,,,,,Smaller,Greater,,-0.279166667,-0.504444444,1,0,0,LeftButton,"[""LeftButton""]",,,,,,,,,,,,,,,,,,0,22,22,22,1,0,both_right.png,1,RandomDot21.png,No answer,20,,,
,,,,,,,,,,,,,,,,,,,,,,,,,,,,,,,R_5EccKcotuRFOO33,1,2024-05-01_16h57.34.722,interaction task,2021.2.3,MacIntel,55.55555556,120209,,,,,,,,,,,,,,,,,Greater,Smaller,,-0.25,-0.531111111,1,0,0,LeftButton,"[""LeftButton""]",80,2.338,space,,,,,,,,,,,,,,,0,23,23,23,1,1,both_wrong.png,0,RandomDot24.png,No answer,21,,,0.956
,,,,,,,,,,,,,,,,,,,,,,,,,,,,,,,R_5EccKcotuRFOO33,1,2024-05-01_16h57.34.722,interaction task,2021.2.3,MacIntel,55.55555556,120209,,,,,,,,,,,,,,,,,Greater,Smaller,,-0.273611111,-0.511111111,1,0,0,LeftButton,"[""LeftButton""]",80,3.272,space,,,,,,,,,,,,,,,0,24,24,24,1,2,only_sub_right.png,0,RandomDot26.png,No answer,19,,,2.089
,,,,,,,,,,,,,,,,,,,,,,,,,,,,,,,R_5EccKcotuRFOO33,1,2024-05-01_16h57.34.722,interaction task,2021.2.3,MacIntel,55.55555556,120209,,,,,,,,,,,,,,,,,Greater,Smaller,,0.256944444,-0.502222222,1,0,0,RightButton,"[""RightButton""]",,,,1.958333333,2.167,space,,,,,,,,,,,,0,25,25,25,1,2,only_sub_right.png,1,RandomDot3.png,No answer,19,1.755,,
,,,,,,,,,,,,,,,,,,,,,,,,,,,,,,,R_5EccKcotuRFOO33,1,2024-05-01_16h57.34.722,interaction task,2021.2.3,MacIntel,55.55555556,120209,,,,,,,,,,,,,,,,,Smaller,Greater,,0.320833333,-0.531111111,1,0,0,RightButton,"[""RightButton""]",,,,,,,,,,,,51.26262626,4.881,space,0.675,58.97867565,7.997,0,26,26,26,1,2,only_sub_right.png,3,RandomDot18.png,No answer,20,,,
,,,,,,,,,,,,,,,,,,,,,,,,,,,,,,,R_5EccKcotuRFOO33,1,2024-05-01_16h57.34.722,interaction task,2021.2.3,MacIntel,55.55555556,120209,,,,,,,,,,,,,,,,,Greater,Smaller,,0.308333333,-0.533333333,1,0,0,RightButton,"[""RightButton""]",,,,,,,,,,,,,,,,,,0,27,27,27,1,0,both_right.png,2,RandomDot28.png,No answer,21,,,
,,,,,,,,,,,,,,,,,,,,,,,,,,,,,,,R_5EccKcotuRFOO33,1,2024-05-01_16h57.34.722,interaction task,2021.2.3,MacIntel,55.55555556,120209,,,,,,,,,,,,,,,,,Greater,Smaller,,0.344444444,-0.497777778,1,0,0,RightButton,"[""RightButton""]",,,,,,,61,3.084,space,0,6.518,,,,,,,0,28,28,28,1,1,both_wrong.png,2,RandomDot1.png,No answer,21,,0.439,
,,,,,,,,,,,,,,,,,,,,,,,,,,,,,,,R_5EccKcotuRFOO33,1,2024-05-01_16h57.34.722,interaction task,2021.2.3,MacIntel,55.55555556,120209,,,,,,,,,,,,,,,,,Greater,Smaller,,-0.276388889,-0.5,1,0,0,LeftButton,"[""LeftButton""]",,,,4.965277778,4.884,space,,,,,,,,,,,,0,29,29,29,1,1,both_wrong.png,1,RandomDot26.png,No answer,21,0.638,,
,,,,,,,,,,,,,,,,,,,,,,,,,,,,,,,R_5EccKcotuRFOO33,1,2024-05-01_16h57.34.722,interaction task,2021.2.3,MacIntel,55.55555556,120209,,,,,,,,,,,,,,,,,Greater,Smaller,,-0.2875,-0.54,1,0,0,LeftButton,"[""LeftButton""]",,,,,,,61,3.901,space,0,7.566,,,,,,,0,30,30,30,1,2,only_sub_right.png,2,RandomDot16.png,No answer,20,,0.637,
,,,,,,,,,,,,,,,,,,,,,,,,,,,,,,,R_5EccKcotuRFOO33,1,2024-05-01_16h57.34.722,interaction task,2021.2.3,MacIntel,55.55555556,120209,,,,,,,,,,,,,,,,,Smaller,Greater,,0.248611111,-0.471111111,1,0,0,RightButton,"[""RightButton""]",,,,,,,,,,,,,,,,,,0,31,31,31,1,0,both_right.png,3,RandomDot3.png,No answer,21,,,
,,,,,,,,,,,,,,,,,,,,,,,,,,,,,,,R_5EccKcotuRFOO33,1,2024-05-01_16h57.34.722,interaction task,2021.2.3,MacIntel,55.55555556,120209,,,,,,,,,,,,,,,,,Smaller,Greater,,0.381944444,-0.54,1,0,0,RightButton,"[""RightButton""]",49,2.721,space,,,,,,,,,,,,,,,0,32,32,32,1,3,only_sub_wrong.png,0,RandomDot26.png,No answer,19,,,0.721
,,,,,,,,,,,,,,,,,,,,,,,,,,,,,,,R_5EccKcotuRFOO33,1,2024-05-01_16h57.34.722,interaction task,2021.2.3,MacIntel,55.55555556,120209,,,,,,,,,,,,,,,,,Smaller,Greater,,0.227777778,-0.466666667,1,0,0,RightButton,"[""RightButton""]",,,,,,,,,,,,50,3.197,space,0.544,50.70145903,6.248,0,33,33,33,1,2,only_sub_right.png,3,RandomDot31.png,No answer,19,,,
,,,,,,,,,,,,,,,,,,,,,,,,,,,,,,,R_5EccKcotuRFOO33,1,2024-05-01_16h57.34.722,interaction task,2021.2.3,MacIntel,55.55555556,120209,,,,,,,,,,,,,,,,,Greater,Smaller,,-0.319444444,-0.54,1,0,0,LeftButton,"[""LeftButton""]",,,,4.013888889,3.552,space,,,,,,,,,,,,0,34,34,34,1,1,both_wrong.png,1,RandomDot6.png,No answer,20,2.054,,
,,,,,,,,,,,,,,,,,,,,,,,,,,,,,,,R_5EccKcotuRFOO33,1,2024-05-01_16h57.34.722,interaction task,2021.2.3,MacIntel,55.55555556,120209,,,,,,,,,,,,,,,,,Greater,Smaller,,-0.275,-0.506666667,1,0,0,LeftButton,"[""LeftButton""]",,,,3.979166667,2.751,space,,,,,,,,,,,,0,35,35,35,1,1,both_wrong.png,1,RandomDot13.png,No answer,19,0.536,,
,,,,,,,,,,,,,,,,,,,,,,,,,,,,,,,R_5EccKcotuRFOO33,1,2024-05-01_16h57.34.722,interaction task,2021.2.3,MacIntel,55.55555556,120209,,,,,,,,,,,,,,,,,Greater,Smaller,,0.308333333,-0.517777778,1,0,0,RightButton,"[""RightButton""]",,,,,,,60,4.483,space,0,6.949,,,,,,,0,36,36,36,1,2,only_sub_right.png,2,RandomDot33.png,No answer,20,,0.569,
,,,,,,,,,,,,,,,,,,,,,,,,,,,,,,,R_5EccKcotuRFOO33,1,2024-05-01_16h57.34.722,interaction task,2021.2.3,MacIntel,55.55555556,120209,,,,,,,,,,,,,,,,,Greater,Smaller,,-0.291666667,-0.504444444,1,0,0,LeftButton,"[""LeftButton""]",,,,2.986111111,7.904,space,,,,,,,,,,,,0,37,37,37,1,2,only_sub_right.png,1,RandomDot6.png,No answer,21,0.739,,
,,,,,,,,,,,,,,,,,,,,,,,,,,,,,,,R_5EccKcotuRFOO33,1,2024-05-01_16h57.34.722,interaction task,2021.2.3,MacIntel,55.55555556,120209,,,,,,,,,,,,,,,,,Greater,Smaller,,-0.2375,-0.517777778,1,0,0,LeftButton,"[""LeftButton""]",50,2.187,space,,,,,,,,,,,,,,,0,38,38,38,1,2,only_sub_right.png,0,RandomDot18.png,No answer,21,,,0.928
,,,,,,,,,,,,,,,,,,,,,,,,,,,,,,,R_5EccKcotuRFOO33,1,2024-05-01_16h57.34.722,interaction task,2021.2.3,MacIntel,55.55555556,120209,,,,,,,,,,,,,,,,,Smaller,Greater,,0.3125,-0.502222222,1,0,0,RightButton,"[""RightButton""]",,,,,,,,,,,,50,3.929,space,0.46,49.15824916,6.447,0,39,39,39,1,2,only_sub_right.png,3,RandomDot30.png,No answer,20,,,
,,,,,,,,,,,,,,,,,,,,,,,,,,,,,,,R_5EccKcotuRFOO33,1,2024-05-01_16h57.34.722,interaction task,2021.2.3,MacIntel,55.55555556,120209,,,,,,,,,,,,,,,,,Smaller,Greater,,-0.243055556,-0.508888889,1,0,0,LeftButton,"[""LeftButton""]",51,2.921,space,,,,,,,,,,,,,,,0,40,40,40,1,2,only_sub_right.png,0,RandomDot21.png,No answer,21,,,0.662
,,,,,,,,,,,,,,,,,,,,,,,,,,,,,,,R_5EccKcotuRFOO33,1,2024-05-01_16h57.34.722,interaction task,2021.2.3,MacIntel,55.55555556,120209,,,,,,,,,,,,,,,,,Greater,Smaller,,-0.256944444,-0.524444444,1,0,0,LeftButton,"[""LeftButton""]",,,,,,,49,2.467,space,0,4.95,,,,,,,0,41,41,41,1,2,only_sub_right.png,2,RandomDot18.png,No answer,19,,0.274,
