chooserow,ParID,pre_instru_resp_2.keys,pre_instru_resp_2.rt,pre_instru_resp_3.keys,pre_instru_resp_3.rt,pre_instru_resp_9.keys,pre_instru_resp_9.rt,pre_instru_resp_8.keys,pre_instru_resp_8.rt,pre_instru_resp_4.keys,pre_instru_resp_4.rt,pre_instru_resp_5.keys,pre_instru_resp_5.rt,pre_instru_resp_6.keys,pre_instru_resp_6.rt,key_resp_3.keys,key_resp_3.rt,key_resp_4.keys,key_resp_4.rt,key_resp_5.keys,key_resp_5.rt,key_resp_6.keys,key_resp_6.rt,key_resp_7.keys,key_resp_7.rt,trials_2.thisRepN,trials_2.thisTrialN,trials_2.thisN,trials_2.thisIndex,trials_2.ran,participant,session,date,expName,psychopyVersion,OS,frameRate,SONAid,pre_instru_resp.keys,pre_instru_resp.rt,clicked,judge_2.x,judge_2.y,judge_2.leftButton,judge_2.midButton,judge_2.rightButton,judge_2.clicked_name,trials.thisRepN,trials.thisTrialN,trials.thisN,trials.thisIndex,trials.ran,prac_answer,prac_dot_sti,dotlefttext,dotrighttext,prac_acc,judge.x,judge.y,judge.leftButton,judge.midButton,judge.rightButton,judge.clicked_name,clicked_guilt,slider_guilt.response,slider_guilt.rt,key_guilt.keys,share_slider.response,share_slider.rt,key_share.keys,slider_apology.response,slider_apology.rt,key_apology.keys,key_apology.rt,slider_hide.response,slider_hide.rt,slider_forgiveness.response,slider_forgiveness.rt,key_forgiveness.keys,slider_mad.response,slider_mad.rt,trialseq.thisRepN,trialseq.thisTrialN,trialseq.thisN,trialseq.thisIndex,trialseq.ran,type_trial,stipic,DV,picture,answer,number,key_share.rt,key_guilt.rt,key_forgiveness.rt,incompleteTrials,trials_redo.thisRepN,trials_redo.thisTrialN,trials_redo.thisN,trials_redo.thisIndex,trials_redo.ran
"[175,74,159,173,197,165,97,203,185,157,181,64,128,57,191,171,50,139,120,133,96,72,82,93,132,69,85,8,110,48,63,87,123,13,104,115,117,149,29,38,146,145]",R_5fVxDGEG0OvT1TP,space,1.82,space,15.943,space,11.158,space,43.056,space,35.63,space,14.921,space,5.644,3,4.62,1,4.834,3,6.555,2,7.991,2,3.956,0,0,0,0,1,R_5fVxDGEG0OvT1TP,1,2024-04-15_16h39.11.194,interaction task,2021.2.3,MacIntel,28.57142857,120833,,,,,,,,,,,,,,,,,,,,,,,,,,,,,,,,,,,,,,,,,,,,,,,,,,,,,,,,,,,,,,,
,,,,,,,,,,,,,,,,,,,,,,,,,,,,,,,R_5fVxDGEG0OvT1TP,1,2024-04-15_16h39.11.194,interaction task,2021.2.3,MacIntel,28.57142857,120833,space,2.124,"[""LeftButton_2""]",-0.3125,-0.3375,1,0,0,LeftButton_2,0,0,0,0,1,LeftButton_2,9dot1.png,Smaller,Greater,,,,,,,,,,,,,,,,,,,,,,,,,,,,,,,,,,,,,,,,,,,,,
,,,,,,,,,,,,,,,,,,,,,,,,,,,,,,,R_5fVxDGEG0OvT1TP,1,2024-04-15_16h39.11.194,interaction task,2021.2.3,MacIntel,28.57142857,120833,,,"[""LeftButton_2""]",-0.1640625,-0.3525,1,0,0,LeftButton_2,0,1,1,2,1,LeftButton_2,11dot1.png,Greater,Smaller,,,,,,,,,,,,,,,,,,,,,,,,,,,,,,,,,,,,,,,,,,,,,
,,,,,,,,,,,,,,,,,,,,,,,,,,,,,,,R_5fVxDGEG0OvT1TP,1,2024-04-15_16h39.11.194,interaction task,2021.2.3,MacIntel,28.57142857,120833,,,"[""RightButton_2""]",0.30625,-0.2725,1,0,0,RightButton_2,0,2,2,1,1,RightButton_2,9dot1.png,Greater,Smaller,,,,,,,,,,,,,,,,,,,,,,,,,,,,,,,,,,,,,,,,,,,,,
,,,,,,,,,,,,,,,,,,,,,,,,,,,,,,,R_5fVxDGEG0OvT1TP,1,2024-04-15_16h39.11.194,interaction task,2021.2.3,MacIntel,28.57142857,120833,,,,,,,,,,,,,,,,,Smaller,Greater,0.6,0.2453125,-0.52,1,0,0,RightButton,"[""RightButton""]",,,,,,,34,21.916,space,10.776,10,14.145,,,,,,0,0,0,0,1,3,only_sub_wrong.png,2,RandomDot17.png,No answer,19,,,,,,,,,
,,,,,,,,,,,,,,,,,,,,,,,,,,,,,,,R_5fVxDGEG0OvT1TP,1,2024-04-15_16h39.11.194,interaction task,2021.2.3,MacIntel,28.57142857,120833,,,,,,,,,,,,,,,,,Greater,Smaller,,0.2546875,-0.525,1,0,0,RightButton,"[""RightButton""]",,,,,,,30,2.567,space,2.496,10,5.618,,,,,,0,1,1,1,1,1,both_wrong.png,2,RandomDot16.png,No answer,20,,,,,,,,,
,,,,,,,,,,,,,,,,,,,,,,,,,,,,,,,R_5fVxDGEG0OvT1TP,1,2024-04-15_16h39.11.194,interaction task,2021.2.3,MacIntel,28.57142857,120833,,,,,,,,,,,,,,,,,Greater,Smaller,,-0.2515625,-0.525,1,0,0,LeftButton,"[""LeftButton""]",,,,4.4375,7.758,space,,,,,,,,,,,,0,2,2,2,1,3,only_sub_wrong.png,1,RandomDot11.png,No answer,20,1.035,,,,,,,,
,,,,,,,,,,,,,,,,,,,,,,,,,,,,,,,R_5fVxDGEG0OvT1TP,1,2024-04-15_16h39.11.194,interaction task,2021.2.3,MacIntel,28.57142857,120833,,,,,,,,,,,,,,,,,Greater,Smaller,,-0.2359375,-0.4875,1,0,0,LeftButton,"[""LeftButton""]",,,,,,,70,5.135,space,1.204,10,12.189,,,,,,0,3,3,3,1,3,only_sub_wrong.png,2,RandomDot20.png,No answer,19,,,,,,,,,
,,,,,,,,,,,,,,,,,,,,,,,,,,,,,,,R_5fVxDGEG0OvT1TP,1,2024-04-15_16h39.11.194,interaction task,2021.2.3,MacIntel,28.57142857,120833,,,,,,,,,,,,,,,,,Smaller,Greater,,0.315625,-0.5375,1,0,0,RightButton,"[""RightButton""]",,,,,,,,,,,,,,,,,,0,4,4,4,1,4,both_right.png,10,RandomDot41.png,RightButton,5,,,,,,,,,
,,,,,,,,,,,,,,,,,,,,,,,,,,,,,,,R_5fVxDGEG0OvT1TP,1,2024-04-15_16h39.11.194,interaction task,2021.2.3,MacIntel,28.57142857,120833,,,,,,,,,,,,,,,,,Smaller,Greater,,0.246875,-0.495,1,0,0,RightButton,"[""RightButton""]",,,,4.9375,6.291,space,,,,,,,,,,,,0,5,5,5,1,3,only_sub_wrong.png,1,RandomDot6.png,No answer,21,1.118,,,,,,,,
,,,,,,,,,,,,,,,,,,,,,,,,,,,,,,,R_5fVxDGEG0OvT1TP,1,2024-04-15_16h39.11.194,interaction task,2021.2.3,MacIntel,28.57142857,120833,,,,,,,,,,,,,,,,,Greater,Smaller,,0.26875,-0.51,1,0,0,RightButton,"[""RightButton""]",50,3.558,space,,,,,,,,,,,,,,,0,6,6,6,1,2,only_sub_right.png,0,RandomDot8.png,No answer,20,,1.002,,,,,,,
,,,,,,,,,,,,,,,,,,,,,,,,,,,,,,,R_5fVxDGEG0OvT1TP,1,2024-04-15_16h39.11.194,interaction task,2021.2.3,MacIntel,28.57142857,120833,,,,,,,,,,,,,,,,,Smaller,Greater,,-0.240625,-0.495,1,0,0,LeftButton,"[""LeftButton""]",,,,,,,,,,,,,,,,,,0,7,7,7,1,5,both_right.png,10,RandomDot42.png,LeftButton,21,,,,,,,,,
,,,,,,,,,,,,,,,,,,,,,,,,,,,,,,,R_5fVxDGEG0OvT1TP,1,2024-04-15_16h39.11.194,interaction task,2021.2.3,MacIntel,28.57142857,120833,,,,,,,,,,,,,,,,,Greater,Smaller,,0.2671875,-0.5,1,0,0,RightButton,"[""RightButton""]",,,,,,,,,,,,,0.757575758,4.719,space,67.99242424,9.568,0,8,8,8,1,3,only_sub_wrong.png,3,RandomDot34.png,No answer,20,,,3.136,,,,,,
,,,,,,,,,,,,,,,,,,,,,,,,,,,,,,,R_5fVxDGEG0OvT1TP,1,2024-04-15_16h39.11.194,interaction task,2021.2.3,MacIntel,28.57142857,120833,,,,,,,,,,,,,,,,,Greater,Smaller,,-0.20625,-0.51,1,0,0,LeftButton,"[""LeftButton""]",,,,5,3.189,space,,,,,,,,,,,,0,9,9,9,1,3,only_sub_wrong.png,1,RandomDot8.png,No answer,21,1.317,,,,,,,,
,,,,,,,,,,,,,,,,,,,,,,,,,,,,,,,R_5fVxDGEG0OvT1TP,1,2024-04-15_16h39.11.194,interaction task,2021.2.3,MacIntel,28.57142857,120833,,,,,,,,,,,,,,,,,Greater,Smaller,,0.303125,-0.505,1,0,0,RightButton,"[""RightButton""]",,,,,,,,,,,,,0,2.915,space,75.25252525,4.682,0,10,10,10,1,3,only_sub_wrong.png,3,RandomDot3.png,No answer,19,,,1.368,,,,,,
,,,,,,,,,,,,,,,,,,,,,,,,,,,,,,,R_5fVxDGEG0OvT1TP,1,2024-04-15_16h39.11.194,interaction task,2021.2.3,MacIntel,28.57142857,120833,,,,,,,,,,,,,,,,,Greater,Smaller,,-0.2625,-0.4675,1,0,0,LeftButton,"[""LeftButton""]",,,,5,4.525,space,,,,,,,,,,,,0,11,11,11,1,1,both_wrong.png,1,RandomDot6.png,No answer,20,2.037,,,,,,,,
,,,,,,,,,,,,,,,,,,,,,,,,,,,,,,,R_5fVxDGEG0OvT1TP,1,2024-04-15_16h39.11.194,interaction task,2021.2.3,MacIntel,28.57142857,120833,,,,,,,,,,,,,,,,,Smaller,Greater,,-0.2078125,-0.52,1,0,0,LeftButton,"[""LeftButton""]",,,,,,,64,6.616,space,1.117,10,9.318,,,,,,0,12,12,12,1,2,only_sub_right.png,2,RandomDot22.png,No answer,20,,,,,,,,,
,,,,,,,,,,,,,,,,,,,,,,,,,,,,,,,R_5fVxDGEG0OvT1TP,1,2024-04-15_16h39.11.194,interaction task,2021.2.3,MacIntel,28.57142857,120833,,,,,,,,,,,,,,,,,Smaller,Greater,,-0.2828125,-0.4975,1,0,0,LeftButton,"[""LeftButton""]",50,4.141,space,,,,,,,,,,,,,,,0,13,13,13,1,1,both_wrong.png,0,RandomDot22.png,No answer,21,,0.724,,,,,,,
,,,,,,,,,,,,,,,,,,,,,,,,,,,,,,,R_5fVxDGEG0OvT1TP,1,2024-04-15_16h39.11.194,interaction task,2021.2.3,MacIntel,28.57142857,120833,,,,,,,,,,,,,,,,,Smaller,Greater,,-0.2453125,-0.5225,1,0,0,LeftButton,"[""LeftButton""]",,,,,,,,,,,,,3.125,7.448,space,77.77777778,9.899,0,14,14,14,1,3,only_sub_wrong.png,3,RandomDot36.png,No answer,21,,,0.568,,,,,,
,,,,,,,,,,,,,,,,,,,,,,,,,,,,,,,R_5fVxDGEG0OvT1TP,1,2024-04-15_16h39.11.194,interaction task,2021.2.3,MacIntel,28.57142857,120833,,,,,,,,,,,,,,,,,Greater,Smaller,,0.2390625,-0.4775,1,0,0,RightButton,"[""RightButton""]",,,,,,,90,3.404,space,2.157,8,7.123,,,,,,0,15,15,15,1,3,only_sub_wrong.png,2,RandomDot23.png,No answer,20,,,,,,,,,
,,,,,,,,,,,,,,,,,,,,,,,,,,,,,,,R_5fVxDGEG0OvT1TP,1,2024-04-15_16h39.11.194,interaction task,2021.2.3,MacIntel,28.57142857,120833,,,,,,,,,,,,,,,,,Greater,Smaller,,-0.2546875,-0.5125,1,0,0,LeftButton,"[""LeftButton""]",50,2.69,space,,,,,,,,,,,,,,,0,16,16,16,1,1,both_wrong.png,0,RandomDot12.png,No answer,21,,1.552,,,,,,,
,,,,,,,,,,,,,,,,,,,,,,,,,,,,,,,R_5fVxDGEG0OvT1TP,1,2024-04-15_16h39.11.194,interaction task,2021.2.3,MacIntel,28.57142857,120833,,,,,,,,,,,,,,,,,Smaller,Greater,,0.2546875,-0.5075,1,0,0,RightButton,"[""RightButton""]",,,,,,,,,,,,,27.43055556,4.482,space,72.72727273,7.483,0,17,17,17,1,2,only_sub_right.png,3,RandomDot30.png,No answer,20,,,0.62,,,,,,
,,,,,,,,,,,,,,,,,,,,,,,,,,,,,,,R_5fVxDGEG0OvT1TP,1,2024-04-15_16h39.11.194,interaction task,2021.2.3,MacIntel,28.57142857,120833,,,,,,,,,,,,,,,,,Greater,Smaller,,0.225,-0.48,1,0,0,RightButton,"[""RightButton""]",,,,,,,87,2.471,space,4.854,10,7.156,,,,,,0,18,18,18,1,2,only_sub_right.png,2,RandomDot21.png,No answer,21,,,,,,,,,
,,,,,,,,,,,,,,,,,,,,,,,,,,,,,,,R_5fVxDGEG0OvT1TP,1,2024-04-15_16h39.11.194,interaction task,2021.2.3,MacIntel,28.57142857,120833,,,,,,,,,,,,,,,,,Greater,Smaller,,0.240625,-0.485,1,0,0,RightButton,"[""RightButton""]",,,,,,,,,,,,,56.94444444,4.344,space,74.46338384,6.863,0,19,19,19,1,2,only_sub_right.png,3,RandomDot36.png,No answer,20,,,0.621,,,,,,
,,,,,,,,,,,,,,,,,,,,,,,,,,,,,,,R_5fVxDGEG0OvT1TP,1,2024-04-15_16h39.11.194,interaction task,2021.2.3,MacIntel,28.57142857,120833,,,,,,,,,,,,,,,,,Greater,Smaller,,0.23125,-0.51,1,0,0,RightButton,"[""RightButton""]",31,3.359,space,,,,,,,,,,,,,,,0,20,20,20,1,2,only_sub_right.png,0,RandomDot26.png,No answer,19,,2.088,,,,,,,
,,,,,,,,,,,,,,,,,,,,,,,,,,,,,,,R_5fVxDGEG0OvT1TP,1,2024-04-15_16h39.11.194,interaction task,2021.2.3,MacIntel,28.57142857,120833,,,,,,,,,,,,,,,,,Greater,Smaller,,0.353125,-0.455,1,0,0,RightButton,"[""RightButton""]",,,,,,,58,4.151,space,1.486,11,8.17,,,,,,0,21,21,21,1,1,both_wrong.png,2,RandomDot1.png,No answer,21,,,,,,,,,
,,,,,,,,,,,,,,,,,,,,,,,,,,,,,,,R_5fVxDGEG0OvT1TP,1,2024-04-15_16h39.11.194,interaction task,2021.2.3,MacIntel,28.57142857,120833,,,,,,,,,,,,,,,,,Smaller,Greater,,-0.21875,-0.4875,1,0,0,LeftButton,"[""LeftButton""]",,,,,,,55,12.26,space,4.122,10,15.476,,,,,,0,22,22,22,1,1,both_wrong.png,2,RandomDot7.png,No answer,21,,,,,,,,,
,,,,,,,,,,,,,,,,,,,,,,,,,,,,,,,R_5fVxDGEG0OvT1TP,1,2024-04-15_16h39.11.194,interaction task,2021.2.3,MacIntel,28.57142857,120833,,,,,,,,,,,,,,,,,Smaller,Greater,,-0.2421875,-0.495,1,0,0,LeftButton,"[""LeftButton""]",,,,,,,,,,,,,46.21212121,2.993,space,53.31439394,6.478,0,23,23,23,1,1,both_wrong.png,3,RandomDot12.png,No answer,21,,,1.016,,,,,,
,,,,,,,,,,,,,,,,,,,,,,,,,,,,,,,R_5fVxDGEG0OvT1TP,1,2024-04-15_16h39.11.194,interaction task,2021.2.3,MacIntel,28.57142857,120833,,,,,,,,,,,,,,,,,Greater,Smaller,,0.284375,-0.545,1,0,0,RightButton,"[""RightButton""]",,,,,,,,,,,,,56.78661616,5.12,space,26.01010101,7.337,0,24,24,24,1,2,only_sub_right.png,3,RandomDot20.png,No answer,21,,,0.488,,,,,,
,,,,,,,,,,,,,,,,,,,,,,,,,,,,,,,R_5fVxDGEG0OvT1TP,1,2024-04-15_16h39.11.194,interaction task,2021.2.3,MacIntel,28.57142857,120833,,,,,,,,,,,,,,,,,Smaller,Greater,,-0.203125,-0.49,1,0,0,LeftButton,"[""LeftButton""]",,,,3.7421875,4.746,space,,,,,,,,,,,,0,25,25,25,1,1,both_wrong.png,1,RandomDot13.png,No answer,19,0.548,,,,,,,,
,,,,,,,,,,,,,,,,,,,,,,,,,,,,,,,R_5fVxDGEG0OvT1TP,1,2024-04-15_16h39.11.194,interaction task,2021.2.3,MacIntel,28.57142857,120833,,,,,,,,,,,,,,,,,Greater,Smaller,,0.9984375,-0.81,0,0,0,,[],,,,,,,,,,,,,,,,,,0,26,26,26,1,1,both_wrong.png,3,RandomDot40.png,No answer,21,,,,85,,,,,
,,,,,,,,,,,,,,,,,,,,,,,,,,,,,,,R_5fVxDGEG0OvT1TP,1,2024-04-15_16h39.11.194,interaction task,2021.2.3,MacIntel,28.57142857,120833,,,,,,,,,,,,,,,,,Smaller,Greater,,0.284375,-0.5075,1,0,0,RightButton,"[""RightButton""]",,,,,,,,,,,,,,,,,,0,27,27,27,1,0,both_right.png,0,RandomDot15.png,No answer,21,,,,,,,,,
,,,,,,,,,,,,,,,,,,,,,,,,,,,,,,,R_5fVxDGEG0OvT1TP,1,2024-04-15_16h39.11.194,interaction task,2021.2.3,MacIntel,28.57142857,120833,,,,,,,,,,,,,,,,,Greater,Smaller,,-0.2953125,-0.535,1,0,0,LeftButton,"[""LeftButton""]",,,,2.4921875,3.935,space,,,,,,,,,,,,0,28,28,28,1,2,only_sub_right.png,1,RandomDot6.png,No answer,21,1.269,,,,,,,,
,,,,,,,,,,,,,,,,,,,,,,,,,,,,,,,R_5fVxDGEG0OvT1TP,1,2024-04-15_16h39.11.194,interaction task,2021.2.3,MacIntel,28.57142857,120833,,,,,,,,,,,,,,,,,Greater,Smaller,,-0.275,-0.5275,1,0,0,LeftButton,"[""LeftButton""]",53,2.526,space,,,,,,,,,,,,,,,0,29,29,29,1,1,both_wrong.png,0,RandomDot24.png,No answer,21,,2.774,,,,,,,
,,,,,,,,,,,,,,,,,,,,,,,,,,,,,,,R_5fVxDGEG0OvT1TP,1,2024-04-15_16h39.11.194,interaction task,2021.2.3,MacIntel,28.57142857,120833,,,,,,,,,,,,,,,,,Greater,Smaller,,0.296875,-0.4575,1,0,0,RightButton,"[""RightButton""]",,,,3.171875,3.902,space,,,,,,,,,,,,0,30,30,30,1,1,both_wrong.png,1,RandomDot27.png,No answer,19,0.553,,,,,,,,
,,,,,,,,,,,,,,,,,,,,,,,,,,,,,,,R_5fVxDGEG0OvT1TP,1,2024-04-15_16h39.11.194,interaction task,2021.2.3,MacIntel,28.57142857,120833,,,,,,,,,,,,,,,,,Greater,Smaller,,0.2640625,-0.545,1,0,0,RightButton,"[""RightButton""]",,,,,,,,,,,,,54.5770202,4.317,space,65.78282828,7.219,0,31,31,31,1,1,both_wrong.png,3,RandomDot17.png,No answer,21,,,1.488,,,,,,
,,,,,,,,,,,,,,,,,,,,,,,,,,,,,,,R_5fVxDGEG0OvT1TP,1,2024-04-15_16h39.11.194,interaction task,2021.2.3,MacIntel,28.57142857,120833,,,,,,,,,,,,,,,,,Greater,Smaller,,-0.21875,-0.525,1,0,0,LeftButton,"[""LeftButton""]",,,,,,,55,3.177,space,0.626,9,5.322,,,,,,0,32,32,32,1,2,only_sub_right.png,2,RandomDot16.png,No answer,20,,,,,,,,,
,,,,,,,,,,,,,,,,,,,,,,,,,,,,,,,R_5fVxDGEG0OvT1TP,1,2024-04-15_16h39.11.194,interaction task,2021.2.3,MacIntel,28.57142857,120833,,,,,,,,,,,,,,,,,Greater,Smaller,,0.246875,-0.4675,1,0,0,RightButton,"[""RightButton""]",,,,,,,,,,,,,,,,,,0,33,33,33,1,0,both_right.png,1,RandomDot28.png,No answer,21,,,,,,,,,
,,,,,,,,,,,,,,,,,,,,,,,,,,,,,,,R_5fVxDGEG0OvT1TP,1,2024-04-15_16h39.11.194,interaction task,2021.2.3,MacIntel,28.57142857,120833,,,,,,,,,,,,,,,,,Smaller,Greater,,0.2484375,-0.5075,1,0,0,RightButton,"[""RightButton""]",42,3.39,space,,,,,,,,,,,,,,,0,34,34,34,1,2,only_sub_right.png,0,RandomDot29.png,No answer,20,,0.403,,,,,,,
,,,,,,,,,,,,,,,,,,,,,,,,,,,,,,,R_5fVxDGEG0OvT1TP,1,2024-04-15_16h39.11.194,interaction task,2021.2.3,MacIntel,28.57142857,120833,,,,,,,,,,,,,,,,,Smaller,Greater,,0.240625,-0.49,1,0,0,RightButton,"[""RightButton""]",,,,2.125,5.075,space,,,,,,,,,,,,0,35,35,35,1,2,only_sub_right.png,1,RandomDot14.png,No answer,20,1.528,,,,,,,,
,,,,,,,,,,,,,,,,,,,,,,,,,,,,,,,R_5fVxDGEG0OvT1TP,1,2024-04-15_16h39.11.194,interaction task,2021.2.3,MacIntel,28.57142857,120833,,,,,,,,,,,,,,,,,Smaller,Greater,,0.30625,-0.545,1,0,0,RightButton,"[""RightButton""]",,,,2.2890625,6.458,space,,,,,,,,,,,,0,36,36,36,1,2,only_sub_right.png,1,RandomDot27.png,No answer,21,0.337,,,,,,,,
,,,,,,,,,,,,,,,,,,,,,,,,,,,,,,,R_5fVxDGEG0OvT1TP,1,2024-04-15_16h39.11.194,interaction task,2021.2.3,MacIntel,28.57142857,120833,,,,,,,,,,,,,,,,,Greater,Smaller,,0.1890625,-0.5125,1,0,0,RightButton,"[""RightButton""]",74,4.024,space,,,,,,,,,,,,,,,0,37,37,37,1,3,only_sub_wrong.png,0,RandomDot24.png,No answer,20,,2.403,,,,,,,
,,,,,,,,,,,,,,,,,,,,,,,,,,,,,,,R_5fVxDGEG0OvT1TP,1,2024-04-15_16h39.11.194,interaction task,2021.2.3,MacIntel,28.57142857,120833,,,,,,,,,,,,,,,,,Greater,Smaller,,0.340625,-0.5125,1,0,0,RightButton,"[""RightButton""]",,,,,,,,,,,,,,,,,,0,38,38,38,1,0,both_right.png,2,RandomDot10.png,No answer,20,,,,,,,,,
,,,,,,,,,,,,,,,,,,,,,,,,,,,,,,,R_5fVxDGEG0OvT1TP,1,2024-04-15_16h39.11.194,interaction task,2021.2.3,MacIntel,28.57142857,120833,,,,,,,,,,,,,,,,,Greater,Smaller,,0.3421875,-0.5125,1,0,0,RightButton,"[""RightButton""]",,,,,,,,,,,,,,,,,,0,39,39,39,1,0,both_right.png,3,RandomDot39.png,No answer,20,,,,,,,,,
,,,,,,,,,,,,,,,,,,,,,,,,,,,,,,,R_5fVxDGEG0OvT1TP,1,2024-04-15_16h39.11.194,interaction task,2021.2.3,MacIntel,28.57142857,120833,,,,,,,,,,,,,,,,,Greater,Smaller,,0.3421875,-0.5125,1,0,0,RightButton,"[""RightButton""]",89,3.628,space,,,,,,,,,,,,,,,0,40,40,40,1,3,only_sub_wrong.png,0,RandomDot38.png,No answer,21,,0.321,,,,,,,
,,,,,,,,,,,,,,,,,,,,,,,,,,,,,,,R_5fVxDGEG0OvT1TP,1,2024-04-15_16h39.11.194,interaction task,2021.2.3,MacIntel,28.57142857,120833,,,,,,,,,,,,,,,,,Greater,Smaller,,0.33125,-0.455,1,0,0,RightButton,"[""RightButton""]",95,3.375,space,,,,,,,,,,,,,,,0,41,41,41,1,3,only_sub_wrong.png,0,RandomDot15.png,No answer,20,,1.27,,,,,,,
,,,,,,,,,,,,,,,,,,,,,,,,,,,,,,,R_5fVxDGEG0OvT1TP,1,2024-04-15_16h39.11.194,interaction task,2021.2.3,MacIntel,28.57142857,120833,,,,,,,,,,,,,,,,,Greater,Smaller,,0.315625,-0.4625,1,0,0,RightButton,"[""RightButton""]",,,,,,,,,,,,,45.73863636,3.075,space,71.1489899,4.797,,,,,,1,both_wrong.png,3,RandomDot40.png,No answer,21,,,0.348,,0,0,0,0,1
