chooserow,ParID,pre_instru_resp_2.keys,pre_instru_resp_2.rt,pre_instru_resp_3.keys,pre_instru_resp_3.rt,pre_instru_resp_9.keys,pre_instru_resp_9.rt,pre_instru_resp_8.keys,pre_instru_resp_8.rt,pre_instru_resp_4.keys,pre_instru_resp_4.rt,pre_instru_resp_5.keys,pre_instru_resp_5.rt,pre_instru_resp_6.keys,pre_instru_resp_6.rt,key_resp_3.keys,key_resp_3.rt,key_resp_4.keys,key_resp_4.rt,key_resp_5.keys,key_resp_5.rt,key_resp_6.keys,key_resp_6.rt,key_resp_7.keys,key_resp_7.rt,trials_2.thisRepN,trials_2.thisTrialN,trials_2.thisN,trials_2.thisIndex,trials_2.ran,participant,session,date,expName,psychopyVersion,OS,frameRate,SONAid,pre_instru_resp.keys,pre_instru_resp.rt,clicked,judge_2.x,judge_2.y,judge_2.leftButton,judge_2.midButton,judge_2.rightButton,judge_2.clicked_name,trials.thisRepN,trials.thisTrialN,trials.thisN,trials.thisIndex,trials.ran,prac_answer,prac_dot_sti,dotlefttext,dotrighttext,prac_acc,judge.x,judge.y,judge.leftButton,judge.midButton,judge.rightButton,judge.clicked_name,clicked_guilt,slider_guilt.response,slider_guilt.rt,key_guilt.keys,share_slider.response,share_slider.rt,key_share.keys,slider_apology.response,slider_apology.rt,key_apology.keys,slider_hide.response,slider_hide.rt,slider_forgiveness.response,slider_forgiveness.rt,key_forgiveness.keys,key_forgiveness.rt,slider_mad.response,slider_mad.rt,trialseq.thisRepN,trialseq.thisTrialN,trialseq.thisN,trialseq.thisIndex,trialseq.ran,type_trial,stipic,DV,picture,answer,number,key_apology.rt,key_share.rt,key_guilt.rt,incompleteTrials,trials_redo.thisRepN,trials_redo.thisTrialN,trials_redo.thisN,trials_redo.thisIndex,trials_redo.ran
"[92,84,22,81,116,28,142,133,178,48,62,179,161,98,61,75,41,107,6,173,127,55,193,191,166,111,50,199,131,80,63,138,103,118,160,146,122,88,155,183,145,180]",R_5gBJYH1TXEzkJ8L,space,7.8516,space,3.9041,space,4.7675,space,5.0753,space,99.1767,space,10.3358,space,6.7389,1,24.6415,2,10.1385,3,20.5914,2,10.6319,3,33.6364,0,0,0,0,1,R_5gBJYH1TXEzkJ8L,1,2024-05-10_22h28.59.711,interaction task,2021.2.3,MacIntel,60.24096386,120347,,,,,,,,,,,,,,,,,,,,,,,,,,,,,,,,,,,,,,,,,,,,,,,,,,,,,,,,,,,,,,,
,,,,space,9.3227,space,14.4908,space,22.3328,space,30.8509,space,5.8362,space,4.3391,3,8.2741,1,8.5566,3,4.3052,2,6.2548,2,1.5277,1,0,1,0,1,R_5gBJYH1TXEzkJ8L,1,2024-05-10_22h28.59.711,interaction task,2021.2.3,MacIntel,60.24096386,120347,,,,,,,,,,,,,,,,,,,,,,,,,,,,,,,,,,,,,,,,,,,,,,,,,,,,,,,,,,,,,,,
,,,,,,,,,,,,,,,,,,,,,,,,,,,,,,,R_5gBJYH1TXEzkJ8L,1,2024-05-10_22h28.59.711,interaction task,2021.2.3,MacIntel,60.24096386,120347,space,3.8132,"[""LeftButton_2""]",-0.255658637,-0.280651042,1,0,0,LeftButton_2,0,0,0,1,1,LeftButton_2,11dot2.png,Greater,Smaller,,,,,,,,,,,,,,,,,,,,,,,,,,,,,,,,,,,,,,,,,,,,,
,,,,,,,,,,,,,,,,,,,,,,,,,,,,,,,R_5gBJYH1TXEzkJ8L,1,2024-05-10_22h28.59.711,interaction task,2021.2.3,MacIntel,60.24096386,120347,,,"[""LeftButton_2""]",-0.233463542,-0.315590278,1,0,0,LeftButton_2,0,1,1,0,1,LeftButton_2,11dot1.png,Greater,Smaller,,,,,,,,,,,,,,,,,,,,,,,,,,,,,,,,,,,,,,,,,,,,,
,,,,,,,,,,,,,,,,,,,,,,,,,,,,,,,R_5gBJYH1TXEzkJ8L,1,2024-05-10_22h28.59.711,interaction task,2021.2.3,MacIntel,60.24096386,120347,,,"[""LeftButton_2""]",-0.224468316,-0.322265625,1,0,0,LeftButton_2,0,2,2,2,1,LeftButton_2,11dot2.png,Greater,Smaller,,,,,,,,,,,,,,,,,,,,,,,,,,,,,,,,,,,,,,,,,,,,,
,,,,,,,,,,,,,,,,,,,,,,,,,,,,,,,R_5gBJYH1TXEzkJ8L,1,2024-05-10_22h28.59.711,interaction task,2021.2.3,MacIntel,60.24096386,120347,,,,,,,,,,,,,,,,,Smaller,Greater,0.6,-0.231315104,-0.525677083,1,0,0,LeftButton,"[""LeftButton""]",,,,,,,,,,,,80.71075337,6.3408,space,2.102,2.38024779,10.6537,0,0,0,0,1,1,both_wrong.png,3,RandomDot7.png,No answer,21,,,,,,,,,
,,,,,,,,,,,,,,,,,,,,,,,,,,,,,,,R_5gBJYH1TXEzkJ8L,1,2024-05-10_22h28.59.711,interaction task,2021.2.3,MacIntel,60.24096386,120347,,,,,,,,,,,,,,,,,Greater,Smaller,,-0.271110026,-0.500390625,1,0,0,LeftButton,"[""LeftButton""]",,,,,,,,,,,,90.00179749,3.2646,space,1.6071,1.782911581,7.566,0,1,1,1,1,1,both_wrong.png,3,RandomDot6.png,No answer,20,,,,,,,,,
,,,,,,,,,,,,,,,,,,,,,,,,,,,,,,,R_5gBJYH1TXEzkJ8L,1,2024-05-10_22h28.59.711,interaction task,2021.2.3,MacIntel,60.24096386,120347,,,,,,,,,,,,,,,,,Smaller,Greater,,0.267578125,-0.52421875,1,0,0,RightButton,"[""RightButton""]",,,,,,,,,,,,,,,,,,0,2,2,2,1,0,both_right.png,1,RandomDot21.png,No answer,20,,,,,,,,,
,,,,,,,,,,,,,,,,,,,,,,,,,,,,,,,R_5gBJYH1TXEzkJ8L,1,2024-05-10_22h28.59.711,interaction task,2021.2.3,MacIntel,60.24096386,120347,,,,,,,,,,,,,,,,,Smaller,Greater,,0.267578125,-0.52421875,1,0,0,RightButton,"[""RightButton""]",,,,,,,65,7.7174,space,0,15.796,,,,,,,0,3,3,3,1,1,both_wrong.png,2,RandomDot21.png,No answer,20,1.5169,,,,,,,,
,,,,,,,,,,,,,,,,,,,,,,,,,,,,,,,R_5gBJYH1TXEzkJ8L,1,2024-05-10_22h28.59.711,interaction task,2021.2.3,MacIntel,60.24096386,120347,,,,,,,,,,,,,,,,,Smaller,Greater,,-0.255674913,-0.544869792,1,0,0,LeftButton,"[""LeftButton""]",,,,1.428385417,13.3991,space,,,,,,,,,,,,0,4,4,4,1,2,only_sub_right.png,1,RandomDot25.png,No answer,19,,1.854,,,,,,,
,,,,,,,,,,,,,,,,,,,,,,,,,,,,,,,R_5gBJYH1TXEzkJ8L,1,2024-05-10_22h28.59.711,interaction task,2021.2.3,MacIntel,60.24096386,120347,,,,,,,,,,,,,,,,,Greater,Smaller,,-0.267154948,-0.526657986,1,0,0,LeftButton,"[""LeftButton""]",,,,,,,,,,,,,,,,,,0,5,5,5,1,0,both_right.png,2,RandomDot23.png,No answer,19,,,,,,,,,
,,,,,,,,,,,,,,,,,,,,,,,,,,,,,,,R_5gBJYH1TXEzkJ8L,1,2024-05-10_22h28.59.711,interaction task,2021.2.3,MacIntel,60.24096386,120347,,,,,,,,,,,,,,,,,Smaller,Greater,,0.296381293,-0.531744792,1,0,0,RightButton,"[""RightButton""]",,,,,,,,,,,,100,5.2456,space,2.487,0,9.2989,0,6,6,6,1,2,only_sub_right.png,3,RandomDot18.png,No answer,20,,,,,,,,,
,,,,,,,,,,,,,,,,,,,,,,,,,,,,,,,R_5gBJYH1TXEzkJ8L,1,2024-05-10_22h28.59.711,interaction task,2021.2.3,MacIntel,60.24096386,120347,,,,,,,,,,,,,,,,,Greater,Smaller,,-0.238449436,-0.506631944,1,0,0,LeftButton,"[""LeftButton""]",,,,,,,,,,,,100,4.5667,space,1.4376,0,10.5032,0,7,7,7,1,2,only_sub_right.png,3,RandomDot36.png,No answer,20,,,,,,,,,
,,,,,,,,,,,,,,,,,,,,,,,,,,,,,,,R_5gBJYH1TXEzkJ8L,1,2024-05-10_22h28.59.711,interaction task,2021.2.3,MacIntel,60.24096386,120347,,,,,,,,,,,,,,,,,Smaller,Greater,,-0.241281467,-0.515078125,1,0,0,LeftButton,"[""LeftButton""]",,,,,,,70,3.7924,space,2,7.5333,,,,,,,0,8,8,8,1,3,only_sub_wrong.png,2,RandomDot22.png,No answer,19,0.868,,,,,,,,
,,,,,,,,,,,,,,,,,,,,,,,,,,,,,,,R_5gBJYH1TXEzkJ8L,1,2024-05-10_22h28.59.711,interaction task,2021.2.3,MacIntel,60.24096386,120347,,,,,,,,,,,,,,,,,Greater,Smaller,,-0.26891276,-0.533741319,1,0,0,LeftButton,"[""LeftButton""]",25,4.209,space,,,,,,,,,,,,,,,0,9,9,9,1,1,both_wrong.png,0,RandomDot24.png,No answer,21,,,1.358,,,,,,
,,,,,,,,,,,,,,,,,,,,,,,,,,,,,,,R_5gBJYH1TXEzkJ8L,1,2024-05-10_22h28.59.711,interaction task,2021.2.3,MacIntel,60.24096386,120347,,,,,,,,,,,,,,,,,Greater,Smaller,,-0.238145616,-0.528125,1,0,0,LeftButton,"[""LeftButton""]",,,,3.532823351,8.2806,space,,,,,,,,,,,,0,10,10,10,1,1,both_wrong.png,1,RandomDot28.png,No answer,21,,2.1962,,,,,,,
,,,,,,,,,,,,,,,,,,,,,,,,,,,,,,,R_5gBJYH1TXEzkJ8L,1,2024-05-10_22h28.59.711,interaction task,2021.2.3,MacIntel,60.24096386,120347,,,,,,,,,,,,,,,,,Smaller,Greater,,-0.316655816,-0.505946181,1,0,0,LeftButton,"[""LeftButton""]",,,,,,,76,4.3474,space,0,7.1406,,,,,,,0,11,11,11,1,3,only_sub_wrong.png,2,RandomDot15.png,No answer,20,0.7801,,,,,,,,
,,,,,,,,,,,,,,,,,,,,,,,,,,,,,,,R_5gBJYH1TXEzkJ8L,1,2024-05-10_22h28.59.711,interaction task,2021.2.3,MacIntel,60.24096386,120347,,,,,,,,,,,,,,,,,Greater,Smaller,,0.325835503,-0.540598958,1,0,0,RightButton,"[""RightButton""]",,,,4.986707899,2.5481,space,,,,,,,,,,,,0,12,12,12,1,3,only_sub_wrong.png,1,RandomDot36.png,No answer,19,,0.7644,,,,,,,
,,,,,,,,,,,,,,,,,,,,,,,,,,,,,,,R_5gBJYH1TXEzkJ8L,1,2024-05-10_22h28.59.711,interaction task,2021.2.3,MacIntel,60.24096386,120347,,,,,,,,,,,,,,,,,Greater,Smaller,,-0.326540799,-0.503098958,1,0,0,LeftButton,"[""LeftButton""]",0,4.8973,space,,,,,,,,,,,,,,,0,13,13,13,1,2,only_sub_right.png,0,RandomDot16.png,No answer,20,,,0.9349,,,,,,
,,,,,,,,,,,,,,,,,,,,,,,,,,,,,,,R_5gBJYH1TXEzkJ8L,1,2024-05-10_22h28.59.711,interaction task,2021.2.3,MacIntel,60.24096386,120347,,,,,,,,,,,,,,,,,Greater,Smaller,,0.309044054,-0.531015625,1,0,0,RightButton,"[""RightButton""]",,,,2.471625434,2.9078,space,,,,,,,,,,,,0,14,14,14,1,1,both_wrong.png,1,RandomDot23.png,No answer,21,,2.1869,,,,,,,
,,,,,,,,,,,,,,,,,,,,,,,,,,,,,,,R_5gBJYH1TXEzkJ8L,1,2024-05-10_22h28.59.711,interaction task,2021.2.3,MacIntel,60.24096386,120347,,,,,,,,,,,,,,,,,Greater,Smaller,,0.295968967,-0.533602431,1,0,0,RightButton,"[""RightButton""]",,,,,,,54,3.7582,space,0,7.1207,,,,,,,0,15,15,15,1,1,both_wrong.png,2,RandomDot10.png,No answer,20,0.7926,,,,,,,,
,,,,,,,,,,,,,,,,,,,,,,,,,,,,,,,R_5gBJYH1TXEzkJ8L,1,2024-05-10_22h28.59.711,interaction task,2021.2.3,MacIntel,60.24096386,120347,,,,,,,,,,,,,,,,,Greater,Smaller,,0.311306424,-0.537170139,1,0,0,RightButton,"[""RightButton""]",,,,,,,,,,,,,,,,,,0,16,16,16,1,0,both_right.png,3,RandomDot30.png,No answer,19,,,,,,,,,
,,,,,,,,,,,,,,,,,,,,,,,,,,,,,,,R_5gBJYH1TXEzkJ8L,1,2024-05-10_22h28.59.711,interaction task,2021.2.3,MacIntel,60.24096386,120347,,,,,,,,,,,,,,,,,Smaller,Greater,,0.373855252,-0.513472222,1,0,0,RightButton,"[""RightButton""]",0,2.5167,space,,,,,,,,,,,,,,,0,17,17,17,1,2,only_sub_right.png,0,RandomDot37.png,No answer,21,,,0.7518,,,,,,
,,,,,,,,,,,,,,,,,,,,,,,,,,,,,,,R_5gBJYH1TXEzkJ8L,1,2024-05-10_22h28.59.711,interaction task,2021.2.3,MacIntel,60.24096386,120347,,,,,,,,,,,,,,,,,Smaller,Greater,,-0.287527127,-0.508185764,1,0,0,LeftButton,"[""LeftButton""]",,,,,,,,,,,,,,,,,,0,18,18,18,1,0,both_right.png,0,RandomDot22.png,No answer,19,,,,,,,,,
,,,,,,,,,,,,,,,,,,,,,,,,,,,,,,,R_5gBJYH1TXEzkJ8L,1,2024-05-10_22h28.59.711,interaction task,2021.2.3,MacIntel,60.24096386,120347,,,,,,,,,,,,,,,,,Greater,Smaller,,0.318853082,-0.543498264,1,0,0,RightButton,"[""RightButton""]",,,,,,,79,4.887,space,0,8.5125,,,,,,,0,19,19,19,1,3,only_sub_wrong.png,2,RandomDot20.png,No answer,19,1.6226,,,,,,,,
,,,,,,,,,,,,,,,,,,,,,,,,,,,,,,,R_5gBJYH1TXEzkJ8L,1,2024-05-10_22h28.59.711,interaction task,2021.2.3,MacIntel,60.24096386,120347,,,,,,,,,,,,,,,,,Smaller,Greater,,-0.333230252,-0.531883681,1,0,0,LeftButton,"[""LeftButton""]",,,,,,,0,6.0747,space,0,8.4591,,,,,,,0,20,20,20,1,2,only_sub_right.png,2,RandomDot22.png,No answer,19,0.3335,,,,,,,,
,,,,,,,,,,,,,,,,,,,,,,,,,,,,,,,R_5gBJYH1TXEzkJ8L,1,2024-05-10_22h28.59.711,interaction task,2021.2.3,MacIntel,60.24096386,120347,,,,,,,,,,,,,,,,,Smaller,Greater,,0.323627387,-0.50453125,1,0,0,RightButton,"[""RightButton""]",30,6.6499,space,,,,,,,,,,,,,,,0,21,21,21,1,1,both_wrong.png,0,RandomDot28.png,No answer,19,,,2.0194,,,,,,
,,,,,,,,,,,,,,,,,,,,,,,,,,,,,,,R_5gBJYH1TXEzkJ8L,1,2024-05-10_22h28.59.711,interaction task,2021.2.3,MacIntel,60.24096386,120347,,,,,,,,,,,,,,,,,Greater,Smaller,,-0.281922743,-0.504505208,1,0,0,LeftButton,"[""LeftButton""]",,,,,,,,,,,,,,,,,,0,22,22,22,1,4,both_right.png,10,RandomDot41.png,LeftButton,5,,,,,,,,,
,,,,,,,,,,,,,,,,,,,,,,,,,,,,,,,R_5gBJYH1TXEzkJ8L,1,2024-05-10_22h28.59.711,interaction task,2021.2.3,MacIntel,60.24096386,120347,,,,,,,,,,,,,,,,,Smaller,Greater,,-0.358718533,-0.48015625,1,0,0,LeftButton,"[""LeftButton""]",,,,,,,,,,,,64.66707001,12.2399,space,2.5496,19.61257541,10.3864,0,23,23,23,1,3,only_sub_wrong.png,3,RandomDot36.png,No answer,21,,,,,,,,,
,,,,,,,,,,,,,,,,,,,,,,,,,,,,,,,R_5gBJYH1TXEzkJ8L,1,2024-05-10_22h28.59.711,interaction task,2021.2.3,MacIntel,60.24096386,120347,,,,,,,,,,,,,,,,,Smaller,Greater,,-0.298562283,-0.471675347,1,0,0,LeftButton,"[""LeftButton""]",,,,4.987413194,2.036,space,,,,,,,,,,,,0,24,24,24,1,3,only_sub_wrong.png,1,RandomDot15.png,No answer,20,,1.1586,,,,,,,
,,,,,,,,,,,,,,,,,,,,,,,,,,,,,,,R_5gBJYH1TXEzkJ8L,1,2024-05-10_22h28.59.711,interaction task,2021.2.3,MacIntel,60.24096386,120347,,,,,,,,,,,,,,,,,Greater,Smaller,,-0.318717448,-0.486545139,1,0,0,LeftButton,"[""LeftButton""]",,,,0.962782118,5.0823,space,,,,,,,,,,,,0,25,25,25,1,2,only_sub_right.png,1,RandomDot4.png,No answer,19,,2.5113,,,,,,,
,,,,,,,,,,,,,,,,,,,,,,,,,,,,,,,R_5gBJYH1TXEzkJ8L,1,2024-05-10_22h28.59.711,interaction task,2021.2.3,MacIntel,60.24096386,120347,,,,,,,,,,,,,,,,,Greater,Smaller,,0.362744141,-0.478498264,1,0,0,RightButton,"[""RightButton""]",49,2.1567,space,,,,,,,,,,,,,,,0,26,26,26,1,1,both_wrong.png,0,RandomDot12.png,No answer,21,,,0.534,,,,,,
,,,,,,,,,,,,,,,,,,,,,,,,,,,,,,,R_5gBJYH1TXEzkJ8L,1,2024-05-10_22h28.59.711,interaction task,2021.2.3,MacIntel,60.24096386,120347,,,,,,,,,,,,,,,,,Greater,Smaller,,0.267963325,-0.499635417,1,0,0,RightButton,"[""RightButton""]",,,,,,,,,,,,,,,,,,0,27,27,27,1,5,both_right.png,10,RandomDot42.png,RightButton,19,,,,,,,,,
,,,,,,,,,,,,,,,,,,,,,,,,,,,,,,,R_5gBJYH1TXEzkJ8L,1,2024-05-10_22h28.59.711,interaction task,2021.2.3,MacIntel,60.24096386,120347,,,,,,,,,,,,,,,,,Smaller,Greater,,-0.300016276,-0.530086806,1,0,0,LeftButton,"[""LeftButton""]",,,,,,,0,3.1637,space,0,5.3929,,,,,,,0,28,28,28,1,2,only_sub_right.png,2,RandomDot5.png,No answer,21,0.548,,,,,,,,
,,,,,,,,,,,,,,,,,,,,,,,,,,,,,,,R_5gBJYH1TXEzkJ8L,1,2024-05-10_22h28.59.711,interaction task,2021.2.3,MacIntel,60.24096386,120347,,,,,,,,,,,,,,,,,Smaller,Greater,,-0.276350911,-0.494010417,1,0,0,LeftButton,"[""LeftButton""]",,,,,,,62,4.0897,space,0,6.6199,,,,,,,0,29,29,29,1,1,both_wrong.png,2,RandomDot8.png,No answer,20,0.168,,,,,,,,
,,,,,,,,,,,,,,,,,,,,,,,,,,,,,,,R_5gBJYH1TXEzkJ8L,1,2024-05-10_22h28.59.711,interaction task,2021.2.3,MacIntel,60.24096386,120347,,,,,,,,,,,,,,,,,Greater,Smaller,,-0.2668023,-0.490234375,1,0,0,LeftButton,"[""LeftButton""]",,,,2.506157769,2.7968,space,,,,,,,,,,,,0,30,30,30,1,1,both_wrong.png,1,RandomDot27.png,No answer,19,,0.8318,,,,,,,
,,,,,,,,,,,,,,,,,,,,,,,,,,,,,,,R_5gBJYH1TXEzkJ8L,1,2024-05-10_22h28.59.711,interaction task,2021.2.3,MacIntel,60.24096386,120347,,,,,,,,,,,,,,,,,Smaller,Greater,,-0.257432726,-0.480598958,1,0,0,LeftButton,"[""LeftButton""]",,,,,,,,,,,,0.820049453,3.0648,space,0.4531,1.198727729,5.5283,0,31,31,31,1,2,only_sub_right.png,3,RandomDot25.png,No answer,21,,,,,,,,,
,,,,,,,,,,,,,,,,,,,,,,,,,,,,,,,R_5gBJYH1TXEzkJ8L,1,2024-05-10_22h28.59.711,interaction task,2021.2.3,MacIntel,60.24096386,120347,,,,,,,,,,,,,,,,,Smaller,Greater,,-0.276730686,-0.501223958,1,0,0,LeftButton,"[""LeftButton""]",0,2.5643,space,,,,,,,,,,,,,,,0,32,32,32,1,2,only_sub_right.png,0,RandomDot21.png,No answer,21,,,0.897,,,,,,
,,,,,,,,,,,,,,,,,,,,,,,,,,,,,,,R_5gBJYH1TXEzkJ8L,1,2024-05-10_22h28.59.711,interaction task,2021.2.3,MacIntel,60.24096386,120347,,,,,,,,,,,,,,,,,Smaller,Greater,,-0.279812283,-0.494513889,1,0,0,LeftButton,"[""LeftButton""]",,,,0.99991862,4.1884,space,,,,,,,,,,,,0,33,33,33,1,2,only_sub_right.png,1,RandomDot34.png,No answer,19,,1.3849,,,,,,,
,,,,,,,,,,,,,,,,,,,,,,,,,,,,,,,R_5gBJYH1TXEzkJ8L,1,2024-05-10_22h28.59.711,interaction task,2021.2.3,MacIntel,60.24096386,120347,,,,,,,,,,,,,,,,,Greater,Smaller,,0.239849175,-0.486710069,1,0,0,RightButton,"[""RightButton""]",,,,4.976101345,2.5047,space,,,,,,,,,,,,0,34,34,34,1,3,only_sub_wrong.png,1,RandomDot22.png,No answer,19,,0.9442,,,,,,,
,,,,,,,,,,,,,,,,,,,,,,,,,,,,,,,R_5gBJYH1TXEzkJ8L,1,2024-05-10_22h28.59.711,interaction task,2021.2.3,MacIntel,60.24096386,120347,,,,,,,,,,,,,,,,,Greater,Smaller,,0.342941623,-0.459279514,1,0,0,RightButton,"[""RightButton""]",79,2.6439,space,,,,,,,,,,,,,,,0,35,35,35,1,3,only_sub_wrong.png,0,RandomDot38.png,No answer,21,,,0.6716,,,,,,
,,,,,,,,,,,,,,,,,,,,,,,,,,,,,,,R_5gBJYH1TXEzkJ8L,1,2024-05-10_22h28.59.711,interaction task,2021.2.3,MacIntel,60.24096386,120347,,,,,,,,,,,,,,,,,Greater,Smaller,,0.307302517,-0.540026042,1,0,0,RightButton,"[""RightButton""]",,,,,,,0,3.7455,space,0,5.3762,,,,,,,0,36,36,36,1,2,only_sub_right.png,2,RandomDot33.png,No answer,20,0.6358,,,,,,,,
,,,,,,,,,,,,,,,,,,,,,,,,,,,,,,,R_5gBJYH1TXEzkJ8L,1,2024-05-10_22h28.59.711,interaction task,2021.2.3,MacIntel,60.24096386,120347,,,,,,,,,,,,,,,,,Greater,Smaller,,0.227837457,-0.532864583,0,0,0,,[],,,,,,,,,,,,,,,,,,0,37,37,37,1,1,both_wrong.png,3,RandomDot30.png,No answer,20,,,,88,,,,,
,,,,,,,,,,,,,,,,,,,,,,,,,,,,,,,R_5gBJYH1TXEzkJ8L,1,2024-05-10_22h28.59.711,interaction task,2021.2.3,MacIntel,60.24096386,120347,,,,,,,,,,,,,,,,,Smaller,Greater,,-0.282986111,-0.502239583,1,0,0,LeftButton,"[""LeftButton""]",74,3.0987,space,,,,,,,,,,,,,,,0,38,38,38,1,3,only_sub_wrong.png,0,RandomDot2.png,No answer,20,,,1.6304,,,,,,
,,,,,,,,,,,,,,,,,,,,,,,,,,,,,,,R_5gBJYH1TXEzkJ8L,1,2024-05-10_22h28.59.711,interaction task,2021.2.3,MacIntel,60.24096386,120347,,,,,,,,,,,,,,,,,Greater,Smaller,,-0.191786024,-0.494895833,1,0,0,LeftButton,"[""LeftButton""]",,,,,,,,,,,,44.83221977,4.007,space,0.8514,23.28920718,7.9091,0,39,39,39,1,3,only_sub_wrong.png,3,RandomDot17.png,No answer,19,,,,,,,,,
,,,,,,,,,,,,,,,,,,,,,,,,,,,,,,,R_5gBJYH1TXEzkJ8L,1,2024-05-10_22h28.59.711,interaction task,2021.2.3,MacIntel,60.24096386,120347,,,,,,,,,,,,,,,,,Greater,Smaller,,-0.252924262,-0.513784722,1,0,0,LeftButton,"[""LeftButton""]",80,2.4921,space,,,,,,,,,,,,,,,0,40,40,40,1,3,only_sub_wrong.png,0,RandomDot15.png,No answer,20,,,0.6495,,,,,,
,,,,,,,,,,,,,,,,,,,,,,,,,,,,,,,R_5gBJYH1TXEzkJ8L,1,2024-05-10_22h28.59.711,interaction task,2021.2.3,MacIntel,60.24096386,120347,,,,,,,,,,,,,,,,,Greater,Smaller,,0.327615017,-0.481293403,1,0,0,RightButton,"[""RightButton""]",,,,,,,,,,,,43.86880962,4.0119,space,1.7665,24.66308046,6.6797,0,41,41,41,1,3,only_sub_wrong.png,3,RandomDot20.png,No answer,19,,,,,,,,,
,,,,,,,,,,,,,,,,,,,,,,,,,,,,,,,R_5gBJYH1TXEzkJ8L,1,2024-05-10_22h28.59.711,interaction task,2021.2.3,MacIntel,60.24096386,120347,,,,,,,,,,,,,,,,,Greater,Smaller,,0.311599392,-0.512230903,1,0,0,RightButton,"[""RightButton""]",,,,,,,,,,,,5.400357744,3.7832,space,1.2333,4.045664983,6.59,,,,,,1,both_wrong.png,3,RandomDot30.png,No answer,20,,,,,0,0,0,0,1
