choose_trial,key_resp.keys,key_resp.rt,key_resp_4.keys,key_resp_4.rt,session_trait,slider_face_judge.response,slider_face_judge.rt,key_resp_3.keys,key_resp_3.rt,face_loop.thisRepN,face_loop.thisTrialN,face_loop.thisN,face_loop.thisIndex,face_loop.ran,face_serial,image_name,isCheck,answer,check_question,participant,session,date,expName,psychopyVersion,OS,frameRate,SONAid,session.thisRepN,session.thisTrialN,session.thisN,session.thisIndex,session.ran,session_serial,slider_judge_img
"[0,1,2,3,4,5,6,7,8,9,10,11,12,13,14,15,16,17,18,19,20,21,22,23,24,25,26,27,28,29,30,31,32,33,34,35,36,37,38,39,40,41,42,43,44,45,46,47,48,49,55,55,55]",space,9.2996,space,44.2809,friendly,3.986822917,3.0498,space,1.3962,0,0,0,24,1,25,image/25.jpg,0,0,,R_5gBJYH1TXEzkJ8L,2,2024-05-10_22h48.49.498,face trait task,2021.2.3,MacIntel,58.82352941,120347,,,,,,,
,,,,,,2.981666667,2.9956,space,1.0018,0,1,1,40,1,41,image/41.jpg,0,0,,R_5gBJYH1TXEzkJ8L,2,2024-05-10_22h48.49.498,face trait task,2021.2.3,MacIntel,58.82352941,120347,,,,,,,
,,,,,,3.008723958,2.8653,space,0.8182,0,2,2,27,1,28,image/28.jpg,0,0,,R_5gBJYH1TXEzkJ8L,2,2024-05-10_22h48.49.498,face trait task,2021.2.3,MacIntel,58.82352941,120347,,,,,,,
,,,,,,5.010260417,3.9023,space,0.4183,0,3,3,4,1,5,image/5.jpg,0,0,,R_5gBJYH1TXEzkJ8L,2,2024-05-10_22h48.49.498,face trait task,2021.2.3,MacIntel,58.82352941,120347,,,,,,,
,,,,,,5.975833333,4.0794,space,1.9186,0,4,4,35,1,36,image/36.jpg,0,0,,R_5gBJYH1TXEzkJ8L,2,2024-05-10_22h48.49.498,face trait task,2021.2.3,MacIntel,58.82352941,120347,,,,,,,
,,,,,,3.97328125,3.1145,space,0.9505,0,5,5,15,1,16,image/16.jpg,0,0,,R_5gBJYH1TXEzkJ8L,2,2024-05-10_22h48.49.498,face trait task,2021.2.3,MacIntel,58.82352941,120347,,,,,,,
,,,,,,5.995104167,3.6215,space,0.3409,0,6,6,3,1,4,image/4.jpg,0,0,,R_5gBJYH1TXEzkJ8L,2,2024-05-10_22h48.49.498,face trait task,2021.2.3,MacIntel,58.82352941,120347,,,,,,,
,,,,,,2.643255208,4.545,space,2.769,0,7,7,45,1,46,image/46.jpg,0,0,,R_5gBJYH1TXEzkJ8L,2,2024-05-10_22h48.49.498,face trait task,2021.2.3,MacIntel,58.82352941,120347,,,,,,,
,,,,,,4.495625,4.4637,space,1.5208,0,8,8,13,1,14,image/14.jpg,0,0,,R_5gBJYH1TXEzkJ8L,2,2024-05-10_22h48.49.498,face trait task,2021.2.3,MacIntel,58.82352941,120347,,,,,,,
,,,,,,3.420755208,4.2934,space,0.8048,0,9,9,38,1,39,image/39.jpg,0,0,,R_5gBJYH1TXEzkJ8L,2,2024-05-10_22h48.49.498,face trait task,2021.2.3,MacIntel,58.82352941,120347,,,,,,,
,,,,,,5.945234375,2.0619,space,0.9727,0,10,10,17,1,18,image/18.jpg,0,0,,R_5gBJYH1TXEzkJ8L,2,2024-05-10_22h48.49.498,face trait task,2021.2.3,MacIntel,58.82352941,120347,,,,,,,
,,,,,,3.999557292,3.8154,space,0.4995,0,11,11,9,1,10,image/10.jpg,0,0,,R_5gBJYH1TXEzkJ8L,2,2024-05-10_22h48.49.498,face trait task,2021.2.3,MacIntel,58.82352941,120347,,,,,,,
,,,,,,1.983385417,2.9975,space,0.8124,0,12,12,29,1,30,image/30.jpg,0,0,,R_5gBJYH1TXEzkJ8L,2,2024-05-10_22h48.49.498,face trait task,2021.2.3,MacIntel,58.82352941,120347,,,,,,,
,,,,,,1.586458333,2.2798,space,1.9179,0,13,13,34,1,35,image/35.jpg,0,0,,R_5gBJYH1TXEzkJ8L,2,2024-05-10_22h48.49.498,face trait task,2021.2.3,MacIntel,58.82352941,120347,,,,,,,
,,,,,,4.506640625,2.7789,space,0.5213,0,14,14,31,1,32,image/32.jpg,0,0,,R_5gBJYH1TXEzkJ8L,2,2024-05-10_22h48.49.498,face trait task,2021.2.3,MacIntel,58.82352941,120347,,,,,,,
,,,,,,3.495494792,2.1485,space,0.373,0,15,15,1,1,2,image/2.jpg,0,0,,R_5gBJYH1TXEzkJ8L,2,2024-05-10_22h48.49.498,face trait task,2021.2.3,MacIntel,58.82352941,120347,,,,,,,
,,,,,,2.962578125,2.0971,space,1.0961,0,16,16,32,1,33,image/33.jpg,0,0,,R_5gBJYH1TXEzkJ8L,2,2024-05-10_22h48.49.498,face trait task,2021.2.3,MacIntel,58.82352941,120347,,,,,,,
,,,,,,6.980651042,4.7368,space,0.7383,0,17,17,51,1,56,image/fill_img.png,1,7,Please move the slider all the way to the RIGHT to show that you are paying attention.,R_5gBJYH1TXEzkJ8L,2,2024-05-10_22h48.49.498,face trait task,2021.2.3,MacIntel,58.82352941,120347,,,,,,,
,,,,,,2.000104167,6.0103,space,0.505,0,18,18,0,1,1,image/1.jpg,0,0,,R_5gBJYH1TXEzkJ8L,2,2024-05-10_22h48.49.498,face trait task,2021.2.3,MacIntel,58.82352941,120347,,,,,,,
,,,,,,6.992447917,3.3673,space,0.766,0,19,19,52,1,56,image/fill_img.png,1,7,Please move the slider all the way to the RIGHT to show that you are paying attention.,R_5gBJYH1TXEzkJ8L,2,2024-05-10_22h48.49.498,face trait task,2021.2.3,MacIntel,58.82352941,120347,,,,,,,
,,,,,,3.421927083,3.3247,space,2.3055,0,20,20,39,1,40,image/40.jpg,0,0,,R_5gBJYH1TXEzkJ8L,2,2024-05-10_22h48.49.498,face trait task,2021.2.3,MacIntel,58.82352941,120347,,,,,,,
,,,,,,2.464635417,3.2965,space,0.9282,0,21,21,37,1,38,image/38.jpg,0,0,,R_5gBJYH1TXEzkJ8L,2,2024-05-10_22h48.49.498,face trait task,2021.2.3,MacIntel,58.82352941,120347,,,,,,,
,,,,,,5.947109375,3.7096,space,2.0201,0,22,22,49,1,50,image/50.jpg,0,0,,R_5gBJYH1TXEzkJ8L,2,2024-05-10_22h48.49.498,face trait task,2021.2.3,MacIntel,58.82352941,120347,,,,,,,
,,,,,,4.007916667,4.2977,space,1.6721,0,23,23,26,1,27,image/27.jpg,0,0,,R_5gBJYH1TXEzkJ8L,2,2024-05-10_22h48.49.498,face trait task,2021.2.3,MacIntel,58.82352941,120347,,,,,,,
,,,,,,2.970130208,2.279,space,0.7283,0,24,24,5,1,6,image/6.jpg,0,0,,R_5gBJYH1TXEzkJ8L,2,2024-05-10_22h48.49.498,face trait task,2021.2.3,MacIntel,58.82352941,120347,,,,,,,
,,,,,,3.974739583,6.1456,space,1.9966,0,25,25,12,1,13,image/13.jpg,0,0,,R_5gBJYH1TXEzkJ8L,2,2024-05-10_22h48.49.498,face trait task,2021.2.3,MacIntel,58.82352941,120347,,,,,,,
,,,,,,3.974739583,2.1978,space,1.573,0,26,26,22,1,23,image/23.jpg,0,0,,R_5gBJYH1TXEzkJ8L,2,2024-05-10_22h48.49.498,face trait task,2021.2.3,MacIntel,58.82352941,120347,,,,,,,
,,,,,,4.969713542,4.628,space,0.6754,0,27,27,30,1,31,image/31.jpg,0,0,,R_5gBJYH1TXEzkJ8L,2,2024-05-10_22h48.49.498,face trait task,2021.2.3,MacIntel,58.82352941,120347,,,,,,,
,,,,,,2.989661458,5.9211,space,0.6129,0,28,28,46,1,47,image/47.jpg,0,0,,R_5gBJYH1TXEzkJ8L,2,2024-05-10_22h48.49.498,face trait task,2021.2.3,MacIntel,58.82352941,120347,,,,,,,
,,,,,,2.989661458,2.379,space,1.219,0,29,29,19,1,20,image/20.jpg,0,0,,R_5gBJYH1TXEzkJ8L,2,2024-05-10_22h48.49.498,face trait task,2021.2.3,MacIntel,58.82352941,120347,,,,,,,
,,,,,,2.010703125,4.9412,space,1.3384,0,30,30,36,1,37,image/37.jpg,0,0,,R_5gBJYH1TXEzkJ8L,2,2024-05-10_22h48.49.498,face trait task,2021.2.3,MacIntel,58.82352941,120347,,,,,,,
,,,,,,6.97609375,2.2297,space,1.0503,0,31,31,43,1,44,image/44.jpg,0,0,,R_5gBJYH1TXEzkJ8L,2,2024-05-10_22h48.49.498,face trait task,2021.2.3,MacIntel,58.82352941,120347,,,,,,,
,,,,,,5.006197917,2.9297,space,1.7187,0,32,32,25,1,26,image/26.jpg,0,0,,R_5gBJYH1TXEzkJ8L,2,2024-05-10_22h48.49.498,face trait task,2021.2.3,MacIntel,58.82352941,120347,,,,,,,
,,,,,,5.976770833,2.6644,space,2.6664,0,33,33,20,1,21,image/21.jpg,0,0,,R_5gBJYH1TXEzkJ8L,2,2024-05-10_22h48.49.498,face trait task,2021.2.3,MacIntel,58.82352941,120347,,,,,,,
,,,,,,1.99203125,6.8236,space,4.6526,0,34,34,48,1,49,image/49.jpg,0,0,,R_5gBJYH1TXEzkJ8L,2,2024-05-10_22h48.49.498,face trait task,2021.2.3,MacIntel,58.82352941,120347,,,,,,,
,,,,,,5.015494792,3.7906,space,0.9643,0,35,35,11,1,12,image/12.jpg,0,0,,R_5gBJYH1TXEzkJ8L,2,2024-05-10_22h48.49.498,face trait task,2021.2.3,MacIntel,58.82352941,120347,,,,,,,
,,,,,,5.015494792,1.6968,space,2.2498,0,36,36,2,1,3,image/3.jpg,0,0,,R_5gBJYH1TXEzkJ8L,2,2024-05-10_22h48.49.498,face trait task,2021.2.3,MacIntel,58.82352941,120347,,,,,,,
,,,,,,3.999296875,5.131,space,0.1669,0,37,37,41,1,42,image/42.jpg,0,0,,R_5gBJYH1TXEzkJ8L,2,2024-05-10_22h48.49.498,face trait task,2021.2.3,MacIntel,58.82352941,120347,,,,,,,
,,,,,,3.994375,9.7798,space,0.5873,0,38,38,16,1,17,image/17.jpg,0,0,,R_5gBJYH1TXEzkJ8L,2,2024-05-10_22h48.49.498,face trait task,2021.2.3,MacIntel,58.82352941,120347,,,,,,,
,,,,,,3.012213542,8.5322,space,3.2869,0,39,39,6,1,7,image/7.jpg,0,0,,R_5gBJYH1TXEzkJ8L,2,2024-05-10_22h48.49.498,face trait task,2021.2.3,MacIntel,58.82352941,120347,,,,,,,
,,,,,,5.996979167,4.5493,space,1.2812,0,40,40,33,1,34,image/34.jpg,0,0,,R_5gBJYH1TXEzkJ8L,2,2024-05-10_22h48.49.498,face trait task,2021.2.3,MacIntel,58.82352941,120347,,,,,,,
,,,,,,4.007708333,4.2462,space,1.8203,0,41,41,7,1,8,image/8.jpg,0,0,,R_5gBJYH1TXEzkJ8L,2,2024-05-10_22h48.49.498,face trait task,2021.2.3,MacIntel,58.82352941,120347,,,,,,,
,,,,,,2.000286458,6.2469,space,2.8208,0,42,42,28,1,29,image/29.jpg,0,0,,R_5gBJYH1TXEzkJ8L,2,2024-05-10_22h48.49.498,face trait task,2021.2.3,MacIntel,58.82352941,120347,,,,,,,
,,,,,,5.005130208,3.7828,space,1.1306,0,43,43,10,1,11,image/11.jpg,0,0,,R_5gBJYH1TXEzkJ8L,2,2024-05-10_22h48.49.498,face trait task,2021.2.3,MacIntel,58.82352941,120347,,,,,,,
,,,,,,3.9925,6.9471,space,0.5342,0,44,44,42,1,43,image/43.jpg,0,0,,R_5gBJYH1TXEzkJ8L,2,2024-05-10_22h48.49.498,face trait task,2021.2.3,MacIntel,58.82352941,120347,,,,,,,
,,,,,,2.000182292,5.2566,space,0.7036,0,45,45,47,1,48,image/48.jpg,0,0,,R_5gBJYH1TXEzkJ8L,2,2024-05-10_22h48.49.498,face trait task,2021.2.3,MacIntel,58.82352941,120347,,,,,,,
,,,,,,1.997578125,4.2787,space,0.6175,0,46,46,21,1,22,image/22.jpg,0,0,,R_5gBJYH1TXEzkJ8L,2,2024-05-10_22h48.49.498,face trait task,2021.2.3,MacIntel,58.82352941,120347,,,,,,,
,,,,,,2.9996875,5.3767,space,0.4891,0,47,47,18,1,19,image/19.jpg,0,0,,R_5gBJYH1TXEzkJ8L,2,2024-05-10_22h48.49.498,face trait task,2021.2.3,MacIntel,58.82352941,120347,,,,,,,
,,,,,,2.005677083,4.4542,space,1.4029,0,48,48,8,1,9,image/9.jpg,0,0,,R_5gBJYH1TXEzkJ8L,2,2024-05-10_22h48.49.498,face trait task,2021.2.3,MacIntel,58.82352941,120347,,,,,,,
,,,,,,6.998359375,6.2451,space,2.2685,0,49,49,50,1,56,image/fill_img.png,1,7,Please move the slider all the way to the RIGHT to show that you are paying attention.,R_5gBJYH1TXEzkJ8L,2,2024-05-10_22h48.49.498,face trait task,2021.2.3,MacIntel,58.82352941,120347,,,,,,,
,,,,,,4.992526042,6.2757,space,0.5272,0,50,50,23,1,24,image/24.jpg,0,0,,R_5gBJYH1TXEzkJ8L,2,2024-05-10_22h48.49.498,face trait task,2021.2.3,MacIntel,58.82352941,120347,,,,,,,
,,,,,,3.985,8.073,space,4.1167,0,51,51,44,1,45,image/45.jpg,0,0,,R_5gBJYH1TXEzkJ8L,2,2024-05-10_22h48.49.498,face trait task,2021.2.3,MacIntel,58.82352941,120347,,,,,,,
,,,,,,6.000807292,3.7759,space,2.2711,0,52,52,14,1,15,image/15.jpg,0,0,,R_5gBJYH1TXEzkJ8L,2,2024-05-10_22h48.49.498,face trait task,2021.2.3,MacIntel,58.82352941,120347,,,,,,,
,,,,,,,,,,,,,,,,,,,,R_5gBJYH1TXEzkJ8L,2,2024-05-10_22h48.49.498,face trait task,2021.2.3,MacIntel,58.82352941,120347,0,0,0,3,1,3,friendly.png
,,,,,critical,6.984088542,7.0072,space,1.5664,0,0,0,4,1,5,image/5.jpg,0,0,,R_5gBJYH1TXEzkJ8L,2,2024-05-10_22h48.49.498,face trait task,2021.2.3,MacIntel,58.82352941,120347,,,,,,,
,,,,,,6.996822917,2.5878,space,3.037,0,1,1,19,1,20,image/20.jpg,0,0,,R_5gBJYH1TXEzkJ8L,2,2024-05-10_22h48.49.498,face trait task,2021.2.3,MacIntel,58.82352941,120347,,,,,,,
,,,,,,1.994765625,5.2221,space,1.4465,0,2,2,5,1,6,image/6.jpg,0,0,,R_5gBJYH1TXEzkJ8L,2,2024-05-10_22h48.49.498,face trait task,2021.2.3,MacIntel,58.82352941,120347,,,,,,,
,,,,,,6.98625,4.6209,space,2.1358,0,3,3,27,1,28,image/28.jpg,0,0,,R_5gBJYH1TXEzkJ8L,2,2024-05-10_22h48.49.498,face trait task,2021.2.3,MacIntel,58.82352941,120347,,,,,,,
,,,,,,1.947916667,4.6345,space,2.15,0,4,4,24,1,25,image/25.jpg,0,0,,R_5gBJYH1TXEzkJ8L,2,2024-05-10_22h48.49.498,face trait task,2021.2.3,MacIntel,58.82352941,120347,,,,,,,
,,,,,,1.004869792,4.9301,space,1.9207,0,5,5,11,1,12,image/12.jpg,0,0,,R_5gBJYH1TXEzkJ8L,2,2024-05-10_22h48.49.498,face trait task,2021.2.3,MacIntel,58.82352941,120347,,,,,,,
,,,,,,4.999322917,4.2082,space,1.3637,0,6,6,43,1,44,image/44.jpg,0,0,,R_5gBJYH1TXEzkJ8L,2,2024-05-10_22h48.49.498,face trait task,2021.2.3,MacIntel,58.82352941,120347,,,,,,,
,,,,,,2.98578125,3.4873,space,2.2502,0,7,7,28,1,29,image/29.jpg,0,0,,R_5gBJYH1TXEzkJ8L,2,2024-05-10_22h48.49.498,face trait task,2021.2.3,MacIntel,58.82352941,120347,,,,,,,
,,,,,,4.991692708,4.0462,space,1.8848,0,8,8,44,1,45,image/45.jpg,0,0,,R_5gBJYH1TXEzkJ8L,2,2024-05-10_22h48.49.498,face trait task,2021.2.3,MacIntel,58.82352941,120347,,,,,,,
,,,,,,6.9953125,4.778,space,0.906,0,9,9,51,1,56,image/fill_img.png,1,7,Please move the slider all the way to the RIGHT to show that you are paying attention.,R_5gBJYH1TXEzkJ8L,2,2024-05-10_22h48.49.498,face trait task,2021.2.3,MacIntel,58.82352941,120347,,,,,,,
,,,,,,2.977734375,4.8065,space,1.5545,0,10,10,47,1,48,image/48.jpg,0,0,,R_5gBJYH1TXEzkJ8L,2,2024-05-10_22h48.49.498,face trait task,2021.2.3,MacIntel,58.82352941,120347,,,,,,,
,,,,,,3.997994792,3.4608,space,3.0301,0,11,11,13,1,14,image/14.jpg,0,0,,R_5gBJYH1TXEzkJ8L,2,2024-05-10_22h48.49.498,face trait task,2021.2.3,MacIntel,58.82352941,120347,,,,,,,
,,,,,,4.995598958,2.4233,space,3.7012,0,12,12,20,1,21,image/21.jpg,0,0,,R_5gBJYH1TXEzkJ8L,2,2024-05-10_22h48.49.498,face trait task,2021.2.3,MacIntel,58.82352941,120347,,,,,,,
,,,,,,4.993619792,3.4994,space,2.974,0,13,13,39,1,40,image/40.jpg,0,0,,R_5gBJYH1TXEzkJ8L,2,2024-05-10_22h48.49.498,face trait task,2021.2.3,MacIntel,58.82352941,120347,,,,,,,
,,,,,,5.968854167,7.0533,space,6.3868,0,14,14,40,1,41,image/41.jpg,0,0,,R_5gBJYH1TXEzkJ8L,2,2024-05-10_22h48.49.498,face trait task,2021.2.3,MacIntel,58.82352941,120347,,,,,,,
,,,,,,6.004479167,13.3786,space,10.6212,0,15,15,30,1,31,image/31.jpg,0,0,,R_5gBJYH1TXEzkJ8L,2,2024-05-10_22h48.49.498,face trait task,2021.2.3,MacIntel,58.82352941,120347,,,,,,,
,,,,,,2.01875,4.341,space,0.7201,0,16,16,0,1,1,image/1.jpg,0,0,,R_5gBJYH1TXEzkJ8L,2,2024-05-10_22h48.49.498,face trait task,2021.2.3,MacIntel,58.82352941,120347,,,,,,,
,,,,,,4.986171875,5.2636,space,0.9533,0,17,17,48,1,49,image/49.jpg,0,0,,R_5gBJYH1TXEzkJ8L,2,2024-05-10_22h48.49.498,face trait task,2021.2.3,MacIntel,58.82352941,120347,,,,,,,
,,,,,,5.971328125,2.5125,space,2.539,0,18,18,17,1,18,image/18.jpg,0,0,,R_5gBJYH1TXEzkJ8L,2,2024-05-10_22h48.49.498,face trait task,2021.2.3,MacIntel,58.82352941,120347,,,,,,,
,,,,,,1.008645833,2.8111,space,1.3018,0,19,19,49,1,50,image/50.jpg,0,0,,R_5gBJYH1TXEzkJ8L,2,2024-05-10_22h48.49.498,face trait task,2021.2.3,MacIntel,58.82352941,120347,,,,,,,
,,,,,,2.998828125,3.0978,space,1.8649,0,20,20,23,1,24,image/24.jpg,0,0,,R_5gBJYH1TXEzkJ8L,2,2024-05-10_22h48.49.498,face trait task,2021.2.3,MacIntel,58.82352941,120347,,,,,,,
,,,,,,3.014348958,2.3495,space,1.5511,0,21,21,36,1,37,image/37.jpg,0,0,,R_5gBJYH1TXEzkJ8L,2,2024-05-10_22h48.49.498,face trait task,2021.2.3,MacIntel,58.82352941,120347,,,,,,,
,,,,,,1.99109375,3.3282,space,1.8703,0,22,22,22,1,23,image/23.jpg,0,0,,R_5gBJYH1TXEzkJ8L,2,2024-05-10_22h48.49.498,face trait task,2021.2.3,MacIntel,58.82352941,120347,,,,,,,
,,,,,,1.982942708,4.1201,space,0.8583,0,23,23,26,1,27,image/27.jpg,0,0,,R_5gBJYH1TXEzkJ8L,2,2024-05-10_22h48.49.498,face trait task,2021.2.3,MacIntel,58.82352941,120347,,,,,,,
,,,,,,1.010859375,2.3616,space,1.6179,0,24,24,7,1,8,image/8.jpg,0,0,,R_5gBJYH1TXEzkJ8L,2,2024-05-10_22h48.49.498,face trait task,2021.2.3,MacIntel,58.82352941,120347,,,,,,,
,,,,,,5.988671875,2.4292,space,1.671,0,25,25,45,1,46,image/46.jpg,0,0,,R_5gBJYH1TXEzkJ8L,2,2024-05-10_22h48.49.498,face trait task,2021.2.3,MacIntel,58.82352941,120347,,,,,,,
,,,,,,2.989895833,3.0633,space,0.839,0,26,26,12,1,13,image/13.jpg,0,0,,R_5gBJYH1TXEzkJ8L,2,2024-05-10_22h48.49.498,face trait task,2021.2.3,MacIntel,58.82352941,120347,,,,,,,
,,,,,,2.989895833,2.8742,space,1.2021,0,27,27,46,1,47,image/47.jpg,0,0,,R_5gBJYH1TXEzkJ8L,2,2024-05-10_22h48.49.498,face trait task,2021.2.3,MacIntel,58.82352941,120347,,,,,,,
,,,,,,4.967864583,2.578,space,1.769,0,28,28,8,1,9,image/9.jpg,0,0,,R_5gBJYH1TXEzkJ8L,2,2024-05-10_22h48.49.498,face trait task,2021.2.3,MacIntel,58.82352941,120347,,,,,,,
,,,,,,4.998619792,3.0648,space,0.9331,0,29,29,29,1,30,image/30.jpg,0,0,,R_5gBJYH1TXEzkJ8L,2,2024-05-10_22h48.49.498,face trait task,2021.2.3,MacIntel,58.82352941,120347,,,,,,,
,,,,,,2.029088542,2.5632,space,1.5972,0,30,30,33,1,34,image/34.jpg,0,0,,R_5gBJYH1TXEzkJ8L,2,2024-05-10_22h48.49.498,face trait task,2021.2.3,MacIntel,58.82352941,120347,,,,,,,
,,,,,,2.980026042,7.2133,space,0.4161,0,31,31,10,1,11,image/11.jpg,0,0,,R_5gBJYH1TXEzkJ8L,2,2024-05-10_22h48.49.498,face trait task,2021.2.3,MacIntel,58.82352941,120347,,,,,,,
,,,,,,3.997447917,4.1657,space,2.8133,0,32,32,34,1,35,image/35.jpg,0,0,,R_5gBJYH1TXEzkJ8L,2,2024-05-10_22h48.49.498,face trait task,2021.2.3,MacIntel,58.82352941,120347,,,,,,,
,,,,,,6.990416667,3.4669,space,0.8229,0,33,33,50,1,56,image/fill_img.png,1,7,Please move the slider all the way to the RIGHT to show that you are paying attention.,R_5gBJYH1TXEzkJ8L,2,2024-05-10_22h48.49.498,face trait task,2021.2.3,MacIntel,58.82352941,120347,,,,,,,
,,,,,,2.999375,5.8452,space,0.3961,0,34,34,41,1,42,image/42.jpg,0,0,,R_5gBJYH1TXEzkJ8L,2,2024-05-10_22h48.49.498,face trait task,2021.2.3,MacIntel,58.82352941,120347,,,,,,,
,,,,,,2.995,3.9102,space,0.589,0,35,35,42,1,43,image/43.jpg,0,0,,R_5gBJYH1TXEzkJ8L,2,2024-05-10_22h48.49.498,face trait task,2021.2.3,MacIntel,58.82352941,120347,,,,,,,
,,,,,,5.954921875,2.7977,space,1.5962,0,36,36,21,1,22,image/22.jpg,0,0,,R_5gBJYH1TXEzkJ8L,2,2024-05-10_22h48.49.498,face trait task,2021.2.3,MacIntel,58.82352941,120347,,,,,,,
,,,,,,6.009192708,3.2875,space,0.9695,0,37,37,9,1,10,image/10.jpg,0,0,,R_5gBJYH1TXEzkJ8L,2,2024-05-10_22h48.49.498,face trait task,2021.2.3,MacIntel,58.82352941,120347,,,,,,,
,,,,,,6.009192708,2.5609,space,1.5285,0,38,38,18,1,19,image/19.jpg,0,0,,R_5gBJYH1TXEzkJ8L,2,2024-05-10_22h48.49.498,face trait task,2021.2.3,MacIntel,58.82352941,120347,,,,,,,
,,,,,,2.005963542,3.3024,space,1.1451,0,39,39,35,1,36,image/36.jpg,0,0,,R_5gBJYH1TXEzkJ8L,2,2024-05-10_22h48.49.498,face trait task,2021.2.3,MacIntel,58.82352941,120347,,,,,,,
,,,,,,4.989166667,2.3146,space,1.6357,0,40,40,3,1,4,image/4.jpg,0,0,,R_5gBJYH1TXEzkJ8L,2,2024-05-10_22h48.49.498,face trait task,2021.2.3,MacIntel,58.82352941,120347,,,,,,,
,,,,,,4.009270833,2.8477,space,2.052,0,41,41,32,1,33,image/33.jpg,0,0,,R_5gBJYH1TXEzkJ8L,2,2024-05-10_22h48.49.498,face trait task,2021.2.3,MacIntel,58.82352941,120347,,,,,,,
,,,,,,3.009635417,2.7363,space,1.397,0,42,42,2,1,3,image/3.jpg,0,0,,R_5gBJYH1TXEzkJ8L,2,2024-05-10_22h48.49.498,face trait task,2021.2.3,MacIntel,58.82352941,120347,,,,,,,
,,,,,,4.989114583,4.2101,space,0.736,0,43,43,15,1,16,image/16.jpg,0,0,,R_5gBJYH1TXEzkJ8L,2,2024-05-10_22h48.49.498,face trait task,2021.2.3,MacIntel,58.82352941,120347,,,,,,,
,,,,,,5.012421875,2.2802,space,1.3798,0,44,44,1,1,2,image/2.jpg,0,0,,R_5gBJYH1TXEzkJ8L,2,2024-05-10_22h48.49.498,face trait task,2021.2.3,MacIntel,58.82352941,120347,,,,,,,
,,,,,,3.994791667,3.4352,space,1.1864,0,45,45,38,1,39,image/39.jpg,0,0,,R_5gBJYH1TXEzkJ8L,2,2024-05-10_22h48.49.498,face trait task,2021.2.3,MacIntel,58.82352941,120347,,,,,,,
,,,,,,4.976223958,3.5906,space,0.8935,0,46,46,14,1,15,image/15.jpg,0,0,,R_5gBJYH1TXEzkJ8L,2,2024-05-10_22h48.49.498,face trait task,2021.2.3,MacIntel,58.82352941,120347,,,,,,,
,,,,,,6.994557292,2.8111,space,0.7855,0,47,47,52,1,56,image/fill_img.png,1,7,Please move the slider all the way to the RIGHT to show that you are paying attention.,R_5gBJYH1TXEzkJ8L,2,2024-05-10_22h48.49.498,face trait task,2021.2.3,MacIntel,58.82352941,120347,,,,,,,
,,,,,,2.990807292,5.9255,space,0.4746,0,48,48,6,1,7,image/7.jpg,0,0,,R_5gBJYH1TXEzkJ8L,2,2024-05-10_22h48.49.498,face trait task,2021.2.3,MacIntel,58.82352941,120347,,,,,,,
,,,,,,4.002786458,4.1343,space,0.465,0,49,49,37,1,38,image/38.jpg,0,0,,R_5gBJYH1TXEzkJ8L,2,2024-05-10_22h48.49.498,face trait task,2021.2.3,MacIntel,58.82352941,120347,,,,,,,
,,,,,,6.0046875,3.379,space,1.5893,0,50,50,16,1,17,image/17.jpg,0,0,,R_5gBJYH1TXEzkJ8L,2,2024-05-10_22h48.49.498,face trait task,2021.2.3,MacIntel,58.82352941,120347,,,,,,,
,,,,,,4.017291667,2.4947,space,1.8126,0,51,51,31,1,32,image/32.jpg,0,0,,R_5gBJYH1TXEzkJ8L,2,2024-05-10_22h48.49.498,face trait task,2021.2.3,MacIntel,58.82352941,120347,,,,,,,
,,,,,,4.990416667,2.2153,space,1.3361,0,52,52,25,1,26,image/26.jpg,0,0,,R_5gBJYH1TXEzkJ8L,2,2024-05-10_22h48.49.498,face trait task,2021.2.3,MacIntel,58.82352941,120347,,,,,,,
,,,,,,,,,,,,,,,,,,,,R_5gBJYH1TXEzkJ8L,2,2024-05-10_22h48.49.498,face trait task,2021.2.3,MacIntel,58.82352941,120347,0,1,1,0,1,0,critical.png
,,,,,competent,4.996171875,2.719,space,1.3493,0,0,0,21,1,22,image/22.jpg,0,0,,R_5gBJYH1TXEzkJ8L,2,2024-05-10_22h48.49.498,face trait task,2021.2.3,MacIntel,58.82352941,120347,,,,,,,
,,,,,,5.984114583,2.8614,space,1.5442,0,1,1,10,1,11,image/11.jpg,0,0,,R_5gBJYH1TXEzkJ8L,2,2024-05-10_22h48.49.498,face trait task,2021.2.3,MacIntel,58.82352941,120347,,,,,,,
,,,,,,5.999192708,2.3651,space,1.9526,0,2,2,41,1,42,image/42.jpg,0,0,,R_5gBJYH1TXEzkJ8L,2,2024-05-10_22h48.49.498,face trait task,2021.2.3,MacIntel,58.82352941,120347,,,,,,,
,,,,,,5.013854167,2.816,space,1.4039,0,3,3,3,1,4,image/4.jpg,0,0,,R_5gBJYH1TXEzkJ8L,2,2024-05-10_22h48.49.498,face trait task,2021.2.3,MacIntel,58.82352941,120347,,,,,,,
,,,,,,5.9840625,3.7427,space,1.066,0,4,4,39,1,40,image/40.jpg,0,0,,R_5gBJYH1TXEzkJ8L,2,2024-05-10_22h48.49.498,face trait task,2021.2.3,MacIntel,58.82352941,120347,,,,,,,
,,,,,,6.006692708,2.5973,space,1.9685,0,5,5,14,1,15,image/15.jpg,0,0,,R_5gBJYH1TXEzkJ8L,2,2024-05-10_22h48.49.498,face trait task,2021.2.3,MacIntel,58.82352941,120347,,,,,,,
,,,,,,6.987760417,3.1846,space,0.8467,0,6,6,31,1,32,image/32.jpg,0,0,,R_5gBJYH1TXEzkJ8L,2,2024-05-10_22h48.49.498,face trait task,2021.2.3,MacIntel,58.82352941,120347,,,,,,,
,,,,,,6.9909375,2.6806,space,1.3634,0,7,7,5,1,6,image/6.jpg,0,0,,R_5gBJYH1TXEzkJ8L,2,2024-05-10_22h48.49.498,face trait task,2021.2.3,MacIntel,58.82352941,120347,,,,,,,
,,,,,,5.060442708,2.7288,space,1.8196,0,8,8,4,1,5,image/5.jpg,0,0,,R_5gBJYH1TXEzkJ8L,2,2024-05-10_22h48.49.498,face trait task,2021.2.3,MacIntel,58.82352941,120347,,,,,,,
,,,,,,2.9634375,2.5814,space,2.5005,0,9,9,34,1,35,image/35.jpg,0,0,,R_5gBJYH1TXEzkJ8L,2,2024-05-10_22h48.49.498,face trait task,2021.2.3,MacIntel,58.82352941,120347,,,,,,,
,,,,,,6.0028125,3.6694,space,2.6347,0,10,10,0,1,1,image/1.jpg,0,0,,R_5gBJYH1TXEzkJ8L,2,2024-05-10_22h48.49.498,face trait task,2021.2.3,MacIntel,58.82352941,120347,,,,,,,
,,,,,,5.021223958,3.1379,space,1.3815,0,11,11,12,1,13,image/13.jpg,0,0,,R_5gBJYH1TXEzkJ8L,2,2024-05-10_22h48.49.498,face trait task,2021.2.3,MacIntel,58.82352941,120347,,,,,,,
,,,,,,3.990494792,5.0981,space,0.1642,0,12,12,1,1,2,image/2.jpg,0,0,,R_5gBJYH1TXEzkJ8L,2,2024-05-10_22h48.49.498,face trait task,2021.2.3,MacIntel,58.82352941,120347,,,,,,,
,,,,,,5.006640625,6.262,space,2.8201,0,13,13,33,1,34,image/34.jpg,0,0,,R_5gBJYH1TXEzkJ8L,2,2024-05-10_22h48.49.498,face trait task,2021.2.3,MacIntel,58.82352941,120347,,,,,,,
,,,,,,3.013776042,3.3296,space,2.2229,0,14,14,24,1,25,image/25.jpg,0,0,,R_5gBJYH1TXEzkJ8L,2,2024-05-10_22h48.49.498,face trait task,2021.2.3,MacIntel,58.82352941,120347,,,,,,,
,,,,,,4.976770833,2.156,space,2.1346,0,15,15,23,1,24,image/24.jpg,0,0,,R_5gBJYH1TXEzkJ8L,2,2024-05-10_22h48.49.498,face trait task,2021.2.3,MacIntel,58.82352941,120347,,,,,,,
,,,,,,6.003541667,3.5741,space,2.7945,0,16,16,45,1,46,image/46.jpg,0,0,,R_5gBJYH1TXEzkJ8L,2,2024-05-10_22h48.49.498,face trait task,2021.2.3,MacIntel,58.82352941,120347,,,,,,,
,,,,,,5.01234375,2.4298,space,2.4967,0,17,17,22,1,23,image/23.jpg,0,0,,R_5gBJYH1TXEzkJ8L,2,2024-05-10_22h48.49.498,face trait task,2021.2.3,MacIntel,58.82352941,120347,,,,,,,
,,,,,,5.98203125,4.2549,space,1.9807,0,18,18,2,1,3,image/3.jpg,0,0,,R_5gBJYH1TXEzkJ8L,2,2024-05-10_22h48.49.498,face trait task,2021.2.3,MacIntel,58.82352941,120347,,,,,,,
,,,,,,3.024401042,6.0792,space,4.1707,0,19,19,27,1,28,image/28.jpg,0,0,,R_5gBJYH1TXEzkJ8L,2,2024-05-10_22h48.49.498,face trait task,2021.2.3,MacIntel,58.82352941,120347,,,,,,,
,,,,,,3.002473958,2.7918,space,1.8695,0,20,20,47,1,48,image/48.jpg,0,0,,R_5gBJYH1TXEzkJ8L,2,2024-05-10_22h48.49.498,face trait task,2021.2.3,MacIntel,58.82352941,120347,,,,,,,
,,,,,,5.979322917,2.1801,space,3.305,0,21,21,9,1,10,image/10.jpg,0,0,,R_5gBJYH1TXEzkJ8L,2,2024-05-10_22h48.49.498,face trait task,2021.2.3,MacIntel,58.82352941,120347,,,,,,,
,,,,,,5.998880208,3.4346,space,1.2836,0,22,22,44,1,45,image/45.jpg,0,0,,R_5gBJYH1TXEzkJ8L,2,2024-05-10_22h48.49.498,face trait task,2021.2.3,MacIntel,58.82352941,120347,,,,,,,
,,,,,,4.981588542,3.9478,space,1.6871,0,23,23,38,1,39,image/39.jpg,0,0,,R_5gBJYH1TXEzkJ8L,2,2024-05-10_22h48.49.498,face trait task,2021.2.3,MacIntel,58.82352941,120347,,,,,,,
,,,,,,6.971822917,2.4474,space,0.4508,0,24,24,51,1,56,image/fill_img.png,1,7,Please move the slider all the way to the RIGHT to show that you are paying attention.,R_5gBJYH1TXEzkJ8L,2,2024-05-10_22h48.49.498,face trait task,2021.2.3,MacIntel,58.82352941,120347,,,,,,,
,,,,,,6.962890625,4.2207,space,1.4823,0,25,25,42,1,43,image/43.jpg,0,0,,R_5gBJYH1TXEzkJ8L,2,2024-05-10_22h48.49.498,face trait task,2021.2.3,MacIntel,58.82352941,120347,,,,,,,
,,,,,,5.986953125,2.9792,space,1.3688,0,26,26,17,1,18,image/18.jpg,0,0,,R_5gBJYH1TXEzkJ8L,2,2024-05-10_22h48.49.498,face trait task,2021.2.3,MacIntel,58.82352941,120347,,,,,,,
,,,,,,3.005494792,2.6796,space,1.4372,0,27,27,16,1,17,image/17.jpg,0,0,,R_5gBJYH1TXEzkJ8L,2,2024-05-10_22h48.49.498,face trait task,2021.2.3,MacIntel,58.82352941,120347,,,,,,,
,,,,,,2.027578125,2.4313,space,2.7006,0,28,28,49,1,50,image/50.jpg,0,0,,R_5gBJYH1TXEzkJ8L,2,2024-05-10_22h48.49.498,face trait task,2021.2.3,MacIntel,58.82352941,120347,,,,,,,
,,,,,,3.979088542,3.9151,space,3.8983,0,29,29,11,1,12,image/12.jpg,0,0,,R_5gBJYH1TXEzkJ8L,2,2024-05-10_22h48.49.498,face trait task,2021.2.3,MacIntel,58.82352941,120347,,,,,,,
,,,,,,3.00609375,2.8024,space,2.1683,0,30,30,30,1,31,image/31.jpg,0,0,,R_5gBJYH1TXEzkJ8L,2,2024-05-10_22h48.49.498,face trait task,2021.2.3,MacIntel,58.82352941,120347,,,,,,,
,,,,,,5.02015625,4.5118,space,1.5618,0,31,31,46,1,47,image/47.jpg,0,0,,R_5gBJYH1TXEzkJ8L,2,2024-05-10_22h48.49.498,face trait task,2021.2.3,MacIntel,58.82352941,120347,,,,,,,
,,,,,,3.001510417,2.5154,space,2.2163,0,32,32,48,1,49,image/49.jpg,0,0,,R_5gBJYH1TXEzkJ8L,2,2024-05-10_22h48.49.498,face trait task,2021.2.3,MacIntel,58.82352941,120347,,,,,,,
,,,,,,5.011901042,3.3377,space,2.3574,0,33,33,26,1,27,image/27.jpg,0,0,,R_5gBJYH1TXEzkJ8L,2,2024-05-10_22h48.49.498,face trait task,2021.2.3,MacIntel,58.82352941,120347,,,,,,,
,,,,,,5.991041667,5.0946,space,1.3744,0,34,34,43,1,44,image/44.jpg,0,0,,R_5gBJYH1TXEzkJ8L,2,2024-05-10_22h48.49.498,face trait task,2021.2.3,MacIntel,58.82352941,120347,,,,,,,
,,,,,,3.994895833,4.3462,space,3.2937,0,35,35,19,1,20,image/20.jpg,0,0,,R_5gBJYH1TXEzkJ8L,2,2024-05-10_22h48.49.498,face trait task,2021.2.3,MacIntel,58.82352941,120347,,,,,,,
,,,,,,4.995807292,2.9321,space,1.7033,0,36,36,8,1,9,image/9.jpg,0,0,,R_5gBJYH1TXEzkJ8L,2,2024-05-10_22h48.49.498,face trait task,2021.2.3,MacIntel,58.82352941,120347,,,,,,,
,,,,,,6.013697917,3.4779,space,1.4515,0,37,37,37,1,38,image/38.jpg,0,0,,R_5gBJYH1TXEzkJ8L,2,2024-05-10_22h48.49.498,face trait task,2021.2.3,MacIntel,58.82352941,120347,,,,,,,
,,,,,,6.990885417,3.9538,space,1.1454,0,38,38,29,1,30,image/30.jpg,0,0,,R_5gBJYH1TXEzkJ8L,2,2024-05-10_22h48.49.498,face trait task,2021.2.3,MacIntel,58.82352941,120347,,,,,,,
,,,,,,5.010833333,3.1544,space,1.3384,0,39,39,25,1,26,image/26.jpg,0,0,,R_5gBJYH1TXEzkJ8L,2,2024-05-10_22h48.49.498,face trait task,2021.2.3,MacIntel,58.82352941,120347,,,,,,,
,,,,,,6.950677083,2.647,space,1.937,0,40,40,7,1,8,image/8.jpg,0,0,,R_5gBJYH1TXEzkJ8L,2,2024-05-10_22h48.49.498,face trait task,2021.2.3,MacIntel,58.82352941,120347,,,,,,,
,,,,,,6.973932292,3.6002,space,0.5557,0,41,41,50,1,56,image/fill_img.png,1,7,Please move the slider all the way to the RIGHT to show that you are paying attention.,R_5gBJYH1TXEzkJ8L,2,2024-05-10_22h48.49.498,face trait task,2021.2.3,MacIntel,58.82352941,120347,,,,,,,
,,,,,,2.980234375,6.326,space,4.3485,0,42,42,32,1,33,image/33.jpg,0,0,,R_5gBJYH1TXEzkJ8L,2,2024-05-10_22h48.49.498,face trait task,2021.2.3,MacIntel,58.82352941,120347,,,,,,,
,,,,,,5.99734375,2.9386,space,1.501,0,43,43,6,1,7,image/7.jpg,0,0,,R_5gBJYH1TXEzkJ8L,2,2024-05-10_22h48.49.498,face trait task,2021.2.3,MacIntel,58.82352941,120347,,,,,,,
,,,,,,5.987369792,2.5852,space,1.6667,0,44,44,40,1,41,image/41.jpg,0,0,,R_5gBJYH1TXEzkJ8L,2,2024-05-10_22h48.49.498,face trait task,2021.2.3,MacIntel,58.82352941,120347,,,,,,,
,,,,,,3.012291667,2.7179,space,2.1981,0,45,45,15,1,16,image/16.jpg,0,0,,R_5gBJYH1TXEzkJ8L,2,2024-05-10_22h48.49.498,face trait task,2021.2.3,MacIntel,58.82352941,120347,,,,,,,
,,,,,,6.957890625,2.4641,space,1.0844,0,46,46,52,1,56,image/fill_img.png,1,7,Please move the slider all the way to the RIGHT to show that you are paying attention.,R_5gBJYH1TXEzkJ8L,2,2024-05-10_22h48.49.498,face trait task,2021.2.3,MacIntel,58.82352941,120347,,,,,,,
,,,,,,5.011510417,5.9674,space,1.3305,0,47,47,13,1,14,image/14.jpg,0,0,,R_5gBJYH1TXEzkJ8L,2,2024-05-10_22h48.49.498,face trait task,2021.2.3,MacIntel,58.82352941,120347,,,,,,,
,,,,,,3.996640625,3.8459,space,0.7437,0,48,48,35,1,36,image/36.jpg,0,0,,R_5gBJYH1TXEzkJ8L,2,2024-05-10_22h48.49.498,face trait task,2021.2.3,MacIntel,58.82352941,120347,,,,,,,
,,,,,,5.035833333,4.87,space,1.2151,0,49,49,28,1,29,image/29.jpg,0,0,,R_5gBJYH1TXEzkJ8L,2,2024-05-10_22h48.49.498,face trait task,2021.2.3,MacIntel,58.82352941,120347,,,,,,,
,,,,,,5.97234375,3.0106,space,1.9393,0,50,50,20,1,21,image/21.jpg,0,0,,R_5gBJYH1TXEzkJ8L,2,2024-05-10_22h48.49.498,face trait task,2021.2.3,MacIntel,58.82352941,120347,,,,,,,
,,,,,,2.9925,4.7623,space,1.1142,0,51,51,36,1,37,image/37.jpg,0,0,,R_5gBJYH1TXEzkJ8L,2,2024-05-10_22h48.49.498,face trait task,2021.2.3,MacIntel,58.82352941,120347,,,,,,,
,,,,,,5.912317708,2.68,space,2.8343,0,52,52,18,1,19,image/19.jpg,0,0,,R_5gBJYH1TXEzkJ8L,2,2024-05-10_22h48.49.498,face trait task,2021.2.3,MacIntel,58.82352941,120347,,,,,,,
,,,,,,,,,,,,,,,,,,,,R_5gBJYH1TXEzkJ8L,2,2024-05-10_22h48.49.498,face trait task,2021.2.3,MacIntel,58.82352941,120347,0,2,2,1,1,1,competent.png
,,,,,trustworthy,6.013723958,5.0009,space,3.0084,0,0,0,41,1,42,image/42.jpg,0,0,,R_5gBJYH1TXEzkJ8L,2,2024-05-10_22h48.49.498,face trait task,2021.2.3,MacIntel,58.82352941,120347,,,,,,,
,,,,,,2.016744792,3.0738,space,2.5095,0,1,1,16,1,17,image/17.jpg,0,0,,R_5gBJYH1TXEzkJ8L,2,2024-05-10_22h48.49.498,face trait task,2021.2.3,MacIntel,58.82352941,120347,,,,,,,
,,,,,,6.992942708,3.5634,space,1.469,0,2,2,33,1,34,image/34.jpg,0,0,,R_5gBJYH1TXEzkJ8L,2,2024-05-10_22h48.49.498,face trait task,2021.2.3,MacIntel,58.82352941,120347,,,,,,,
,,,,,,4.993723958,3.3364,space,3.2383,0,3,3,1,1,2,image/2.jpg,0,0,,R_5gBJYH1TXEzkJ8L,2,2024-05-10_22h48.49.498,face trait task,2021.2.3,MacIntel,58.82352941,120347,,,,,,,
,,,,,,4.988177083,2.8565,space,2.5822,0,4,4,12,1,13,image/13.jpg,0,0,,R_5gBJYH1TXEzkJ8L,2,2024-05-10_22h48.49.498,face trait task,2021.2.3,MacIntel,58.82352941,120347,,,,,,,
,,,,,,2.974244792,3.7161,space,3.8217,0,5,5,40,1,41,image/41.jpg,0,0,,R_5gBJYH1TXEzkJ8L,2,2024-05-10_22h48.49.498,face trait task,2021.2.3,MacIntel,58.82352941,120347,,,,,,,
,,,,,,2.993854167,3.7448,space,2.3506,0,6,6,32,1,33,image/33.jpg,0,0,,R_5gBJYH1TXEzkJ8L,2,2024-05-10_22h48.49.498,face trait task,2021.2.3,MacIntel,58.82352941,120347,,,,,,,
,,,,,,5.991875,3.2085,space,3.3572,0,7,7,18,1,19,image/19.jpg,0,0,,R_5gBJYH1TXEzkJ8L,2,2024-05-10_22h48.49.498,face trait task,2021.2.3,MacIntel,58.82352941,120347,,,,,,,
,,,,,,1.997552083,2.8448,space,2.705,0,8,8,48,1,49,image/49.jpg,0,0,,R_5gBJYH1TXEzkJ8L,2,2024-05-10_22h48.49.498,face trait task,2021.2.3,MacIntel,58.82352941,120347,,,,,,,
,,,,,,6.997578125,3.9645,space,1.5107,0,9,9,7,1,8,image/8.jpg,0,0,,R_5gBJYH1TXEzkJ8L,2,2024-05-10_22h48.49.498,face trait task,2021.2.3,MacIntel,58.82352941,120347,,,,,,,
,,,,,,6.997473958,2.2979,space,0.3341,0,10,10,52,1,56,image/fill_img.png,1,7,Please move the slider all the way to the RIGHT to show that you are paying attention.,R_5gBJYH1TXEzkJ8L,2,2024-05-10_22h48.49.498,face trait task,2021.2.3,MacIntel,58.82352941,120347,,,,,,,
,,,,,,3.997838542,4.2472,space,1.6737,0,11,11,22,1,23,image/23.jpg,0,0,,R_5gBJYH1TXEzkJ8L,2,2024-05-10_22h48.49.498,face trait task,2021.2.3,MacIntel,58.82352941,120347,,,,,,,
,,,,,,5.988229167,6.0141,space,3.5442,0,12,12,35,1,36,image/36.jpg,0,0,,R_5gBJYH1TXEzkJ8L,2,2024-05-10_22h48.49.498,face trait task,2021.2.3,MacIntel,58.82352941,120347,,,,,,,
,,,,,,4.993072917,3.3443,space,2.5222,0,13,13,38,1,39,image/39.jpg,0,0,,R_5gBJYH1TXEzkJ8L,2,2024-05-10_22h48.49.498,face trait task,2021.2.3,MacIntel,58.82352941,120347,,,,,,,
,,,,,,5.0059375,3.2084,space,3.6645,0,14,14,44,1,45,image/45.jpg,0,0,,R_5gBJYH1TXEzkJ8L,2,2024-05-10_22h48.49.498,face trait task,2021.2.3,MacIntel,58.82352941,120347,,,,,,,
,,,,,,3.993619792,3.6512,space,1.8411,0,15,15,47,1,48,image/48.jpg,0,0,,R_5gBJYH1TXEzkJ8L,2,2024-05-10_22h48.49.498,face trait task,2021.2.3,MacIntel,58.82352941,120347,,,,,,,
,,,,,,2.981484375,4.0504,space,1.0164,0,16,16,23,1,24,image/24.jpg,0,0,,R_5gBJYH1TXEzkJ8L,2,2024-05-10_22h48.49.498,face trait task,2021.2.3,MacIntel,58.82352941,120347,,,,,,,
,,,,,,1.9921875,3.5924,space,1.4481,0,17,17,49,1,50,image/50.jpg,0,0,,R_5gBJYH1TXEzkJ8L,2,2024-05-10_22h48.49.498,face trait task,2021.2.3,MacIntel,58.82352941,120347,,,,,,,
,,,,,,6.004140625,2.7152,space,2.7682,0,18,18,43,1,44,image/44.jpg,0,0,,R_5gBJYH1TXEzkJ8L,2,2024-05-10_22h48.49.498,face trait task,2021.2.3,MacIntel,58.82352941,120347,,,,,,,
,,,,,,6.982786458,2.3682,space,0.3971,0,19,19,51,1,56,image/fill_img.png,1,7,Please move the slider all the way to the RIGHT to show that you are paying attention.,R_5gBJYH1TXEzkJ8L,2,2024-05-10_22h48.49.498,face trait task,2021.2.3,MacIntel,58.82352941,120347,,,,,,,
,,,,,,4.019010417,6.8066,space,3.8523,0,20,20,13,1,14,image/14.jpg,0,0,,R_5gBJYH1TXEzkJ8L,2,2024-05-10_22h48.49.498,face trait task,2021.2.3,MacIntel,58.82352941,120347,,,,,,,
,,,,,,6.006875,3.0595,space,2.7044,0,21,21,17,1,18,image/18.jpg,0,0,,R_5gBJYH1TXEzkJ8L,2,2024-05-10_22h48.49.498,face trait task,2021.2.3,MacIntel,58.82352941,120347,,,,,,,
,,,,,,4.996354167,2.7202,space,1.3709,0,22,22,26,1,27,image/27.jpg,0,0,,R_5gBJYH1TXEzkJ8L,2,2024-05-10_22h48.49.498,face trait task,2021.2.3,MacIntel,58.82352941,120347,,,,,,,
,,,,,,6.992838542,3.6299,space,1.6521,0,23,23,29,1,30,image/30.jpg,0,0,,R_5gBJYH1TXEzkJ8L,2,2024-05-10_22h48.49.498,face trait task,2021.2.3,MacIntel,58.82352941,120347,,,,,,,
,,,,,,2.995026042,4.317,space,1.7184,0,24,24,27,1,28,image/28.jpg,0,0,,R_5gBJYH1TXEzkJ8L,2,2024-05-10_22h48.49.498,face trait task,2021.2.3,MacIntel,58.82352941,120347,,,,,,,
,,,,,,4.981744792,5.1744,space,1.0871,0,25,25,39,1,40,image/40.jpg,0,0,,R_5gBJYH1TXEzkJ8L,2,2024-05-10_22h48.49.498,face trait task,2021.2.3,MacIntel,58.82352941,120347,,,,,,,
,,,,,,3.998307292,3.0445,space,1.0857,0,26,26,24,1,25,image/25.jpg,0,0,,R_5gBJYH1TXEzkJ8L,2,2024-05-10_22h48.49.498,face trait task,2021.2.3,MacIntel,58.82352941,120347,,,,,,,
,,,,,,3.001666667,3.4532,space,2.4318,0,27,27,15,1,16,image/16.jpg,0,0,,R_5gBJYH1TXEzkJ8L,2,2024-05-10_22h48.49.498,face trait task,2021.2.3,MacIntel,58.82352941,120347,,,,,,,
,,,,,,6.99078125,2.2296,space,0.9131,0,28,28,50,1,56,image/fill_img.png,1,7,Please move the slider all the way to the RIGHT to show that you are paying attention.,R_5gBJYH1TXEzkJ8L,2,2024-05-10_22h48.49.498,face trait task,2021.2.3,MacIntel,58.82352941,120347,,,,,,,
,,,,,,6.001354167,3.7646,space,1.7001,0,29,29,20,1,21,image/21.jpg,0,0,,R_5gBJYH1TXEzkJ8L,2,2024-05-10_22h48.49.498,face trait task,2021.2.3,MacIntel,58.82352941,120347,,,,,,,
,,,,,,5.02296875,2.3153,space,1.9205,0,30,30,0,1,1,image/1.jpg,0,0,,R_5gBJYH1TXEzkJ8L,2,2024-05-10_22h48.49.498,face trait task,2021.2.3,MacIntel,58.82352941,120347,,,,,,,
,,,,,,4.994635417,3.9966,space,2.1196,0,31,31,42,1,43,image/43.jpg,0,0,,R_5gBJYH1TXEzkJ8L,2,2024-05-10_22h48.49.498,face trait task,2021.2.3,MacIntel,58.82352941,120347,,,,,,,
,,,,,,3.987317708,3.5644,space,1.6834,0,32,32,37,1,38,image/38.jpg,0,0,,R_5gBJYH1TXEzkJ8L,2,2024-05-10_22h48.49.498,face trait task,2021.2.3,MacIntel,58.82352941,120347,,,,,,,
,,,,,,2.995130208,3.7814,space,1.7513,0,33,33,36,1,37,image/37.jpg,0,0,,R_5gBJYH1TXEzkJ8L,2,2024-05-10_22h48.49.498,face trait task,2021.2.3,MacIntel,58.82352941,120347,,,,,,,
,,,,,,4.99484375,4.4001,space,1.5371,0,34,34,3,1,4,image/4.jpg,0,0,,R_5gBJYH1TXEzkJ8L,2,2024-05-10_22h48.49.498,face trait task,2021.2.3,MacIntel,58.82352941,120347,,,,,,,
,,,,,,5.00328125,2.3322,space,2.3966,0,35,35,25,1,26,image/26.jpg,0,0,,R_5gBJYH1TXEzkJ8L,2,2024-05-10_22h48.49.498,face trait task,2021.2.3,MacIntel,58.82352941,120347,,,,,,,
,,,,,,5.998203125,2.3505,space,2.231,0,36,36,2,1,3,image/3.jpg,0,0,,R_5gBJYH1TXEzkJ8L,2,2024-05-10_22h48.49.498,face trait task,2021.2.3,MacIntel,58.82352941,120347,,,,,,,
,,,,,,6.002005208,2.7905,space,2.6838,0,37,37,5,1,6,image/6.jpg,0,0,,R_5gBJYH1TXEzkJ8L,2,2024-05-10_22h48.49.498,face trait task,2021.2.3,MacIntel,58.82352941,120347,,,,,,,
,,,,,,6.001848958,4.7361,space,2.158,0,38,38,31,1,32,image/32.jpg,0,0,,R_5gBJYH1TXEzkJ8L,2,2024-05-10_22h48.49.498,face trait task,2021.2.3,MacIntel,58.82352941,120347,,,,,,,
,,,,,,5.997135417,4.162,space,2.2984,0,39,39,8,1,9,image/9.jpg,0,0,,R_5gBJYH1TXEzkJ8L,2,2024-05-10_22h48.49.498,face trait task,2021.2.3,MacIntel,58.82352941,120347,,,,,,,
,,,,,,4.99,4.5359,space,2.6303,0,40,40,4,1,5,image/5.jpg,0,0,,R_5gBJYH1TXEzkJ8L,2,2024-05-10_22h48.49.498,face trait task,2021.2.3,MacIntel,58.82352941,120347,,,,,,,
,,,,,,4.017708333,3.1168,space,2.9826,0,41,41,30,1,31,image/31.jpg,0,0,,R_5gBJYH1TXEzkJ8L,2,2024-05-10_22h48.49.498,face trait task,2021.2.3,MacIntel,58.82352941,120347,,,,,,,
,,,,,,4.994296875,4.2538,space,3.0608,0,42,42,14,1,15,image/15.jpg,0,0,,R_5gBJYH1TXEzkJ8L,2,2024-05-10_22h48.49.498,face trait task,2021.2.3,MacIntel,58.82352941,120347,,,,,,,
,,,,,,3.996119792,3.1304,space,1.1844,0,43,43,46,1,47,image/47.jpg,0,0,,R_5gBJYH1TXEzkJ8L,2,2024-05-10_22h48.49.498,face trait task,2021.2.3,MacIntel,58.82352941,120347,,,,,,,
,,,,,,3.96625,3.382,space,1.9248,0,44,44,11,1,12,image/12.jpg,0,0,,R_5gBJYH1TXEzkJ8L,2,2024-05-10_22h48.49.498,face trait task,2021.2.3,MacIntel,58.82352941,120347,,,,,,,
,,,,,,5.008776042,1.8974,space,2.3972,0,45,45,10,1,11,image/11.jpg,0,0,,R_5gBJYH1TXEzkJ8L,2,2024-05-10_22h48.49.498,face trait task,2021.2.3,MacIntel,58.82352941,120347,,,,,,,
,,,,,,4.990208333,2.6677,space,1.923,0,46,46,28,1,29,image/29.jpg,0,0,,R_5gBJYH1TXEzkJ8L,2,2024-05-10_22h48.49.498,face trait task,2021.2.3,MacIntel,58.82352941,120347,,,,,,,
,,,,,,5.999270833,1.9792,space,2.568,0,47,47,9,1,10,image/10.jpg,0,0,,R_5gBJYH1TXEzkJ8L,2,2024-05-10_22h48.49.498,face trait task,2021.2.3,MacIntel,58.82352941,120347,,,,,,,
,,,,,,1.94796875,2.0864,space,1.6014,0,48,48,34,1,35,image/35.jpg,0,0,,R_5gBJYH1TXEzkJ8L,2,2024-05-10_22h48.49.498,face trait task,2021.2.3,MacIntel,58.82352941,120347,,,,,,,
,,,,,,5.994869792,3.1469,space,2.2184,0,49,49,21,1,22,image/22.jpg,0,0,,R_5gBJYH1TXEzkJ8L,2,2024-05-10_22h48.49.498,face trait task,2021.2.3,MacIntel,58.82352941,120347,,,,,,,
,,,,,,6.003541667,3.8876,space,2.0601,0,50,50,45,1,46,image/46.jpg,0,0,,R_5gBJYH1TXEzkJ8L,2,2024-05-10_22h48.49.498,face trait task,2021.2.3,MacIntel,58.82352941,120347,,,,,,,
,,,,,,5.002552083,3.4825,space,2.6676,0,51,51,19,1,20,image/20.jpg,0,0,,R_5gBJYH1TXEzkJ8L,2,2024-05-10_22h48.49.498,face trait task,2021.2.3,MacIntel,58.82352941,120347,,,,,,,
,,,,,,5.99375,2.5532,space,2.5196,0,52,52,6,1,7,image/7.jpg,0,0,,R_5gBJYH1TXEzkJ8L,2,2024-05-10_22h48.49.498,face trait task,2021.2.3,MacIntel,58.82352941,120347,,,,,,,
,,,,,,,,,,,,,,,,,,,,R_5gBJYH1TXEzkJ8L,2,2024-05-10_22h48.49.498,face trait task,2021.2.3,MacIntel,58.82352941,120347,0,3,3,2,1,2,trustworthy.png
