chooserow,ParID,pre_instru_resp_2.keys,pre_instru_resp_2.rt,pre_instru_resp_3.keys,pre_instru_resp_3.rt,pre_instru_resp_9.keys,pre_instru_resp_9.rt,pre_instru_resp_8.keys,pre_instru_resp_8.rt,pre_instru_resp_4.keys,pre_instru_resp_4.rt,pre_instru_resp_5.keys,pre_instru_resp_5.rt,pre_instru_resp_6.keys,pre_instru_resp_6.rt,key_resp_3.keys,key_resp_3.rt,key_resp_4.keys,key_resp_4.rt,key_resp_5.keys,key_resp_5.rt,key_resp_6.keys,key_resp_6.rt,key_resp_7.keys,key_resp_7.rt,trials_2.thisRepN,trials_2.thisTrialN,trials_2.thisN,trials_2.thisIndex,trials_2.ran,participant,session,date,expName,psychopyVersion,OS,frameRate,SONAid,pre_instru_resp.keys,pre_instru_resp.rt,clicked,judge_2.x,judge_2.y,judge_2.leftButton,judge_2.midButton,judge_2.rightButton,judge_2.clicked_name,trials.thisRepN,trials.thisTrialN,trials.thisN,trials.thisIndex,trials.ran,prac_answer,prac_dot_sti,dotlefttext,dotrighttext,prac_acc,judge.x,judge.y,judge.leftButton,judge.midButton,judge.rightButton,judge.clicked_name,clicked_guilt,slider_guilt.response,slider_guilt.rt,key_guilt.keys,share_slider.response,share_slider.rt,key_share.keys,slider_apology.response,slider_apology.rt,key_apology.keys,slider_hide.response,slider_hide.rt,slider_forgiveness.response,slider_forgiveness.rt,key_forgiveness.keys,key_forgiveness.rt,slider_mad.response,slider_mad.rt,trialseq.thisRepN,trialseq.thisTrialN,trialseq.thisN,trialseq.thisIndex,trialseq.ran,type_trial,stipic,DV,picture,answer,number,key_apology.rt,key_share.rt,key_guilt.rt
"[137,86,170,110,135,70,167,99,105,122,109,195,163,31,18,182,71,92,56,84,187,50,55,121,72,151,37,68,198,152,184,126,9,174,102,153,159,80,136,73,169,111]",R_5jfA4GJL7XpO7KM,space,1.6676,space,83.7954,space,18.7839,space,23.2472,space,46.1395,space,33.3794,space,5.6278,3,8.0718,2,8.32,3,13.9058,1,7.9011,3,5.0033,0,0,0,0,1,R_5jfA4GJL7XpO7KM,1,2024-05-31_19h33.20.303,interaction task,2021.2.3,MacIntel,60.0024001,120594,,,,,,,,,,,,,,,,,,,,,,,,,,,,,,,,,,,,,,,,,,,,,,,,,,,,,,,,,
,,,,space,1.1659,space,17.1661,space,11.1668,space,24.626,space,0.0023,space,0.9702,3,2.9697,1,5.6379,3,3.434,2,7.2498,2,5.035,1,0,1,0,1,R_5jfA4GJL7XpO7KM,1,2024-05-31_19h33.20.303,interaction task,2021.2.3,MacIntel,60.0024001,120594,,,,,,,,,,,,,,,,,,,,,,,,,,,,,,,,,,,,,,,,,,,,,,,,,,,,,,,,,
,,,,,,,,,,,,,,,,,,,,,,,,,,,,,,,R_5jfA4GJL7XpO7KM,1,2024-05-31_19h33.20.303,interaction task,2021.2.3,MacIntel,60.0024001,120594,space,4.0728,"[""LeftButton_2""]",-0.36242947,-0.256762153,1,0,0,LeftButton_2,0,0,0,0,1,LeftButton_2,9dot1.png,Smaller,Greater,,,,,,,,,,,,,,,,,,,,,,,,,,,,,,,,,,,,,,,
,,,,,,,,,,,,,,,,,,,,,,,,,,,,,,,R_5jfA4GJL7XpO7KM,1,2024-05-31_19h33.20.303,interaction task,2021.2.3,MacIntel,60.0024001,120594,,,"[""RightButton_2""]",0.2859375,-0.263654514,1,0,0,RightButton_2,0,1,1,1,1,RightButton_2,9dot2.png,Greater,Smaller,,,,,,,,,,,,,,,,,,,,,,,,,,,,,,,,,,,,,,,
,,,,,,,,,,,,,,,,,,,,,,,,,,,,,,,R_5jfA4GJL7XpO7KM,1,2024-05-31_19h33.20.303,interaction task,2021.2.3,MacIntel,60.0024001,120594,,,"[""LeftButton_2""]",-0.252967665,-0.348151042,1,0,0,LeftButton_2,0,2,2,2,1,RightButton_2,11dot1.png,Smaller,Greater,,,,,,,,,,,,,,,,,,,,,,,,,,,,,,,,,,,,,,,
,,,,,,,,,,,,,,,,,,,,,,,,,,,,,,,R_5jfA4GJL7XpO7KM,1,2024-05-31_19h33.20.303,interaction task,2021.2.3,MacIntel,60.0024001,120594,,,,,,,,,,,,,,,,,Greater,Smaller,0.4,0.259255642,-0.502717014,1,0,0,RightButton,"[""RightButton""]",,,,,,,,,,,,100,11.007,space,3.4664,0.444111251,20.4587,0,0,0,0,1,2,only_sub_right.png,3,RandomDot23.png,No answer,20,,,
,,,,,,,,,,,,,,,,,,,,,,,,,,,,,,,R_5jfA4GJL7XpO7KM,1,2024-05-31_19h33.20.303,interaction task,2021.2.3,MacIntel,60.0024001,120594,,,,,,,,,,,,,,,,,Greater,Smaller,,0.317312283,-0.536805556,1,0,0,RightButton,"[""RightButton""]",,,,,,,,,,,,45.93372966,3.2159,space,0.97,11.99078458,5.7651,0,1,1,1,1,1,both_wrong.png,3,RandomDot13.png,No answer,21,,,
,,,,,,,,,,,,,,,,,,,,,,,,,,,,,,,R_5jfA4GJL7XpO7KM,1,2024-05-31_19h33.20.303,interaction task,2021.2.3,MacIntel,60.0024001,120594,,,,,,,,,,,,,,,,,Greater,Smaller,,0.300379774,-0.465078125,1,0,0,RightButton,"[""RightButton""]",,,,,,,48,3.4041,space,20,4.7251,,,,,,,0,2,2,2,1,3,only_sub_wrong.png,2,RandomDot39.png,No answer,20,0.5854,,
,,,,,,,,,,,,,,,,,,,,,,,,,,,,,,,R_5jfA4GJL7XpO7KM,1,2024-05-31_19h33.20.303,interaction task,2021.2.3,MacIntel,60.0024001,120594,,,,,,,,,,,,,,,,,Greater,Smaller,,0.347781033,-0.510685764,1,0,0,RightButton,"[""RightButton""]",,,,3.050320095,10.7741,space,,,,,,,,,,,,0,3,3,3,1,2,only_sub_right.png,1,RandomDot6.png,No answer,21,,0.915,
,,,,,,,,,,,,,,,,,,,,,,,,,,,,,,,R_5jfA4GJL7XpO7KM,1,2024-05-31_19h33.20.303,interaction task,2021.2.3,MacIntel,60.0024001,120594,,,,,,,,,,,,,,,,,Greater,Smaller,,0.306429036,-0.519375,1,0,0,RightButton,"[""RightButton""]",,,,,,,,,,,,69.4611041,2.6864,space,0.1841,29.45821058,3.4864,0,4,4,4,1,2,only_sub_right.png,3,RandomDot26.png,No answer,20,,,
,,,,,,,,,,,,,,,,,,,,,,,,,,,,,,,R_5jfA4GJL7XpO7KM,1,2024-05-31_19h33.20.303,interaction task,2021.2.3,MacIntel,60.0024001,120594,,,,,,,,,,,,,,,,,Smaller,Greater,,0.303721788,-0.505078125,1,0,0,RightButton,"[""RightButton""]",,,,4.93109809,6.5715,space,,,,,,,,,,,,0,5,5,5,1,1,both_wrong.png,1,RandomDot29.png,No answer,19,,0.749,
,,,,,,,,,,,,,,,,,,,,,,,,,,,,,,,R_5jfA4GJL7XpO7KM,1,2024-05-31_19h33.20.303,interaction task,2021.2.3,MacIntel,60.0024001,120594,,,,,,,,,,,,,,,,,Smaller,Greater,,-0.248193359,-0.502109375,1,0,0,LeftButton,"[""LeftButton""]",,,,2.012261285,2.7588,space,,,,,,,,,,,,0,6,6,6,1,3,only_sub_wrong.png,1,RandomDot22.png,No answer,20,,0.3645,
,,,,,,,,,,,,,,,,,,,,,,,,,,,,,,,R_5jfA4GJL7XpO7KM,1,2024-05-31_19h33.20.303,interaction task,2021.2.3,MacIntel,60.0024001,120594,,,,,,,,,,,,,,,,,Greater,Smaller,,-0.261083984,-0.504583333,1,0,0,LeftButton,"[""LeftButton""]",80,4.963,space,,,,,,,,,,,,,,,0,7,7,7,1,2,only_sub_right.png,0,RandomDot21.png,No answer,19,,,0.7528
,,,,,,,,,,,,,,,,,,,,,,,,,,,,,,,R_5jfA4GJL7XpO7KM,1,2024-05-31_19h33.20.303,interaction task,2021.2.3,MacIntel,60.0024001,120594,,,,,,,,,,,,,,,,,Smaller,Greater,,-0.298540582,-0.489739583,1,0,0,LeftButton,"[""LeftButton""]",82,3.5064,space,,,,,,,,,,,,,,,0,8,8,8,1,2,only_sub_right.png,0,RandomDot17.png,No answer,20,,,0.6991
,,,,,,,,,,,,,,,,,,,,,,,,,,,,,,,R_5jfA4GJL7XpO7KM,1,2024-05-31_19h33.20.303,interaction task,2021.2.3,MacIntel,60.0024001,120594,,,,,,,,,,,,,,,,,Greater,Smaller,,-0.258371311,-0.517265625,1,0,0,LeftButton,"[""LeftButton""]",,,,,,,0,5.0045,space,90,9.2381,,,,,,,0,9,9,9,1,2,only_sub_right.png,2,RandomDot33.png,No answer,20,0.5683,,
,,,,,,,,,,,,,,,,,,,,,,,,,,,,,,,R_5jfA4GJL7XpO7KM,1,2024-05-31_19h33.20.303,interaction task,2021.2.3,MacIntel,60.0024001,120594,,,,,,,,,,,,,,,,,Greater,Smaller,,0.261691623,-0.504479167,1,0,0,RightButton,"[""RightButton""]",,,,4.015218099,6.1407,space,,,,,,,,,,,,0,10,10,10,1,2,only_sub_right.png,1,RandomDot3.png,No answer,19,,0.6149,
,,,,,,,,,,,,,,,,,,,,,,,,,,,,,,,R_5jfA4GJL7XpO7KM,1,2024-05-31_19h33.20.303,interaction task,2021.2.3,MacIntel,60.0024001,120594,,,,,,,,,,,,,,,,,Smaller,Greater,,0.294037543,-0.514097222,1,0,0,RightButton,"[""RightButton""]",,,,,,,,,,,,,,,,,,0,11,11,11,1,4,both_right.png,10,RandomDot41.png,RightButton,5,,,
,,,,,,,,,,,,,,,,,,,,,,,,,,,,,,,R_5jfA4GJL7XpO7KM,1,2024-05-31_19h33.20.303,interaction task,2021.2.3,MacIntel,60.0024001,120594,,,,,,,,,,,,,,,,,Smaller,Greater,,-0.277701823,-0.472222222,1,0,0,LeftButton,"[""LeftButton""]",,,,1.996229384,1.7079,space,,,,,,,,,,,,0,12,12,12,1,3,only_sub_wrong.png,1,RandomDot6.png,No answer,20,,0.3828,
,,,,,,,,,,,,,,,,,,,,,,,,,,,,,,,R_5jfA4GJL7XpO7KM,1,2024-05-31_19h33.20.303,interaction task,2021.2.3,MacIntel,60.0024001,120594,,,,,,,,,,,,,,,,,Smaller,Greater,,-0.25116645,-0.492760417,1,0,0,LeftButton,"[""LeftButton""]",,,,,,,,,,,,,,,,,,0,13,13,13,1,0,both_right.png,2,RandomDot2.png,No answer,20,,,
,,,,,,,,,,,,,,,,,,,,,,,,,,,,,,,R_5jfA4GJL7XpO7KM,1,2024-05-31_19h33.20.303,interaction task,2021.2.3,MacIntel,60.0024001,120594,,,,,,,,,,,,,,,,,Smaller,Greater,,-0.267469618,-0.484765625,1,0,0,LeftButton,"[""LeftButton""]",,,,,,,,,,,,,,,,,,0,14,14,14,1,0,both_right.png,1,RandomDot5.png,No answer,19,,,
,,,,,,,,,,,,,,,,,,,,,,,,,,,,,,,R_5jfA4GJL7XpO7KM,1,2024-05-31_19h33.20.303,interaction task,2021.2.3,MacIntel,60.0024001,120594,,,,,,,,,,,,,,,,,Greater,Smaller,,0.393999566,-0.495486111,1,0,0,RightButton,"[""RightButton""]",,,,,,,,,,,,69.6013959,3.9378,space,0.4341,30.17611006,6.1034,0,15,15,15,1,3,only_sub_wrong.png,3,RandomDot8.png,No answer,21,,,
,,,,,,,,,,,,,,,,,,,,,,,,,,,,,,,R_5jfA4GJL7XpO7KM,1,2024-05-31_19h33.20.303,interaction task,2021.2.3,MacIntel,60.0024001,120594,,,,,,,,,,,,,,,,,Smaller,Greater,,-0.24851888,-0.507855903,1,0,0,LeftButton,"[""LeftButton""]",,,,1.980360243,3.6203,space,,,,,,,,,,,,0,16,16,16,1,1,both_wrong.png,1,RandomDot14.png,No answer,20,,0.3979,
,,,,,,,,,,,,,,,,,,,,,,,,,,,,,,,R_5jfA4GJL7XpO7KM,1,2024-05-31_19h33.20.303,interaction task,2021.2.3,MacIntel,60.0024001,120594,,,,,,,,,,,,,,,,,Smaller,Greater,,-0.261512587,-0.529331597,1,0,0,LeftButton,"[""LeftButton""]",,,,,,,,,,,,61.07702459,3.0662,space,0.4742,29.42423366,4.1334,0,17,17,17,1,1,both_wrong.png,3,RandomDot7.png,No answer,21,,,
,,,,,,,,,,,,,,,,,,,,,,,,,,,,,,,R_5jfA4GJL7XpO7KM,1,2024-05-31_19h33.20.303,interaction task,2021.2.3,MacIntel,60.0024001,120594,,,,,,,,,,,,,,,,,Smaller,Greater,,-0.296701389,-0.532734375,1,0,0,LeftButton,"[""LeftButton""]",90,3.1761,space,,,,,,,,,,,,,,,0,18,18,18,1,1,both_wrong.png,0,RandomDot39.png,No answer,21,,,0.6852
,,,,,,,,,,,,,,,,,,,,,,,,,,,,,,,R_5jfA4GJL7XpO7KM,1,2024-05-31_19h33.20.303,interaction task,2021.2.3,MacIntel,60.0024001,120594,,,,,,,,,,,,,,,,,Greater,Smaller,,-0.310915799,-0.4909375,1,0,0,LeftButton,"[""LeftButton""]",,,,,,,,,,,,60.51859743,4.4793,space,0.4012,29.71303749,5.6556,0,19,19,19,1,1,both_wrong.png,3,RandomDot6.png,No answer,20,,,
,,,,,,,,,,,,,,,,,,,,,,,,,,,,,,,R_5jfA4GJL7XpO7KM,1,2024-05-31_19h33.20.303,interaction task,2021.2.3,MacIntel,60.0024001,120594,,,,,,,,,,,,,,,,,Smaller,Greater,,-0.26569553,-0.461423611,1,0,0,LeftButton,"[""LeftButton""]",,,,,,,,,,,,72.0186895,1.7395,space,0.653,29.36943217,2.7009,0,20,20,20,1,3,only_sub_wrong.png,3,RandomDot18.png,No answer,21,,,
,,,,,,,,,,,,,,,,,,,,,,,,,,,,,,,R_5jfA4GJL7XpO7KM,1,2024-05-31_19h33.20.303,interaction task,2021.2.3,MacIntel,60.0024001,120594,,,,,,,,,,,,,,,,,Greater,Smaller,,0.272797309,-0.482699653,1,0,0,RightButton,"[""RightButton""]",71,2.4406,space,,,,,,,,,,,,,,,0,21,21,21,1,1,both_wrong.png,0,RandomDot12.png,No answer,21,,,0.8534
,,,,,,,,,,,,,,,,,,,,,,,,,,,,,,,R_5jfA4GJL7XpO7KM,1,2024-05-31_19h33.20.303,interaction task,2021.2.3,MacIntel,60.0024001,120594,,,,,,,,,,,,,,,,,Smaller,Greater,,-0.285400391,-0.539609375,1,0,0,LeftButton,"[""LeftButton""]",81,3.677,space,,,,,,,,,,,,,,,0,22,22,22,1,1,both_wrong.png,0,RandomDot28.png,No answer,19,,,1.8379
,,,,,,,,,,,,,,,,,,,,,,,,,,,,,,,R_5jfA4GJL7XpO7KM,1,2024-05-31_19h33.20.303,interaction task,2021.2.3,MacIntel,60.0024001,120594,,,,,,,,,,,,,,,,,Greater,Smaller,,-0.246739366,-0.505815972,1,0,0,LeftButton,"[""LeftButton""]",,,,,,,69,1.455,space,30,2.5394,,,,,,,0,23,23,23,1,2,only_sub_right.png,2,RandomDot18.png,No answer,19,0.6846,,
,,,,,,,,,,,,,,,,,,,,,,,,,,,,,,,R_5jfA4GJL7XpO7KM,1,2024-05-31_19h33.20.303,interaction task,2021.2.3,MacIntel,60.0024001,120594,,,,,,,,,,,,,,,,,Greater,Smaller,,-0.222412109,-0.482873264,1,0,0,LeftButton,"[""LeftButton""]",,,,,,,67,3.1363,space,39,4.4276,,,,,,,0,24,24,24,1,1,both_wrong.png,2,RandomDot1.png,No answer,21,0.5992,,
,,,,,,,,,,,,,,,,,,,,,,,,,,,,,,,R_5jfA4GJL7XpO7KM,1,2024-05-31_19h33.20.303,interaction task,2021.2.3,MacIntel,60.0024001,120594,,,,,,,,,,,,,,,,,Smaller,Greater,,0.226052517,-0.456831597,1,0,0,RightButton,"[""RightButton""]",65,1.5812,space,,,,,,,,,,,,,,,0,25,25,25,1,3,only_sub_wrong.png,0,RandomDot26.png,No answer,19,,,1.6356
,,,,,,,,,,,,,,,,,,,,,,,,,,,,,,,R_5jfA4GJL7XpO7KM,1,2024-05-31_19h33.20.303,interaction task,2021.2.3,MacIntel,60.0024001,120594,,,,,,,,,,,,,,,,,Greater,Smaller,,0.30866428,-0.527065972,1,0,0,RightButton,"[""RightButton""]",,,,,,,,,,,,,,,,,,0,26,26,26,1,0,both_right.png,3,RandomDot27.png,No answer,20,,,
,,,,,,,,,,,,,,,,,,,,,,,,,,,,,,,R_5jfA4GJL7XpO7KM,1,2024-05-31_19h33.20.303,interaction task,2021.2.3,MacIntel,60.0024001,120594,,,,,,,,,,,,,,,,,Smaller,Greater,,-0.253168403,-0.483871528,1,0,0,LeftButton,"[""LeftButton""]",,,,2.037299262,1.4387,space,,,,,,,,,,,,0,27,27,27,1,1,both_wrong.png,1,RandomDot8.png,No answer,21,,0.2839,
,,,,,,,,,,,,,,,,,,,,,,,,,,,,,,,R_5jfA4GJL7XpO7KM,1,2024-05-31_19h33.20.303,interaction task,2021.2.3,MacIntel,60.0024001,120594,,,,,,,,,,,,,,,,,Greater,Smaller,,0.226502821,-0.530451389,1,0,0,RightButton,"[""RightButton""]",,,,,,,,,,,,,,,,,,0,28,28,28,1,5,both_right.png,10,RandomDot42.png,RightButton,20,,,
,,,,,,,,,,,,,,,,,,,,,,,,,,,,,,,R_5jfA4GJL7XpO7KM,1,2024-05-31_19h33.20.303,interaction task,2021.2.3,MacIntel,60.0024001,120594,,,,,,,,,,,,,,,,,Smaller,Greater,,-0.329378255,-0.504453125,1,0,0,LeftButton,"[""LeftButton""]",79,2.3758,space,,,,,,,,,,,,,,,0,29,29,29,1,3,only_sub_wrong.png,0,RandomDot9.png,No answer,19,,,1.2511
,,,,,,,,,,,,,,,,,,,,,,,,,,,,,,,R_5jfA4GJL7XpO7KM,1,2024-05-31_19h33.20.303,interaction task,2021.2.3,MacIntel,60.0024001,120594,,,,,,,,,,,,,,,,,Greater,Smaller,,0.369807943,-0.485512153,1,0,0,RightButton,"[""RightButton""]",,,,,,,,,,,,67.21643519,3.0203,space,0.3343,29.98430485,4.35,0,30,30,30,1,3,only_sub_wrong.png,3,RandomDot20.png,No answer,20,,,
,,,,,,,,,,,,,,,,,,,,,,,,,,,,,,,R_5jfA4GJL7XpO7KM,1,2024-05-31_19h33.20.303,interaction task,2021.2.3,MacIntel,60.0024001,120594,,,,,,,,,,,,,,,,,Smaller,Greater,,-0.306445313,-0.484192708,1,0,0,LeftButton,"[""LeftButton""]",,,,,,,75,2.7732,space,32,3.6859,,,,,,,0,31,31,31,1,2,only_sub_right.png,2,RandomDot34.png,No answer,20,0.4175,,
,,,,,,,,,,,,,,,,,,,,,,,,,,,,,,,R_5jfA4GJL7XpO7KM,1,2024-05-31_19h33.20.303,interaction task,2021.2.3,MacIntel,60.0024001,120594,,,,,,,,,,,,,,,,,Smaller,Greater,,-0.251264106,-0.498454861,1,0,0,LeftButton,"[""LeftButton""]",,,,,,,,,,,,,,,,,,0,32,32,32,1,0,both_right.png,0,RandomDot5.png,No answer,21,,,
,,,,,,,,,,,,,,,,,,,,,,,,,,,,,,,R_5jfA4GJL7XpO7KM,1,2024-05-31_19h33.20.303,interaction task,2021.2.3,MacIntel,60.0024001,120594,,,,,,,,,,,,,,,,,Smaller,Greater,,-0.271126302,-0.503550347,1,0,0,LeftButton,"[""LeftButton""]",,,,,,,74,1.5374,space,37,2.7873,,,,,,,0,33,33,33,1,3,only_sub_wrong.png,2,RandomDot15.png,No answer,21,1.0361,,
,,,,,,,,,,,,,,,,,,,,,,,,,,,,,,,R_5jfA4GJL7XpO7KM,1,2024-05-31_19h33.20.303,interaction task,2021.2.3,MacIntel,60.0024001,120594,,,,,,,,,,,,,,,,,Smaller,Greater,,-0.356293403,-0.491875,1,0,0,LeftButton,"[""LeftButton""]",55,2.479,space,,,,,,,,,,,,,,,0,34,34,34,1,2,only_sub_right.png,0,RandomDot16.png,No answer,21,,,0.4287
,,,,,,,,,,,,,,,,,,,,,,,,,,,,,,,R_5jfA4GJL7XpO7KM,1,2024-05-31_19h33.20.303,interaction task,2021.2.3,MacIntel,60.0024001,120594,,,,,,,,,,,,,,,,,Smaller,Greater,,-0.253781467,-0.465564236,1,0,0,LeftButton,"[""LeftButton""]",61,1.6883,space,,,,,,,,,,,,,,,0,35,35,35,1,3,only_sub_wrong.png,0,RandomDot25.png,No answer,20,,,0.3886
,,,,,,,,,,,,,,,,,,,,,,,,,,,,,,,R_5jfA4GJL7XpO7KM,1,2024-05-31_19h33.20.303,interaction task,2021.2.3,MacIntel,60.0024001,120594,,,,,,,,,,,,,,,,,Greater,Smaller,,0.330230035,-0.477934028,1,0,0,RightButton,"[""RightButton""]",,,,1.932047526,2.4606,space,,,,,,,,,,,,0,36,36,36,1,3,only_sub_wrong.png,1,RandomDot11.png,No answer,20,,0.3174,
,,,,,,,,,,,,,,,,,,,,,,,,,,,,,,,R_5jfA4GJL7XpO7KM,1,2024-05-31_19h33.20.303,interaction task,2021.2.3,MacIntel,60.0024001,120594,,,,,,,,,,,,,,,,,Smaller,Greater,,-0.290538194,-0.495711806,1,0,0,LeftButton,"[""LeftButton""]",,,,,,,72,2.0575,space,30,3.2698,,,,,,,0,37,37,37,1,1,both_wrong.png,2,RandomDot8.png,No answer,20,0.9848,,
,,,,,,,,,,,,,,,,,,,,,,,,,,,,,,,R_5jfA4GJL7XpO7KM,1,2024-05-31_19h33.20.303,interaction task,2021.2.3,MacIntel,60.0024001,120594,,,,,,,,,,,,,,,,,Greater,Smaller,,0.260080295,-0.510425347,1,0,0,RightButton,"[""RightButton""]",,,,,,,,,,,,79.45963542,1.5498,space,0.702,30.76248597,2.5197,0,38,38,38,1,2,only_sub_right.png,3,RandomDot10.png,No answer,19,,,
,,,,,,,,,,,,,,,,,,,,,,,,,,,,,,,R_5jfA4GJL7XpO7KM,1,2024-05-31_19h33.20.303,interaction task,2021.2.3,MacIntel,60.0024001,120594,,,,,,,,,,,,,,,,,Greater,Smaller,,0.249397786,-0.504748264,1,0,0,RightButton,"[""RightButton""]",,,,,,,81,1.6232,space,30,2.6268,,,,,,,0,39,39,39,1,1,both_wrong.png,2,RandomDot24.png,No answer,19,0.4993,,
,,,,,,,,,,,,,,,,,,,,,,,,,,,,,,,R_5jfA4GJL7XpO7KM,1,2024-05-31_19h33.20.303,interaction task,2021.2.3,MacIntel,60.0024001,120594,,,,,,,,,,,,,,,,,Greater,Smaller,,0.274332682,-0.495234375,1,0,0,RightButton,"[""RightButton""]",,,,,,,78,2.1399,space,31,4.1044,,,,,,,0,40,40,40,1,3,only_sub_wrong.png,2,RandomDot1.png,No answer,20,0.7504,,
,,,,,,,,,,,,,,,,,,,,,,,,,,,,,,,R_5jfA4GJL7XpO7KM,1,2024-05-31_19h33.20.303,interaction task,2021.2.3,MacIntel,60.0024001,120594,,,,,,,,,,,,,,,,,Greater,Smaller,,0.293196615,-0.491223958,1,0,0,RightButton,"[""RightButton""]",,,,1.985243056,2.2053,space,,,,,,,,,,,,0,41,41,41,1,2,only_sub_right.png,1,RandomDot4.png,No answer,19,,0.4049,
