chooserow,ParID,pre_instru_resp_2.keys,pre_instru_resp_2.rt,pre_instru_resp_3.keys,pre_instru_resp_3.rt,pre_instru_resp_9.keys,pre_instru_resp_9.rt,pre_instru_resp_8.keys,pre_instru_resp_8.rt,pre_instru_resp_4.keys,pre_instru_resp_4.rt,pre_instru_resp_5.keys,pre_instru_resp_5.rt,pre_instru_resp_6.keys,pre_instru_resp_6.rt,key_resp_3.keys,key_resp_3.rt,key_resp_4.keys,key_resp_4.rt,key_resp_5.keys,key_resp_5.rt,key_resp_6.keys,key_resp_6.rt,key_resp_7.keys,key_resp_7.rt,trials_2.thisRepN,trials_2.thisTrialN,trials_2.thisN,trials_2.thisIndex,trials_2.ran,participant,session,date,expName,psychopyVersion,OS,frameRate,SONAid,pre_instru_resp.keys,pre_instru_resp.rt,clicked,judge_2.x,judge_2.y,judge_2.leftButton,judge_2.midButton,judge_2.rightButton,judge_2.clicked_name,trials.thisRepN,trials.thisTrialN,trials.thisN,trials.thisIndex,trials.ran,prac_answer,prac_dot_sti,dotlefttext,dotrighttext,prac_acc,judge.x,judge.y,judge.leftButton,judge.midButton,judge.rightButton,judge.clicked_name,clicked_guilt,slider_guilt.response,slider_guilt.rt,key_guilt.keys,share_slider.response,share_slider.rt,key_share.keys,key_share.rt,slider_apology.response,slider_apology.rt,key_apology.keys,slider_hide.response,slider_hide.rt,slider_forgiveness.response,slider_forgiveness.rt,key_forgiveness.keys,slider_mad.response,slider_mad.rt,trialseq.thisRepN,trialseq.thisTrialN,trialseq.thisN,trialseq.thisIndex,trialseq.ran,type_trial,stipic,DV,picture,answer,number,key_forgiveness.rt,incompleteTrials,key_apology.rt,key_guilt.rt,trials_redo.thisRepN,trials_redo.thisTrialN,trials_redo.thisN,trials_redo.thisIndex,trials_redo.ran
"[115,137,17,184,122,175,119,111,172,126,151,54,68,35,85,62,82,107,138,191,83,48,87,43,160,147,155,88,201,186,133,102,170,161,157,50,0,71,195,128,80,104]",R_5LgU1eXqKtcFTuL,space,2.1768,space,3.563,space,9.8561,space,20.1371,space,39.6038,space,17.1836,space,15.7905,1,20.1788,1,26.0777,3,9.4908,1,8.8855,3,5.063,0,0,0,0,1,R_5LgU1eXqKtcFTuL,1,2024-04-17_02h27.19.964,interaction task,2021.2.3,MacIntel,30.03003003,120216,,,,,,,,,,,,,,,,,,,,,,,,,,,,,,,,,,,,,,,,,,,,,,,,,,,,,,,,,,,,,,,
,,,,space,3.2199,space,9.896,space,9.35,space,34.795,space,0.1787,space,3.1847,3,3.485,3,8.5866,3,6.9165,3,9.8352,3,5.592,1,0,1,0,1,R_5LgU1eXqKtcFTuL,1,2024-04-17_02h27.19.964,interaction task,2021.2.3,MacIntel,30.03003003,120216,,,,,,,,,,,,,,,,,,,,,,,,,,,,,,,,,,,,,,,,,,,,,,,,,,,,,,,,,,,,,,,
,,,,space,1.0432,space,1.857,space,3.4009,space,14.5969,space,4.5987,space,1,3,2.7155,1,5.5831,3,13.1322,2,9.6164,3,5.5985,2,0,2,0,1,R_5LgU1eXqKtcFTuL,1,2024-04-17_02h27.19.964,interaction task,2021.2.3,MacIntel,30.03003003,120216,,,,,,,,,,,,,,,,,,,,,,,,,,,,,,,,,,,,,,,,,,,,,,,,,,,,,,,,,,,,,,,
,,,,space,0.481,space,0.987,space,0.4571,space,8.5418,space,2.4539,space,0.4563,3,2.2496,1,5.7472,3,2.0886,2,3.4815,2,4.8963,3,0,3,0,1,R_5LgU1eXqKtcFTuL,1,2024-04-17_02h27.19.964,interaction task,2021.2.3,MacIntel,30.03003003,120216,,,,,,,,,,,,,,,,,,,,,,,,,,,,,,,,,,,,,,,,,,,,,,,,,,,,,,,,,,,,,,,
,,,,,,,,,,,,,,,,,,,,,,,,,,,,,,,R_5LgU1eXqKtcFTuL,1,2024-04-17_02h27.19.964,interaction task,2021.2.3,MacIntel,30.03003003,120216,space,3.0069,"[""LeftButton_2""]",-0.284885204,-0.319344429,1,0,0,LeftButton_2,0,0,0,0,1,LeftButton_2,11dot1.png,Greater,Smaller,,,,,,,,,,,,,,,,,,,,,,,,,,,,,,,,,,,,,,,,,,,,,
,,,,,,,,,,,,,,,,,,,,,,,,,,,,,,,R_5LgU1eXqKtcFTuL,1,2024-04-17_02h27.19.964,interaction task,2021.2.3,MacIntel,30.03003003,120216,,,"[""RightButton_2""]",0.202582908,-0.29517663,1,0,0,RightButton_2,0,1,1,2,1,RightButton_2,9dot2.png,Greater,Smaller,,,,,,,,,,,,,,,,,,,,,,,,,,,,,,,,,,,,,,,,,,,,,
,,,,,,,,,,,,,,,,,,,,,,,,,,,,,,,R_5LgU1eXqKtcFTuL,1,2024-04-17_02h27.19.964,interaction task,2021.2.3,MacIntel,30.03003003,120216,,,"[""LeftButton_2""]",-0.203651148,-0.331929348,1,0,0,LeftButton_2,0,2,2,1,1,RightButton_2,11dot1.png,Smaller,Greater,,,,,,,,,,,,,,,,,,,,,,,,,,,,,,,,,,,,,,,,,,,,,
,,,,,,,,,,,,,,,,,,,,,,,,,,,,,,,R_5LgU1eXqKtcFTuL,1,2024-04-17_02h27.19.964,interaction task,2021.2.3,MacIntel,30.03003003,120216,,,,,,,,,,,,,,,,,Smaller,Greater,0.4,-0.252083333,-0.527912704,1,0,0,LeftButton,"[""LeftButton""]",,,,1.979352679,11.6077,space,3.2677,,,,,,,,,,,0,0,0,0,1,2,only_sub_right.png,1,RandomDot14.png,No answer,20,,,,,,,,,
,,,,,,,,,,,,,,,,,,,,,,,,,,,,,,,R_5LgU1eXqKtcFTuL,1,2024-04-17_02h27.19.964,interaction task,2021.2.3,MacIntel,30.03003003,120216,,,,,,,,,,,,,,,,,Greater,Smaller,,-0.256999362,-0.530324389,1,0,0,LeftButton,"[""LeftButton""]",,,,,,,,,,,,,70.00715059,6.4154,space,29.47104978,12.69,0,1,1,1,1,2,only_sub_right.png,3,RandomDot23.png,No answer,20,1.0169,,,,,,,,
,,,,,,,,,,,,,,,,,,,,,,,,,,,,,,,R_5LgU1eXqKtcFTuL,1,2024-04-17_02h27.19.964,interaction task,2021.2.3,MacIntel,30.03003003,120216,,,,,,,,,,,,,,,,,Greater,Smaller,,-0.254607781,-0.540896739,1,0,0,LeftButton,"[""LeftButton""]",,,,,,,,,,,,,,,,,,0,2,2,2,1,0,both_right.png,1,RandomDot7.png,No answer,21,,,,,,,,,
,,,,,,,,,,,,,,,,,,,,,,,,,,,,,,,R_5LgU1eXqKtcFTuL,1,2024-04-17_02h27.19.964,interaction task,2021.2.3,MacIntel,30.03003003,120216,,,,,,,,,,,,,,,,,Greater,Smaller,,-0.240013818,-0.524031929,1,0,0,LeftButton,"[""LeftButton""]",,,,,,,,,,,,,79.64809661,8.5449,space,41.41875816,16.7839,0,3,3,3,1,3,only_sub_wrong.png,3,RandomDot20.png,No answer,20,0.9965,,,,,,,,
,,,,,,,,,,,,,,,,,,,,,,,,,,,,,,,R_5LgU1eXqKtcFTuL,1,2024-04-17_02h27.19.964,interaction task,2021.2.3,MacIntel,30.03003003,120216,,,,,,,,,,,,,,,,,Greater,Smaller,,-0.23565051,-0.514622962,0,0,0,,[],,,,,,,,,,,,,,,,,,0,4,4,4,1,2,only_sub_right.png,2,RandomDot33.png,No answer,20,,122,,,,,,,
,,,,,,,,,,,,,,,,,,,,,,,,,,,,,,,R_5LgU1eXqKtcFTuL,1,2024-04-17_02h27.19.964,interaction task,2021.2.3,MacIntel,30.03003003,120216,,,,,,,,,,,,,,,,,Smaller,Greater,,0.259220876,-0.459969429,1,0,0,RightButton,"[""RightButton""]",,,,,,,,60,5.803,space,70,10.2182,,,,,,0,5,5,5,1,3,only_sub_wrong.png,2,RandomDot17.png,No answer,19,,,1.2221,,,,,,
,,,,,,,,,,,,,,,,,,,,,,,,,,,,,,,R_5LgU1eXqKtcFTuL,1,2024-04-17_02h27.19.964,interaction task,2021.2.3,MacIntel,30.03003003,120216,,,,,,,,,,,,,,,,,Smaller,Greater,,0.261825043,-0.493308424,1,0,0,RightButton,"[""RightButton""]",,,,4.566857993,10.4156,space,2.8994,,,,,,,,,,,0,6,6,6,1,2,only_sub_right.png,1,RandomDot38.png,No answer,19,,,,,,,,,
,,,,,,,,,,,,,,,,,,,,,,,,,,,,,,,R_5LgU1eXqKtcFTuL,1,2024-04-17_02h27.19.964,interaction task,2021.2.3,MacIntel,30.03003003,120216,,,,,,,,,,,,,,,,,Greater,Smaller,,0.222890094,-0.485113791,1,0,0,RightButton,"[""RightButton""]",,,,4.975419855,5.285,space,0.6756,,,,,,,,,,,0,7,7,7,1,2,only_sub_right.png,1,RandomDot4.png,No answer,19,,,,,,,,,
,,,,,,,,,,,,,,,,,,,,,,,,,,,,,,,R_5LgU1eXqKtcFTuL,1,2024-04-17_02h27.19.964,interaction task,2021.2.3,MacIntel,30.03003003,120216,,,,,,,,,,,,,,,,,Greater,Smaller,,0.279405825,-0.46070822,1,0,0,RightButton,"[""RightButton""]",,,,,,,,70,5.434,space,84,10.7972,,,,,,0,8,8,8,1,3,only_sub_wrong.png,2,RandomDot38.png,No answer,21,,,0.7357,,,,,,
,,,,,,,,,,,,,,,,,,,,,,,,,,,,,,,R_5LgU1eXqKtcFTuL,1,2024-04-17_02h27.19.964,interaction task,2021.2.3,MacIntel,30.03003003,120216,,,,,,,,,,,,,,,,,Smaller,Greater,,0.244446216,-0.506453804,1,0,0,RightButton,"[""RightButton""]",,,,,,,,75,5.7549,space,90,9.3439,,,,,,0,9,9,9,1,2,only_sub_right.png,2,RandomDot34.png,No answer,20,,,0.6973,,,,,,
,,,,,,,,,,,,,,,,,,,,,,,,,,,,,,,R_5LgU1eXqKtcFTuL,1,2024-04-17_02h27.19.964,interaction task,2021.2.3,MacIntel,30.03003003,120216,,,,,,,,,,,,,,,,,Smaller,Greater,,-0.342990009,-0.522834579,1,0,0,LeftButton,"[""LeftButton""]",64,3.4525,space,,,,,,,,,,,,,,,0,10,10,10,1,3,only_sub_wrong.png,0,RandomDot26.png,No answer,19,,,,0.6679,,,,,
,,,,,,,,,,,,,,,,,,,,,,,,,,,,,,,R_5LgU1eXqKtcFTuL,1,2024-04-17_02h27.19.964,interaction task,2021.2.3,MacIntel,30.03003003,120216,,,,,,,,,,,,,,,,,Smaller,Greater,,0.245455995,-0.48570822,1,0,0,RightButton,"[""RightButton""]",80,2.9017,space,,,,,,,,,,,,,,,0,11,11,11,1,1,both_wrong.png,0,RandomDot23.png,No answer,20,,,,1.9514,,,,,
,,,,,,,,,,,,,,,,,,,,,,,,,,,,,,,R_5LgU1eXqKtcFTuL,1,2024-04-17_02h27.19.964,interaction task,2021.2.3,MacIntel,30.03003003,120216,,,,,,,,,,,,,,,,,Smaller,Greater,,0.306669855,-0.495193614,1,0,0,RightButton,"[""RightButton""]",,,,4.997714711,4.8157,space,0.6072,,,,,,,,,,,0,12,12,12,1,1,both_wrong.png,1,RandomDot8.png,No answer,21,,,,,,,,,
,,,,,,,,,,,,,,,,,,,,,,,,,,,,,,,R_5LgU1eXqKtcFTuL,1,2024-04-17_02h27.19.964,interaction task,2021.2.3,MacIntel,30.03003003,120216,,,,,,,,,,,,,,,,,Smaller,Greater,,0.3267804,-0.508245584,1,0,0,RightButton,"[""RightButton""]",,,,,,,,,,,,,,,,,,0,13,13,13,1,0,both_right.png,2,RandomDot25.png,No answer,19,,,,,,,,,
,,,,,,,,,,,,,,,,,,,,,,,,,,,,,,,R_5LgU1eXqKtcFTuL,1,2024-04-17_02h27.19.964,interaction task,2021.2.3,MacIntel,30.03003003,120216,,,,,,,,,,,,,,,,,Greater,Smaller,,-0.349856505,-0.502122962,1,0,0,LeftButton,"[""LeftButton""]",,,,,,,,,,,,,60.20193431,4.6608,space,39.50602968,8.197,0,14,14,14,1,1,both_wrong.png,3,RandomDot40.png,No answer,21,0.5685,,,,,,,,
,,,,,,,,,,,,,,,,,,,,,,,,,,,,,,,R_5LgU1eXqKtcFTuL,1,2024-04-17_02h27.19.964,interaction task,2021.2.3,MacIntel,30.03003003,120216,,,,,,,,,,,,,,,,,Greater,Smaller,,0.251025723,-0.474796196,1,0,0,RightButton,"[""RightButton""]",,,,4.47563244,4.0505,space,1.5368,,,,,,,,,,,0,15,15,15,1,1,both_wrong.png,1,RandomDot28.png,No answer,21,,,,,,,,,
,,,,,,,,,,,,,,,,,,,,,,,,,,,,,,,R_5LgU1eXqKtcFTuL,1,2024-04-17_02h27.19.964,interaction task,2021.2.3,MacIntel,30.03003003,120216,,,,,,,,,,,,,,,,,Smaller,Greater,,0.263658588,-0.49876019,1,0,0,RightButton,"[""RightButton""]",,,,,,,,90,3.8499,space,89,7.0794,,,,,,0,16,16,16,1,1,both_wrong.png,2,RandomDot7.png,No answer,21,,,1.068,,,,,,
,,,,,,,,,,,,,,,,,,,,,,,,,,,,,,,R_5LgU1eXqKtcFTuL,1,2024-04-17_02h27.19.964,interaction task,2021.2.3,MacIntel,30.03003003,120216,,,,,,,,,,,,,,,,,Smaller,Greater,,0.246768707,-0.489622962,1,0,0,RightButton,"[""RightButton""]",39,6.4641,space,,,,,,,,,,,,,,,0,17,17,17,1,2,only_sub_right.png,0,RandomDot37.png,No answer,21,,,,0.8224,,,,,
,,,,,,,,,,,,,,,,,,,,,,,,,,,,,,,R_5LgU1eXqKtcFTuL,1,2024-04-17_02h27.19.964,interaction task,2021.2.3,MacIntel,30.03003003,120216,,,,,,,,,,,,,,,,,Smaller,Greater,,-0.228093112,-0.485071332,1,0,0,LeftButton,"[""LeftButton""]",,,,,,,,,,,,,88.99539614,5.55,space,28.67922421,8.7332,0,18,18,18,1,2,only_sub_right.png,3,RandomDot25.png,No answer,21,0.7245,,,,,,,,
,,,,,,,,,,,,,,,,,,,,,,,,,,,,,,,R_5LgU1eXqKtcFTuL,1,2024-04-17_02h27.19.964,interaction task,2021.2.3,MacIntel,30.03003003,120216,,,,,,,,,,,,,,,,,Smaller,Greater,,-0.250419855,-0.519276495,1,0,0,LeftButton,"[""LeftButton""]",,,,,,,,,,,,,32.34738971,6.2947,space,38.40552635,8.7978,0,19,19,19,1,3,only_sub_wrong.png,3,RandomDot36.png,No answer,21,0.4942,,,,,,,,
,,,,,,,,,,,,,,,,,,,,,,,,,,,,,,,R_5LgU1eXqKtcFTuL,1,2024-04-17_02h27.19.964,interaction task,2021.2.3,MacIntel,30.03003003,120216,,,,,,,,,,,,,,,,,Smaller,Greater,,-0.266996173,-0.502938179,1,0,0,LeftButton,"[""LeftButton""]",,,,,,,,59,5.4887,space,73,8.7071,,,,,,0,20,20,20,1,1,both_wrong.png,2,RandomDot8.png,No answer,20,,,0.4287,,,,,,
,,,,,,,,,,,,,,,,,,,,,,,,,,,,,,,R_5LgU1eXqKtcFTuL,1,2024-04-17_02h27.19.964,interaction task,2021.2.3,MacIntel,30.03003003,120216,,,,,,,,,,,,,,,,,Greater,Smaller,,-0.224053997,-0.487134851,1,0,0,LeftButton,"[""LeftButton""]",15,4.0178,space,,,,,,,,,,,,,,,0,21,21,21,1,1,both_wrong.png,0,RandomDot24.png,No answer,21,,,,0.5383,,,,,
,,,,,,,,,,,,,,,,,,,,,,,,,,,,,,,R_5LgU1eXqKtcFTuL,1,2024-04-17_02h27.19.964,interaction task,2021.2.3,MacIntel,30.03003003,120216,,,,,,,,,,,,,,,,,Greater,Smaller,,-0.235055272,-0.517229959,1,0,0,LeftButton,"[""LeftButton""]",,,,,,,,,,,,,89.53222703,3.7231,space,21.44381743,8.2518,0,22,22,22,1,1,both_wrong.png,3,RandomDot17.png,No answer,21,1.3354,,,,,,,,
,,,,,,,,,,,,,,,,,,,,,,,,,,,,,,,R_5LgU1eXqKtcFTuL,1,2024-04-17_02h27.19.964,interaction task,2021.2.3,MacIntel,30.03003003,120216,,,,,,,,,,,,,,,,,Smaller,Greater,,0.227875213,-0.532277514,1,0,0,RightButton,"[""RightButton""]",,,,,,,,,,,,,,,,,,0,23,23,23,1,0,both_right.png,3,RandomDot3.png,No answer,21,,,,,,,,,
,,,,,,,,,,,,,,,,,,,,,,,,,,,,,,,R_5LgU1eXqKtcFTuL,1,2024-04-17_02h27.19.964,interaction task,2021.2.3,MacIntel,30.03003003,120216,,,,,,,,,,,,,,,,,Greater,Smaller,,-0.311601828,-0.499159307,0,0,0,,[],,,,,,,,,,,,,,,,,,0,24,24,24,1,3,only_sub_wrong.png,1,RandomDot22.png,No answer,19,,160,,,,,,,
,,,,,,,,,,,,,,,,,,,,,,,,,,,,,,,R_5LgU1eXqKtcFTuL,1,2024-04-17_02h27.19.964,interaction task,2021.2.3,MacIntel,30.03003003,120216,,,,,,,,,,,,,,,,,Greater,Smaller,,0.225510204,-0.490692935,1,0,0,RightButton,"[""RightButton""]",33,4.7942,space,,,,,,,,,,,,,,,0,25,25,25,1,3,only_sub_wrong.png,0,RandomDot5.png,No answer,20,,,,0.5163,,,,,
,,,,,,,,,,,,,,,,,,,,,,,,,,,,,,,R_5LgU1eXqKtcFTuL,1,2024-04-17_02h27.19.964,interaction task,2021.2.3,MacIntel,30.03003003,120216,,,,,,,,,,,,,,,,,Smaller,Greater,,0.305474065,-0.539631454,1,0,0,RightButton,"[""RightButton""]",44,4.3551,space,,,,,,,,,,,,,,,0,26,26,26,1,3,only_sub_wrong.png,0,RandomDot2.png,No answer,20,,,,1.3413,,,,,
,,,,,,,,,,,,,,,,,,,,,,,,,,,,,,,R_5LgU1eXqKtcFTuL,1,2024-04-17_02h27.19.964,interaction task,2021.2.3,MacIntel,30.03003003,120216,,,,,,,,,,,,,,,,,Greater,Smaller,,-0.317447917,-0.515752378,1,0,0,LeftButton,"[""LeftButton""]",,,,,,,,,,,,,29.61438363,1.8044,space,36.05205971,5.1808,0,27,27,27,1,1,both_wrong.png,3,RandomDot30.png,No answer,20,1.2213,,,,,,,,
,,,,,,,,,,,,,,,,,,,,,,,,,,,,,,,R_5LgU1eXqKtcFTuL,1,2024-04-17_02h27.19.964,interaction task,2021.2.3,MacIntel,30.03003003,120216,,,,,,,,,,,,,,,,,Smaller,Greater,,-0.26306335,-0.468053668,1,0,0,LeftButton,"[""LeftButton""]",,,,,,,,,,,,,,,,,,0,28,28,28,1,5,both_right.png,10,RandomDot42.png,LeftButton,19,,,,,,,,,
,,,,,,,,,,,,,,,,,,,,,,,,,,,,,,,R_5LgU1eXqKtcFTuL,1,2024-04-17_02h27.19.964,interaction task,2021.2.3,MacIntel,30.03003003,120216,,,,,,,,,,,,,,,,,Smaller,Greater,,-0.256372236,-0.497019361,1,0,0,LeftButton,"[""LeftButton""]",,,,,,,,,,,,,86.51631107,5.0157,space,16.04598279,8.9572,0,29,29,29,1,3,only_sub_wrong.png,3,RandomDot9.png,No answer,19,0.7831,,,,,,,,
,,,,,,,,,,,,,,,,,,,,,,,,,,,,,,,R_5LgU1eXqKtcFTuL,1,2024-04-17_02h27.19.964,interaction task,2021.2.3,MacIntel,30.03003003,120216,,,,,,,,,,,,,,,,,Greater,Smaller,,0.249845876,-0.517552649,1,0,0,RightButton,"[""RightButton""]",,,,,,,,,,,,,93.23421288,5.7572,space,3.208208789,7.6217,0,30,30,30,1,2,only_sub_right.png,3,RandomDot36.png,No answer,20,1.0632,,,,,,,,
,,,,,,,,,,,,,,,,,,,,,,,,,,,,,,,R_5LgU1eXqKtcFTuL,1,2024-04-17_02h27.19.964,interaction task,2021.2.3,MacIntel,30.03003003,120216,,,,,,,,,,,,,,,,,Smaller,Greater,,-0.2359375,-0.506521739,1,0,0,LeftButton,"[""LeftButton""]",6,2.7604,space,,,,,,,,,,,,,,,0,31,31,31,1,2,only_sub_right.png,0,RandomDot16.png,No answer,21,,,,0.8511,,,,,
,,,,,,,,,,,,,,,,,,,,,,,,,,,,,,,R_5LgU1eXqKtcFTuL,1,2024-04-17_02h27.19.964,interaction task,2021.2.3,MacIntel,30.03003003,120216,,,,,,,,,,,,,,,,,Greater,Smaller,,0.272879464,-0.495278533,1,0,0,RightButton,"[""RightButton""]",,,,,,,,68,4.4024,space,89,7.8765,,,,,,0,32,32,32,1,3,only_sub_wrong.png,2,RandomDot39.png,No answer,20,,,0.9448,,,,,,
,,,,,,,,,,,,,,,,,,,,,,,,,,,,,,,R_5LgU1eXqKtcFTuL,1,2024-04-17_02h27.19.964,interaction task,2021.2.3,MacIntel,30.03003003,120216,,,,,,,,,,,,,,,,,Greater,Smaller,,-0.246200043,-0.48138587,1,0,0,LeftButton,"[""LeftButton""]",,,,3.510894983,3.7251,space,1.1038,,,,,,,,,,,0,33,33,33,1,3,only_sub_wrong.png,1,RandomDot36.png,No answer,19,,,,,,,,,
,,,,,,,,,,,,,,,,,,,,,,,,,,,,,,,R_5LgU1eXqKtcFTuL,1,2024-04-17_02h27.19.964,interaction task,2021.2.3,MacIntel,30.03003003,120216,,,,,,,,,,,,,,,,,Greater,Smaller,,0.29801233,-0.458636209,1,0,0,RightButton,"[""RightButton""]",,,,3.96875,3.1839,space,0.8195,,,,,,,,,,,0,34,34,34,1,3,only_sub_wrong.png,1,RandomDot8.png,No answer,21,,,,,,,,,
,,,,,,,,,,,,,,,,,,,,,,,,,,,,,,,R_5LgU1eXqKtcFTuL,1,2024-04-17_02h27.19.964,interaction task,2021.2.3,MacIntel,30.03003003,120216,,,,,,,,,,,,,,,,,Greater,Smaller,,0.286378614,-0.511557405,1,0,0,RightButton,"[""RightButton""]",26,3.3879,space,,,,,,,,,,,,,,,0,35,35,35,1,1,both_wrong.png,0,RandomDot12.png,No answer,21,,,,0.4957,,,,,
,,,,,,,,,,,,,,,,,,,,,,,,,,,,,,,R_5LgU1eXqKtcFTuL,1,2024-04-17_02h27.19.964,interaction task,2021.2.3,MacIntel,30.03003003,120216,,,,,,,,,,,,,,,,,Greater,Smaller,,0.269217687,-0.489775815,1,0,0,RightButton,"[""RightButton""]",,,,,,,,,,,,,,,,,,0,36,36,36,1,0,both_right.png,0,RandomDot34.png,No answer,19,,,,,,,,,
,,,,,,,,,,,,,,,,,,,,,,,,,,,,,,,R_5LgU1eXqKtcFTuL,1,2024-04-17_02h27.19.964,interaction task,2021.2.3,MacIntel,30.03003003,120216,,,,,,,,,,,,,,,,,Smaller,Greater,,0.2421875,-0.507710598,1,0,0,RightButton,"[""RightButton""]",,,,4.219068878,3.0154,space,0.52,,,,,,,,,,,0,37,37,37,1,1,both_wrong.png,1,RandomDot14.png,No answer,20,,,,,,,,,
,,,,,,,,,,,,,,,,,,,,,,,,,,,,,,,R_5LgU1eXqKtcFTuL,1,2024-04-17_02h27.19.964,interaction task,2021.2.3,MacIntel,30.03003003,120216,,,,,,,,,,,,,,,,,Smaller,Greater,,0.286931335,-0.488536005,1,0,0,RightButton,"[""RightButton""]",,,,,,,,,,,,,,,,,,0,38,38,38,1,4,both_right.png,10,RandomDot41.png,RightButton,5,,,,,,,,,
,,,,,,,,,,,,,,,,,,,,,,,,,,,,,,,R_5LgU1eXqKtcFTuL,1,2024-04-17_02h27.19.964,interaction task,2021.2.3,MacIntel,30.03003003,120216,,,,,,,,,,,,,,,,,Smaller,Greater,,0.288068665,-0.50850034,1,0,0,RightButton,"[""RightButton""]",,,,,,,,6,4.0699,space,97,7.4542,,,,,,0,39,39,39,1,2,only_sub_right.png,2,RandomDot22.png,No answer,20,,,0.85,,,,,,
,,,,,,,,,,,,,,,,,,,,,,,,,,,,,,,R_5LgU1eXqKtcFTuL,1,2024-04-17_02h27.19.964,interaction task,2021.2.3,MacIntel,30.03003003,120216,,,,,,,,,,,,,,,,,Smaller,Greater,,0.244068878,-0.48639606,1,0,0,RightButton,"[""RightButton""]",,,,,,,,8,4.0936,space,98,6.5387,,,,,,0,40,40,40,1,1,both_wrong.png,2,RandomDot8.png,No answer,20,,,1.3884,,,,,,
,,,,,,,,,,,,,,,,,,,,,,,,,,,,,,,R_5LgU1eXqKtcFTuL,1,2024-04-17_02h27.19.964,interaction task,2021.2.3,MacIntel,30.03003003,120216,,,,,,,,,,,,,,,,,Smaller,Greater,,0.31470557,-0.527072011,1,0,0,RightButton,"[""RightButton""]",1,3.5726,space,,,,,,,,,,,,,,,0,41,41,41,1,2,only_sub_right.png,0,RandomDot29.png,No answer,20,,,,1.9507,,,,,
,,,,,,,,,,,,,,,,,,,,,,,,,,,,,,,R_5LgU1eXqKtcFTuL,1,2024-04-17_02h27.19.964,interaction task,2021.2.3,MacIntel,30.03003003,120216,,,,,,,,,,,,,,,,,Greater,Smaller,,-0.347475553,-0.528082541,1,0,0,LeftButton,"[""LeftButton""]",,,,,,,,2,2.2695,space,99,4.482,,,,,,,,,,,2,only_sub_right.png,2,RandomDot33.png,No answer,20,,,0.7512,,0,0,0,0,1
,,,,,,,,,,,,,,,,,,,,,,,,,,,,,,,R_5LgU1eXqKtcFTuL,1,2024-04-17_02h27.19.964,interaction task,2021.2.3,MacIntel,30.03003003,120216,,,,,,,,,,,,,,,,,Greater,Smaller,,-0.256738946,-0.509001359,1,0,0,LeftButton,"[""LeftButton""]",,,,2.734773597,5.4118,space,2.6815,,,,,,,,,,,,,,,,3,only_sub_wrong.png,1,RandomDot22.png,No answer,19,,,,,0,1,1,1,1
