chooserow,ParID,pre_instru_resp_2.keys,pre_instru_resp_2.rt,pre_instru_resp_3.keys,pre_instru_resp_3.rt,pre_instru_resp_9.keys,pre_instru_resp_9.rt,pre_instru_resp_8.keys,pre_instru_resp_8.rt,pre_instru_resp_4.keys,pre_instru_resp_4.rt,pre_instru_resp_5.keys,pre_instru_resp_5.rt,pre_instru_resp_6.keys,pre_instru_resp_6.rt,key_resp_3.keys,key_resp_3.rt,key_resp_4.keys,key_resp_4.rt,key_resp_5.keys,key_resp_5.rt,key_resp_6.keys,key_resp_6.rt,key_resp_7.keys,key_resp_7.rt,trials_2.thisRepN,trials_2.thisTrialN,trials_2.thisN,trials_2.thisIndex,trials_2.ran,participant,session,date,expName,psychopyVersion,OS,frameRate,SONAid,pre_instru_resp.keys,pre_instru_resp.rt,clicked,judge_2.x,judge_2.y,judge_2.leftButton,judge_2.midButton,judge_2.rightButton,trials.thisRepN,trials.thisTrialN,trials.thisN,trials.thisIndex,trials.ran,prac_answer,prac_dot_sti,dotlefttext,dotrighttext,judge_2.clicked_name,prac_acc,judge.x,judge.y,judge.leftButton,judge.midButton,judge.rightButton,judge.clicked_name,clicked_guilt,slider_guilt.response,slider_guilt.rt,key_guilt.keys,share_slider.response,share_slider.rt,key_share.keys,slider_apology.response,slider_apology.rt,key_apology.keys,key_apology.rt,slider_hide.response,slider_hide.rt,slider_forgiveness.response,slider_forgiveness.rt,key_forgiveness.keys,slider_mad.response,slider_mad.rt,trialseq.thisRepN,trialseq.thisTrialN,trialseq.thisN,trialseq.thisIndex,trialseq.ran,type_trial,stipic,DV,picture,answer,number,key_guilt.rt,key_forgiveness.rt,key_share.rt,incompleteTrials,trials_redo.thisRepN,trials_redo.thisTrialN,trials_redo.thisN,trials_redo.thisIndex,trials_redo.ran
"[177,152,124,89,45,178,90,181,71,60,191,76,160,75,197,109,170,125,104,198,122,167,156,149,108,133,119,51,74,54,105,132,92,147,98,69,138,187,53,22,11,30]",R_5lSB76siDkwnBL3,space,5.1671,space,2.8247,space,10.2296,space,18.9621,space,20.4366,space,16.3862,space,2.2649,1,13.4429,1,11.7321,1,8.2848,1,21.94,3,7.507,0,0,0,0,1,R_5lSB76siDkwnBL3,1,2024-05-13_09h36.43.608,interaction task,2021.2.3,Linux x86_64,60.24096386,120201,,,,,,,,,,,,,,,,,,,,,,,,,,,,,,,,,,,,,,,,,,,,,,,,,,,,,,,,,,,,,,,
,,,,space,0.9188,space,0.7178,space,2.2326,space,0.7277,space,2.1347,space,0.3994,3,2.2836,2,5.7874,2,7.8786,1,5.2183,3,4.9005,1,0,1,0,1,R_5lSB76siDkwnBL3,1,2024-05-13_09h36.43.608,interaction task,2021.2.3,Linux x86_64,60.24096386,120201,,,,,,,,,,,,,,,,,,,,,,,,,,,,,,,,,,,,,,,,,,,,,,,,,,,,,,,,,,,,,,,
,,,,space,0.834,space,0.5965,space,1.7865,space,8.6158,space,0.5833,space,0.4355,3,1.4551,3,6.447,3,5.5211,2,4.7653,3,4.3482,2,0,2,0,1,R_5lSB76siDkwnBL3,1,2024-05-13_09h36.43.608,interaction task,2021.2.3,Linux x86_64,60.24096386,120201,,,,,,,,,,,,,,,,,,,,,,,,,,,,,,,,,,,,,,,,,,,,,,,,,,,,,,,,,,,,,,,
,,,,space,0.5321,space,0.3673,space,0.2525,space,0.1664,space,0.551,space,0.4335,3,1.3004,3,2.1169,3,2.7816,1,4.1501,1,3.8392,3,0,3,0,1,R_5lSB76siDkwnBL3,1,2024-05-13_09h36.43.608,interaction task,2021.2.3,Linux x86_64,60.24096386,120201,,,,,,,,,,,,,,,,,,,,,,,,,,,,,,,,,,,,,,,,,,,,,,,,,,,,,,,,,,,,,,,
,,,,space,0.7813,space,0.2803,space,0.1996,space,0.1684,space,0.5727,space,0.4663,3,1.17,1,8.1455,3,11.8305,3,31.8849,2,5.0241,4,0,4,0,1,R_5lSB76siDkwnBL3,1,2024-05-13_09h36.43.608,interaction task,2021.2.3,Linux x86_64,60.24096386,120201,,,,,,,,,,,,,,,,,,,,,,,,,,,,,,,,,,,,,,,,,,,,,,,,,,,,,,,,,,,,,,,
,,,,space,0.9363,space,0.4008,space,0.1665,space,0.2422,space,6.9907,space,0.3721,3,1.2311,1,0.5701,3,0.4858,3,2.0703,2,2.8939,5,0,5,0,1,R_5lSB76siDkwnBL3,1,2024-05-13_09h36.43.608,interaction task,2021.2.3,Linux x86_64,60.24096386,120201,,,,,,,,,,,,,,,,,,,,,,,,,,,,,,,,,,,,,,,,,,,,,,,,,,,,,,,,,,,,,,,
,,,,space,1.2438,space,0.2171,space,0.1619,space,0.1249,space,0.7172,space,0.4176,3,1.0628,1,0.3288,3,0.2589,1,0.0505,2,0.2846,6,0,6,0,1,R_5lSB76siDkwnBL3,1,2024-05-13_09h36.43.608,interaction task,2021.2.3,Linux x86_64,60.24096386,120201,,,,,,,,,,,,,,,,,,,,,,,,,,,,,,,,,,,,,,,,,,,,,,,,,,,,,,,,,,,,,,,
,,,,space,0.4224,space,0.2038,space,0.1263,space,0.2103,space,0.8172,space,0.3573,3,1.4516,1,0.3003,3,0.3341,2,2.6497,2,0.6846,7,0,7,0,1,R_5lSB76siDkwnBL3,1,2024-05-13_09h36.43.608,interaction task,2021.2.3,Linux x86_64,60.24096386,120201,,,,,,,,,,,,,,,,,,,,,,,,,,,,,,,,,,,,,,,,,,,,,,,,,,,,,,,,,,,,,,,
,,,,,,,,,,,,,,,,,,,,,,,,,,,,,,,R_5lSB76siDkwnBL3,1,2024-05-13_09h36.43.608,interaction task,2021.2.3,Linux x86_64,60.24096386,120201,space,1.4527,[],0.529311385,-0.249673763,0,0,0,0,0,0,2,1,RightButton_2,11dot1.png,Smaller,Greater,,,,,,,,,,,,,,,,,,,,,,,,,,,,,,,,,,,,,,,,,,,,,,
,,,,,,,,,,,,,,,,,,,,,,,,,,,,,,,R_5lSB76siDkwnBL3,1,2024-05-13_09h36.43.608,interaction task,2021.2.3,Linux x86_64,60.24096386,120201,,,"[""LeftButton_2""]",-0.372596445,-0.287745258,1,0,0,0,1,1,0,1,LeftButton_2,11dot1.png,Greater,Smaller,LeftButton_2,,,,,,,,,,,,,,,,,,,,,,,,,,,,,,,,,,,,,,,,,,,,,
,,,,,,,,,,,,,,,,,,,,,,,,,,,,,,,R_5lSB76siDkwnBL3,1,2024-05-13_09h36.43.608,interaction task,2021.2.3,Linux x86_64,60.24096386,120201,,,"[""RightButton_2""]",0.29706607,-0.339803862,1,0,0,0,2,2,1,1,LeftButton_2,9dot1.png,Smaller,Greater,RightButton_2,,,,,,,,,,,,,,,,,,,,,,,,,,,,,,,,,,,,,,,,,,,,,
,,,,,,,,,,,,,,,,,,,,,,,,,,,,,,,R_5lSB76siDkwnBL3,1,2024-05-13_09h36.43.608,interaction task,2021.2.3,Linux x86_64,60.24096386,120201,,,,,,,,,,,,,,,,Smaller,Greater,,0.2,0.225900024,-0.501405184,1,0,0,RightButton,"[""RightButton""]",,,,,,,81,19.3532,space,1.211,63,25.6514,,,,,,0,0,0,0,1,3,only_sub_wrong.png,2,RandomDot31.png,No answer,19,,,,,,,,,
,,,,,,,,,,,,,,,,,,,,,,,,,,,,,,,R_5lSB76siDkwnBL3,1,2024-05-13_09h36.43.608,interaction task,2021.2.3,Linux x86_64,60.24096386,120201,,,,,,,,,,,,,,,,Smaller,Greater,,,0.231735663,-0.544843991,1,0,0,RightButton,"[""RightButton""]",77,3.8733,space,,,,,,,,,,,,,,,0,1,1,1,1,3,only_sub_wrong.png,0,RandomDot9.png,No answer,19,1.2854,,,,,,,,
,,,,,,,,,,,,,,,,,,,,,,,,,,,,,,,R_5lSB76siDkwnBL3,1,2024-05-13_09h36.43.608,interaction task,2021.2.3,Linux x86_64,60.24096386,120201,,,,,,,,,,,,,,,,Greater,Smaller,,,-0.307642185,-0.524861081,1,0,0,LeftButton,"[""LeftButton""]",,,,,,,65,4.1104,space,1.4865,75,5.9915,,,,,,0,2,2,2,1,2,only_sub_right.png,2,RandomDot20.png,No answer,20,,,,,,,,,
,,,,,,,,,,,,,,,,,,,,,,,,,,,,,,,R_5lSB76siDkwnBL3,1,2024-05-13_09h36.43.608,interaction task,2021.2.3,Linux x86_64,60.24096386,120201,,,,,,,,,,,,,,,,Greater,Smaller,,,0.32749178,-0.480501589,1,0,0,RightButton,"[""RightButton""]",,,,,,,,,,,,,45.76044559,1.8986,space,37.83190245,3.5768,0,3,3,3,1,1,both_wrong.png,3,RandomDot6.png,No answer,21,,1.0344,,,,,,,
,,,,,,,,,,,,,,,,,,,,,,,,,,,,,,,R_5lSB76siDkwnBL3,1,2024-05-13_09h36.43.608,interaction task,2021.2.3,Linux x86_64,60.24096386,120201,,,,,,,,,,,,,,,,Smaller,Greater,,,-0.289055955,-0.51212674,1,0,0,LeftButton,"[""LeftButton""]",,,,,,,,,,,,,,,,,,0,4,4,4,1,0,both_right.png,3,RandomDot13.png,No answer,20,,,,,,,,,
,,,,,,,,,,,,,,,,,,,,,,,,,,,,,,,R_5lSB76siDkwnBL3,1,2024-05-13_09h36.43.608,interaction task,2021.2.3,Linux x86_64,60.24096386,120201,,,,,,,,,,,,,,,,Smaller,Greater,,,-0.373707577,-0.483092574,1,0,0,LeftButton,"[""LeftButton""]",,,,,,,74,2.8668,space,1.0502,77,4.0459,,,,,,0,5,5,5,1,3,only_sub_wrong.png,2,RandomDot22.png,No answer,19,,,,,,,,,
,,,,,,,,,,,,,,,,,,,,,,,,,,,,,,,R_5lSB76siDkwnBL3,1,2024-05-13_09h36.43.608,interaction task,2021.2.3,Linux x86_64,60.24096386,120201,,,,,,,,,,,,,,,,Smaller,Greater,,,0.323512666,-0.541144057,1,0,0,RightButton,"[""RightButton""]",,,,,,,,,,,,,75.35664812,2.1205,space,60.149619,3.4312,0,6,6,6,1,1,both_wrong.png,3,RandomDot29.png,No answer,19,,3.6206,,,,,,,
,,,,,,,,,,,,,,,,,,,,,,,,,,,,,,,R_5lSB76siDkwnBL3,1,2024-05-13_09h36.43.608,interaction task,2021.2.3,Linux x86_64,60.24096386,120201,,,,,,,,,,,,,,,,Greater,Smaller,,,-0.213790302,-0.503113137,1,0,0,LeftButton,"[""LeftButton""]",,,,,,,,,,,,,37.58093307,3.2596,space,42.52733209,5.4597,0,7,7,7,1,3,only_sub_wrong.png,3,RandomDot3.png,No answer,19,,1.9667,,,,,,,
,,,,,,,,,,,,,,,,,,,,,,,,,,,,,,,R_5lSB76siDkwnBL3,1,2024-05-13_09h36.43.608,interaction task,2021.2.3,Linux x86_64,60.24096386,120201,,,,,,,,,,,,,,,,Smaller,Greater,,,-0.306933578,-0.497915349,1,0,0,LeftButton,"[""LeftButton""]",,,,1.264332404,12.4687,space,,,,,,,,,,,,0,8,8,8,1,1,both_wrong.png,1,RandomDot14.png,No answer,20,,,1.1382,,,,,,
,,,,,,,,,,,,,,,,,,,,,,,,,,,,,,,R_5lSB76siDkwnBL3,1,2024-05-13_09h36.43.608,interaction task,2021.2.3,Linux x86_64,60.24096386,120201,,,,,,,,,,,,,,,,Greater,Smaller,,,-0.247718515,-0.474442775,1,0,0,LeftButton,"[""LeftButton""]",,,,1.285727412,4.8978,space,,,,,,,,,,,,0,9,9,9,1,1,both_wrong.png,1,RandomDot13.png,No answer,19,,,1.2129,,,,,,
,,,,,,,,,,,,,,,,,,,,,,,,,,,,,,,R_5lSB76siDkwnBL3,1,2024-05-13_09h36.43.608,interaction task,2021.2.3,Linux x86_64,60.24096386,120201,,,,,,,,,,,,,,,,Smaller,Greater,,,-0.349329,-0.502369711,1,0,0,LeftButton,"[""LeftButton""]",,,,,,,,,,,,,34.03944984,1.6215,space,53.31358556,4.4625,0,10,10,10,1,3,only_sub_wrong.png,3,RandomDot36.png,No answer,21,,1.6587,,,,,,,
,,,,,,,,,,,,,,,,,,,,,,,,,,,,,,,R_5lSB76siDkwnBL3,1,2024-05-13_09h36.43.608,interaction task,2021.2.3,Linux x86_64,60.24096386,120201,,,,,,,,,,,,,,,,Greater,Smaller,,,0.275166199,-0.541172941,1,0,0,RightButton,"[""RightButton""]",,,,,,,81,3.8961,space,0.8044,34,6.0223,,,,,,0,11,11,11,1,1,both_wrong.png,2,RandomDot9.png,No answer,21,,,,,,,,,
,,,,,,,,,,,,,,,,,,,,,,,,,,,,,,,R_5lSB76siDkwnBL3,1,2024-05-13_09h36.43.608,interaction task,2021.2.3,Linux x86_64,60.24096386,120201,,,,,,,,,,,,,,,,Greater,Smaller,,,0.239474117,-0.545039991,1,0,0,RightButton,"[""RightButton""]",,,,1.135832706,3.9736,space,,,,,,,,,,,,0,12,12,12,1,3,only_sub_wrong.png,1,RandomDot22.png,No answer,19,,,1.0601,,,,,,
,,,,,,,,,,,,,,,,,,,,,,,,,,,,,,,R_5lSB76siDkwnBL3,1,2024-05-13_09h36.43.608,interaction task,2021.2.3,Linux x86_64,60.24096386,120201,,,,,,,,,,,,,,,,Greater,Smaller,,,0.227825392,-0.500900054,1,0,0,RightButton,"[""RightButton""]",,,,,,,76,3.2869,space,0.7001,39,5.5214,,,,,,0,13,13,13,1,1,both_wrong.png,2,RandomDot10.png,No answer,20,,,,,,,,,
,,,,,,,,,,,,,,,,,,,,,,,,,,,,,,,R_5lSB76siDkwnBL3,1,2024-05-13_09h36.43.608,interaction task,2021.2.3,Linux x86_64,60.24096386,120201,,,,,,,,,,,,,,,,Smaller,Greater,,,0.301885166,-0.516257187,1,0,0,RightButton,"[""RightButton""]",,,,,,,,,,,,,,,,,,0,14,14,14,1,4,both_right.png,10,RandomDot41.png,RightButton,5,,,,,,,,,
,,,,,,,,,,,,,,,,,,,,,,,,,,,,,,,R_5lSB76siDkwnBL3,1,2024-05-13_09h36.43.608,interaction task,2021.2.3,Linux x86_64,60.24096386,120201,,,,,,,,,,,,,,,,Greater,Smaller,,,0.347379936,-0.480379174,0,0,0,,[],,,,,,,,,,,,,,,,,,0,15,15,15,1,2,only_sub_right.png,1,RandomDot3.png,No answer,19,,,,109,,,,,
,,,,,,,,,,,,,,,,,,,,,,,,,,,,,,,R_5lSB76siDkwnBL3,1,2024-05-13_09h36.43.608,interaction task,2021.2.3,Linux x86_64,60.24096386,120201,,,,,,,,,,,,,,,,Greater,Smaller,,,0.312309009,-0.490546084,1,0,0,RightButton,"[""RightButton""]",,,,,,,72,2.1144,space,1.1182,40,4.113,,,,,,0,16,16,16,1,3,only_sub_wrong.png,2,RandomDot39.png,No answer,20,,,,,,,,,
,,,,,,,,,,,,,,,,,,,,,,,,,,,,,,,R_5lSB76siDkwnBL3,1,2024-05-13_09h36.43.608,interaction task,2021.2.3,Linux x86_64,60.24096386,120201,,,,,,,,,,,,,,,,Greater,Smaller,,,0.314540341,-0.502889284,1,0,0,RightButton,"[""RightButton""]",,,,,,,70,2.8445,space,0.7934,35,4.9707,,,,,,0,17,17,17,1,2,only_sub_right.png,2,RandomDot36.png,No answer,21,,,,,,,,,
,,,,,,,,,,,,,,,,,,,,,,,,,,,,,,,R_5lSB76siDkwnBL3,1,2024-05-13_09h36.43.608,interaction task,2021.2.3,Linux x86_64,60.24096386,120201,,,,,,,,,,,,,,,,Smaller,Greater,,,-0.228120474,-0.515904042,1,0,0,LeftButton,"[""LeftButton""]",37,2.3846,space,,,,,,,,,,,,,,,0,18,18,18,1,2,only_sub_right.png,0,RandomDot29.png,No answer,20,1.0098,,,,,,,,
,,,,,,,,,,,,,,,,,,,,,,,,,,,,,,,R_5lSB76siDkwnBL3,1,2024-05-13_09h36.43.608,interaction task,2021.2.3,Linux x86_64,60.24096386,120201,,,,,,,,,,,,,,,,Greater,Smaller,,,0.344403407,-0.51370351,1,0,0,RightButton,"[""RightButton""]",,,,,,,,,,,,,,,,,,0,19,19,19,1,5,both_right.png,10,RandomDot42.png,RightButton,20,,,,,,,,,
,,,,,,,,,,,,,,,,,,,,,,,,,,,,,,,R_5lSB76siDkwnBL3,1,2024-05-13_09h36.43.608,interaction task,2021.2.3,Linux x86_64,60.24096386,120201,,,,,,,,,,,,,,,,Greater,Smaller,,,0.264116233,-0.480697589,1,0,0,RightButton,"[""RightButton""]",,,,,,,82,1.8304,space,0.8381,52,3.5113,,,,,,0,20,20,20,1,2,only_sub_right.png,2,RandomDot33.png,No answer,20,,,,,,,,,
,,,,,,,,,,,,,,,,,,,,,,,,,,,,,,,R_5lSB76siDkwnBL3,1,2024-05-13_09h36.43.608,interaction task,2021.2.3,Linux x86_64,60.24096386,120201,,,,,,,,,,,,,,,,Smaller,Greater,,,-0.31565987,-0.515612449,1,0,0,LeftButton,"[""LeftButton""]",,,,0.648946433,3.8694,space,,,,,,,,,,,,0,21,21,21,1,3,only_sub_wrong.png,1,RandomDot22.png,No answer,20,,,1.1474,,,,,,
,,,,,,,,,,,,,,,,,,,,,,,,,,,,,,,R_5lSB76siDkwnBL3,1,2024-05-13_09h36.43.608,interaction task,2021.2.3,Linux x86_64,60.24096386,120201,,,,,,,,,,,,,,,,Greater,Smaller,,,-0.404021744,-0.52724661,1,0,0,LeftButton,"[""LeftButton""]",,,,1.792425081,4.3241,space,,,,,,,,,,,,0,22,22,22,1,3,only_sub_wrong.png,1,RandomDot4.png,No answer,20,,,0.9536,,,,,,
,,,,,,,,,,,,,,,,,,,,,,,,,,,,,,,R_5lSB76siDkwnBL3,1,2024-05-13_09h36.43.608,interaction task,2021.2.3,Linux x86_64,60.24096386,120201,,,,,,,,,,,,,,,,Greater,Smaller,,,-0.303820312,-0.517050472,1,0,0,LeftButton,"[""LeftButton""]",44,3.3245,space,,,,,,,,,,,,,,,0,23,23,23,1,3,only_sub_wrong.png,0,RandomDot24.png,No answer,20,1.0524,,,,,,,,
,,,,,,,,,,,,,,,,,,,,,,,,,,,,,,,R_5lSB76siDkwnBL3,1,2024-05-13_09h36.43.608,interaction task,2021.2.3,Linux x86_64,60.24096386,120201,,,,,,,,,,,,,,,,Greater,Smaller,,,-0.269196661,-0.490780425,1,0,0,LeftButton,"[""LeftButton""]",,,,1.107953503,3.9934,space,,,,,,,,,,,,0,24,24,24,1,2,only_sub_right.png,1,RandomDot3.png,No answer,20,,,0.8746,,,,,,
,,,,,,,,,,,,,,,,,,,,,,,,,,,,,,,R_5lSB76siDkwnBL3,1,2024-05-13_09h36.43.608,interaction task,2021.2.3,Linux x86_64,60.24096386,120201,,,,,,,,,,,,,,,,Greater,Smaller,,,0.36746271,-0.541431524,1,0,0,RightButton,"[""RightButton""]",,,,,,,,,,,,,41.48355299,2.9571,space,49.86129979,4.3141,0,25,25,25,1,2,only_sub_right.png,3,RandomDot36.png,No answer,20,,0.3077,,,,,,,
,,,,,,,,,,,,,,,,,,,,,,,,,,,,,,,R_5lSB76siDkwnBL3,1,2024-05-13_09h36.43.608,interaction task,2021.2.3,Linux x86_64,60.24096386,120201,,,,,,,,,,,,,,,,Smaller,Greater,,,-0.203677471,-0.496284077,1,0,0,LeftButton,"[""LeftButton""]",,,,1.736966964,1.9552,space,,,,,,,,,,,,0,26,26,26,1,2,only_sub_right.png,1,RandomDot38.png,No answer,19,,,0.6566,,,,,,
,,,,,,,,,,,,,,,,,,,,,,,,,,,,,,,R_5lSB76siDkwnBL3,1,2024-05-13_09h36.43.608,interaction task,2021.2.3,Linux x86_64,60.24096386,120201,,,,,,,,,,,,,,,,Greater,Smaller,,,-0.360873397,-0.49494371,1,0,0,LeftButton,"[""LeftButton""]",43,1.9134,space,,,,,,,,,,,,,,,0,27,27,27,1,1,both_wrong.png,0,RandomDot14.png,No answer,19,0.6362,,,,,,,,
,,,,,,,,,,,,,,,,,,,,,,,,,,,,,,,R_5lSB76siDkwnBL3,1,2024-05-13_09h36.43.608,interaction task,2021.2.3,Linux x86_64,60.24096386,120201,,,,,,,,,,,,,,,,Greater,Smaller,,,0.215619701,-0.46596525,1,0,0,RightButton,"[""RightButton""]",,,,,,,74,2.5991,space,0.5033,45,4.596,,,,,,0,28,28,28,1,1,both_wrong.png,2,RandomDot16.png,No answer,20,,,,,,,,,
,,,,,,,,,,,,,,,,,,,,,,,,,,,,,,,R_5lSB76siDkwnBL3,1,2024-05-13_09h36.43.608,interaction task,2021.2.3,Linux x86_64,60.24096386,120201,,,,,,,,,,,,,,,,Smaller,Greater,,,-0.215151055,-0.514824494,1,0,0,LeftButton,"[""LeftButton""]",50,2.4054,space,,,,,,,,,,,,,,,0,29,29,29,1,1,both_wrong.png,0,RandomDot23.png,No answer,20,0.6433,,,,,,,,
,,,,,,,,,,,,,,,,,,,,,,,,,,,,,,,R_5lSB76siDkwnBL3,1,2024-05-13_09h36.43.608,interaction task,2021.2.3,Linux x86_64,60.24096386,120201,,,,,,,,,,,,,,,,Smaller,Greater,,,-0.271989058,-0.512310705,1,0,0,LeftButton,"[""LeftButton""]",49,1.6282,space,,,,,,,,,,,,,,,0,30,30,30,1,2,only_sub_right.png,0,RandomDot17.png,No answer,20,1.4354,,,,,,,,
,,,,,,,,,,,,,,,,,,,,,,,,,,,,,,,R_5lSB76siDkwnBL3,1,2024-05-13_09h36.43.608,interaction task,2021.2.3,Linux x86_64,60.24096386,120201,,,,,,,,,,,,,,,,Greater,Smaller,,,0.396566228,-0.496127964,1,0,0,RightButton,"[""RightButton""]",,,,,,,,,,,,,41.14836191,1.3371,space,67.86226989,2.9073,0,31,31,31,1,2,only_sub_right.png,3,RandomDot20.png,No answer,21,,0.4442,,,,,,,
,,,,,,,,,,,,,,,,,,,,,,,,,,,,,,,R_5lSB76siDkwnBL3,1,2024-05-13_09h36.43.608,interaction task,2021.2.3,Linux x86_64,60.24096386,120201,,,,,,,,,,,,,,,,Smaller,Greater,,,-0.28748568,-0.527935017,1,0,0,LeftButton,"[""LeftButton""]",,,,,,,,,,,,,67.60623718,1.468,space,62.82530407,2.6087,0,32,32,32,1,1,both_wrong.png,3,RandomDot7.png,No answer,21,,0.8502,,,,,,,
,,,,,,,,,,,,,,,,,,,,,,,,,,,,,,,R_5lSB76siDkwnBL3,1,2024-05-13_09h36.43.608,interaction task,2021.2.3,Linux x86_64,60.24096386,120201,,,,,,,,,,,,,,,,Greater,Smaller,,,0.316463185,-0.470030535,1,0,0,RightButton,"[""RightButton""]",68,2.5193,space,,,,,,,,,,,,,,,0,33,33,33,1,3,only_sub_wrong.png,0,RandomDot5.png,No answer,20,0.8483,,,,,,,,
,,,,,,,,,,,,,,,,,,,,,,,,,,,,,,,R_5lSB76siDkwnBL3,1,2024-05-13_09h36.43.608,interaction task,2021.2.3,Linux x86_64,60.24096386,120201,,,,,,,,,,,,,,,,Greater,Smaller,,,0.351584738,-0.533001623,1,0,0,RightButton,"[""RightButton""]",36,2.2414,space,,,,,,,,,,,,,,,0,34,34,34,1,2,only_sub_right.png,0,RandomDot16.png,No answer,20,0.7365,,,,,,,,
,,,,,,,,,,,,,,,,,,,,,,,,,,,,,,,R_5lSB76siDkwnBL3,1,2024-05-13_09h36.43.608,interaction task,2021.2.3,Linux x86_64,60.24096386,120201,,,,,,,,,,,,,,,,Smaller,Greater,,,0.393159615,-0.508015205,1,0,0,RightButton,"[""RightButton""]",,,,1.205466676,3.5935,space,,,,,,,,,,,,0,35,35,35,1,1,both_wrong.png,1,RandomDot13.png,No answer,19,,,0.4228,,,,,,
,,,,,,,,,,,,,,,,,,,,,,,,,,,,,,,R_5lSB76siDkwnBL3,1,2024-05-13_09h36.43.608,interaction task,2021.2.3,Linux x86_64,60.24096386,120201,,,,,,,,,,,,,,,,Smaller,Greater,,,-0.300441141,-0.48679629,1,0,0,LeftButton,"[""LeftButton""]",,,,,,,,,,,,,48.45866091,3.1388,space,63.31702858,5.7651,0,36,36,36,1,2,only_sub_right.png,3,RandomDot25.png,No answer,21,,0.7529,,,,,,,
,,,,,,,,,,,,,,,,,,,,,,,,,,,,,,,R_5lSB76siDkwnBL3,1,2024-05-13_09h36.43.608,interaction task,2021.2.3,Linux x86_64,60.24096386,120201,,,,,,,,,,,,,,,,Smaller,Greater,,,-0.295289111,-0.490629642,1,0,0,LeftButton,"[""LeftButton""]",,,,,,,,,,,,,50.68311223,1.6754,space,57.57957129,3.0019,0,37,37,37,1,3,only_sub_wrong.png,3,RandomDot18.png,No answer,21,,2.0034,,,,,,,
,,,,,,,,,,,,,,,,,,,,,,,,,,,,,,,R_5lSB76siDkwnBL3,1,2024-05-13_09h36.43.608,interaction task,2021.2.3,Linux x86_64,60.24096386,120201,,,,,,,,,,,,,,,,Greater,Smaller,,,0.385431649,-0.474189006,1,0,0,RightButton,"[""RightButton""]",52,1.8659,space,,,,,,,,,,,,,,,0,38,38,38,1,1,both_wrong.png,0,RandomDot32.png,No answer,19,0.6027,,,,,,,,
,,,,,,,,,,,,,,,,,,,,,,,,,,,,,,,R_5lSB76siDkwnBL3,1,2024-05-13_09h36.43.608,interaction task,2021.2.3,Linux x86_64,60.24096386,120201,,,,,,,,,,,,,,,,Smaller,Greater,,,-0.261097437,-0.509209775,1,0,0,LeftButton,"[""LeftButton""]",,,,,,,,,,,,,,,,,,0,39,39,39,1,0,both_right.png,1,RandomDot21.png,No answer,20,,,,,,,,,
,,,,,,,,,,,,,,,,,,,,,,,,,,,,,,,R_5lSB76siDkwnBL3,1,2024-05-13_09h36.43.608,interaction task,2021.2.3,Linux x86_64,60.24096386,120201,,,,,,,,,,,,,,,,Smaller,Greater,,,-0.260590704,-0.509634786,1,0,0,LeftButton,"[""LeftButton""]",,,,,,,,,,,,,,,,,,0,40,40,40,1,0,both_right.png,0,RandomDot38.png,No answer,21,,,,,,,,,
,,,,,,,,,,,,,,,,,,,,,,,,,,,,,,,R_5lSB76siDkwnBL3,1,2024-05-13_09h36.43.608,interaction task,2021.2.3,Linux x86_64,60.24096386,120201,,,,,,,,,,,,,,,,Smaller,Greater,,,-0.305080286,-0.518824274,1,0,0,LeftButton,"[""LeftButton""]",,,,,,,,,,,,,,,,,,0,41,41,41,1,0,both_right.png,2,RandomDot24.png,No answer,21,,,,,,,,,
,,,,,,,,,,,,,,,,,,,,,,,,,,,,,,,R_5lSB76siDkwnBL3,1,2024-05-13_09h36.43.608,interaction task,2021.2.3,Linux x86_64,60.24096386,120201,,,,,,,,,,,,,,,,Greater,Smaller,,,-0.224274076,-0.481867057,1,0,0,LeftButton,"[""LeftButton""]",,,,1.142941519,2.0913,space,,,,,,,,,,,,,,,,,2,only_sub_right.png,1,RandomDot3.png,No answer,19,,,1.0104,,0,0,0,0,1
