chooserow,ParID,pre_instru_resp_2.keys,pre_instru_resp_2.rt,pre_instru_resp_3.keys,pre_instru_resp_3.rt,pre_instru_resp_9.keys,pre_instru_resp_9.rt,pre_instru_resp_8.keys,pre_instru_resp_8.rt,pre_instru_resp_4.keys,pre_instru_resp_4.rt,pre_instru_resp_5.keys,pre_instru_resp_5.rt,pre_instru_resp_6.keys,pre_instru_resp_6.rt,key_resp_3.keys,key_resp_3.rt,key_resp_4.keys,key_resp_4.rt,key_resp_5.keys,key_resp_5.rt,key_resp_6.keys,key_resp_6.rt,key_resp_7.keys,key_resp_7.rt,trials_2.thisRepN,trials_2.thisTrialN,trials_2.thisN,trials_2.thisIndex,trials_2.ran,participant,session,date,expName,psychopyVersion,OS,frameRate,SONAid,pre_instru_resp.keys,pre_instru_resp.rt,clicked,judge_2.x,judge_2.y,judge_2.leftButton,judge_2.midButton,judge_2.rightButton,judge_2.clicked_name,trials.thisRepN,trials.thisTrialN,trials.thisN,trials.thisIndex,trials.ran,prac_answer,prac_dot_sti,dotlefttext,dotrighttext,prac_acc,judge.x,judge.y,judge.leftButton,judge.midButton,judge.rightButton,judge.clicked_name,clicked_guilt,slider_guilt.response,slider_guilt.rt,key_guilt.keys,key_guilt.rt,share_slider.response,share_slider.rt,key_share.keys,slider_apology.response,slider_apology.rt,key_apology.keys,slider_hide.response,slider_hide.rt,slider_forgiveness.response,slider_forgiveness.rt,key_forgiveness.keys,slider_mad.response,slider_mad.rt,trialseq.thisRepN,trialseq.thisTrialN,trialseq.thisN,trialseq.thisIndex,trialseq.ran,type_trial,stipic,DV,picture,answer,number,key_forgiveness.rt,key_share.rt,key_apology.rt
"[148,36,92,34,65,169,138,157,150,83,116,193,66,173,110,100,202,191,63,153,183,84,170,142,115,55,130,125,18,160,49,163,80,103,141,129,89,7,48,82,104,184]",R_5lzc9Eh9N9dRLuJ,space,1.6761,space,6.2698,space,44.8731,space,87.2443,space,87.2753,space,43.112,space,6.6698,3,8.5291,1,10.5953,3,7.4226,2,17.0856,2,5.3507,0,0,0,0,1,R_5lzc9Eh9N9dRLuJ,1,2024-05-31_16h30.34.860,interaction task,2021.2.3,Win32,59.52380952,120414,,,,,,,,,,,,,,,,,,,,,,,,,,,,,,,,,,,,,,,,,,,,,,,,,,,,,,,,,
,,,,,,,,,,,,,,,,,,,,,,,,,,,,,,,R_5lzc9Eh9N9dRLuJ,1,2024-05-31_16h30.34.860,interaction task,2021.2.3,Win32,59.52380952,120414,space,5.0524,"[""LeftButton_2""]",-0.332291651,-0.312963019,1,0,0,LeftButton_2,0,0,0,1,1,RightButton_2,11dot1.png,Smaller,Greater,,,,,,,,,,,,,,,,,,,,,,,,,,,,,,,,,,,,,,,
,,,,,,,,,,,,,,,,,,,,,,,,,,,,,,,R_5lzc9Eh9N9dRLuJ,1,2024-05-31_16h30.34.860,interaction task,2021.2.3,Win32,59.52380952,120414,,,"[""RightButton_2""]",0.25,-0.314814843,1,0,0,RightButton_2,0,1,1,2,1,RightButton_2,9dot2.png,Greater,Smaller,,,,,,,,,,,,,,,,,,,,,,,,,,,,,,,,,,,,,,,
,,,,,,,,,,,,,,,,,,,,,,,,,,,,,,,R_5lzc9Eh9N9dRLuJ,1,2024-05-31_16h30.34.860,interaction task,2021.2.3,Win32,59.52380952,120414,,,"[""RightButton_2""]",0.303125,-0.327777778,1,0,0,RightButton_2,0,2,2,0,1,LeftButton_2,11dot1.png,Greater,Smaller,,,,,,,,,,,,,,,,,,,,,,,,,,,,,,,,,,,,,,,
,,,,,,,,,,,,,,,,,,,,,,,,,,,,,,,R_5lzc9Eh9N9dRLuJ,1,2024-05-31_16h30.34.860,interaction task,2021.2.3,Win32,59.52380952,120414,,,,,,,,,,,,,,,,,Greater,Smaller,0.2,0.203125,-0.511111111,1,0,0,RightButton,"[""RightButton""]",30,10.7798,space,1.1752,,,,,,,,,,,,,,0,0,0,0,1,3,only_sub_wrong.png,0,RandomDot12.png,No answer,20,,,
,,,,,,,,,,,,,,,,,,,,,,,,,,,,,,,R_5lzc9Eh9N9dRLuJ,1,2024-05-31_16h30.34.860,interaction task,2021.2.3,Win32,59.52380952,120414,,,,,,,,,,,,,,,,,Greater,Smaller,,-0.278125,-0.527777778,1,0,0,LeftButton,"[""LeftButton""]",,,,,,,,,,,,,,,,,,0,1,1,1,1,0,both_right.png,3,RandomDot3.png,No answer,20,,,
,,,,,,,,,,,,,,,,,,,,,,,,,,,,,,,R_5lzc9Eh9N9dRLuJ,1,2024-05-31_16h30.34.860,interaction task,2021.2.3,Win32,59.52380952,120414,,,,,,,,,,,,,,,,,Smaller,Greater,,0.279166698,-0.509259372,1,0,0,RightButton,"[""RightButton""]",,,,,,,,,,,,,89.35185827,18.0301,space,0.441919192,14.3775,0,2,2,2,1,1,both_wrong.png,3,RandomDot7.png,No answer,21,8.504,,
,,,,,,,,,,,,,,,,,,,,,,,,,,,,,,,R_5lzc9Eh9N9dRLuJ,1,2024-05-31_16h30.34.860,interaction task,2021.2.3,Win32,59.52380952,120414,,,,,,,,,,,,,,,,,Smaller,Greater,,-0.272916651,-0.498148261,1,0,0,LeftButton,"[""LeftButton""]",,,,,,,,,,,,,,,,,,0,3,3,3,1,0,both_right.png,2,RandomDot15.png,No answer,21,,,
,,,,,,,,,,,,,,,,,,,,,,,,,,,,,,,R_5lzc9Eh9N9dRLuJ,1,2024-05-31_16h30.34.860,interaction task,2021.2.3,Win32,59.52380952,120414,,,,,,,,,,,,,,,,,Greater,Smaller,,-0.276041651,-0.525926039,1,0,0,LeftButton,"[""LeftButton""]",,,,,4.932291985,8.8699,space,,,,,,,,,,,0,4,4,4,1,1,both_wrong.png,1,RandomDot26.png,No answer,21,,2.6077,
,,,,,,,,,,,,,,,,,,,,,,,,,,,,,,,R_5lzc9Eh9N9dRLuJ,1,2024-05-31_16h30.34.860,interaction task,2021.2.3,Win32,59.52380952,120414,,,,,,,,,,,,,,,,,Greater,Smaller,,0.261458397,-0.524074131,1,0,0,RightButton,"[""RightButton""]",,,,,,,,50,4.4107,space,29,10.458,,,,,,0,5,5,5,1,3,only_sub_wrong.png,2,RandomDot1.png,No answer,20,,,0.8896
,,,,,,,,,,,,,,,,,,,,,,,,,,,,,,,R_5lzc9Eh9N9dRLuJ,1,2024-05-31_16h30.34.860,interaction task,2021.2.3,Win32,59.52380952,120414,,,,,,,,,,,,,,,,,Smaller,Greater,,-0.28125,-0.518518575,1,0,0,LeftButton,"[""LeftButton""]",,,,,,,,,,,,,99.87373737,4.1302,space,0.126262626,6.9569,0,6,6,6,1,2,only_sub_right.png,3,RandomDot25.png,No answer,21,1.1626,,
,,,,,,,,,,,,,,,,,,,,,,,,,,,,,,,R_5lzc9Eh9N9dRLuJ,1,2024-05-31_16h30.34.860,interaction task,2021.2.3,Win32,59.52380952,120414,,,,,,,,,,,,,,,,,Greater,Smaller,,-0.257291651,-0.505555556,1,0,0,LeftButton,"[""LeftButton""]",,,,,4.963541985,8.0313,space,,,,,,,,,,,0,7,7,7,1,3,only_sub_wrong.png,1,RandomDot8.png,No answer,21,,2.1551,
,,,,,,,,,,,,,,,,,,,,,,,,,,,,,,,R_5lzc9Eh9N9dRLuJ,1,2024-05-31_16h30.34.860,interaction task,2021.2.3,Win32,59.52380952,120414,,,,,,,,,,,,,,,,,Smaller,Greater,,-0.229166651,-0.477777778,1,0,0,LeftButton,"[""LeftButton""]",60,3.7308,space,5.5145,,,,,,,,,,,,,,0,8,8,8,1,3,only_sub_wrong.png,0,RandomDot16.png,No answer,21,,,
,,,,,,,,,,,,,,,,,,,,,,,,,,,,,,,R_5lzc9Eh9N9dRLuJ,1,2024-05-31_16h30.34.860,interaction task,2021.2.3,Win32,59.52380952,120414,,,,,,,,,,,,,,,,,Smaller,Greater,,-0.272916651,-0.514814928,1,0,0,LeftButton,"[""LeftButton""]",,,,,,,,20,5.082,space,8,14.4265,,,,,,0,9,9,9,1,1,both_wrong.png,2,RandomDot8.png,No answer,20,,,1.2698
,,,,,,,,,,,,,,,,,,,,,,,,,,,,,,,R_5lzc9Eh9N9dRLuJ,1,2024-05-31_16h30.34.860,interaction task,2021.2.3,Win32,59.52380952,120414,,,,,,,,,,,,,,,,,Smaller,Greater,,-0.265625,-0.494444444,1,0,0,LeftButton,"[""LeftButton""]",,,,,4.973958492,8.7202,space,,,,,,,,,,,0,10,10,10,1,2,only_sub_right.png,1,RandomDot25.png,No answer,19,,1.0596,
,,,,,,,,,,,,,,,,,,,,,,,,,,,,,,,R_5lzc9Eh9N9dRLuJ,1,2024-05-31_16h30.34.860,interaction task,2021.2.3,Win32,59.52380952,120414,,,,,,,,,,,,,,,,,Greater,Smaller,,-0.307291651,-0.514814928,1,0,0,LeftButton,"[""LeftButton""]",,,,,,,,,,,,,,,,,,0,11,11,11,1,4,both_right.png,10,RandomDot41.png,LeftButton,5,,,
,,,,,,,,,,,,,,,,,,,,,,,,,,,,,,,R_5lzc9Eh9N9dRLuJ,1,2024-05-31_16h30.34.860,interaction task,2021.2.3,Win32,59.52380952,120414,,,,,,,,,,,,,,,,,Smaller,Greater,,-0.348958302,-0.498148261,1,0,0,LeftButton,"[""LeftButton""]",,,,,4.989583492,2.5928,space,,,,,,,,,,,0,12,12,12,1,1,both_wrong.png,1,RandomDot10.png,No answer,19,,2.2071,
,,,,,,,,,,,,,,,,,,,,,,,,,,,,,,,R_5lzc9Eh9N9dRLuJ,1,2024-05-31_16h30.34.860,interaction task,2021.2.3,Win32,59.52380952,120414,,,,,,,,,,,,,,,,,Greater,Smaller,,0.257291698,-0.498148261,1,0,0,RightButton,"[""RightButton""]",,,,,,,,69,4.4894,space,20,8.9393,,,,,,0,13,13,13,1,3,only_sub_wrong.png,2,RandomDot20.png,No answer,19,,,4.1879
,,,,,,,,,,,,,,,,,,,,,,,,,,,,,,,R_5lzc9Eh9N9dRLuJ,1,2024-05-31_16h30.34.860,interaction task,2021.2.3,Win32,59.52380952,120414,,,,,,,,,,,,,,,,,Greater,Smaller,,-0.296875,-0.485185242,1,0,0,LeftButton,"[""LeftButton""]",,,,,4.921875,3.4168,space,,,,,,,,,,,0,14,14,14,1,2,only_sub_right.png,1,RandomDot6.png,No answer,21,,2.0653,
,,,,,,,,,,,,,,,,,,,,,,,,,,,,,,,R_5lzc9Eh9N9dRLuJ,1,2024-05-31_16h30.34.860,interaction task,2021.2.3,Win32,59.52380952,120414,,,,,,,,,,,,,,,,,Greater,Smaller,,-0.273958302,-0.505555556,1,0,0,LeftButton,"[""LeftButton""]",0,3.1171,space,1.1472,,,,,,,,,,,,,,0,15,15,15,1,2,only_sub_right.png,0,RandomDot33.png,No answer,21,,,
,,,,,,,,,,,,,,,,,,,,,,,,,,,,,,,R_5lzc9Eh9N9dRLuJ,1,2024-05-31_16h30.34.860,interaction task,2021.2.3,Win32,59.52380952,120414,,,,,,,,,,,,,,,,,Smaller,Greater,,-0.297916651,-0.501851908,1,0,0,LeftButton,"[""LeftButton""]",,,,,,,,,,,,,,,,,,0,16,16,16,1,5,both_right.png,10,RandomDot42.png,LeftButton,21,,,
,,,,,,,,,,,,,,,,,,,,,,,,,,,,,,,R_5lzc9Eh9N9dRLuJ,1,2024-05-31_16h30.34.860,interaction task,2021.2.3,Win32,59.52380952,120414,,,,,,,,,,,,,,,,,Smaller,Greater,,0.234375,-0.479629686,1,0,0,RightButton,"[""RightButton""]",,,,,,,,,,,,,59.36448454,4.7356,space,49.36868687,10.3316,0,17,17,17,1,3,only_sub_wrong.png,3,RandomDot36.png,No answer,21,1.452,,
,,,,,,,,,,,,,,,,,,,,,,,,,,,,,,,R_5lzc9Eh9N9dRLuJ,1,2024-05-31_16h30.34.860,interaction task,2021.2.3,Win32,59.52380952,120414,,,,,,,,,,,,,,,,,Greater,Smaller,,-0.284375,-0.531481595,1,0,0,LeftButton,"[""LeftButton""]",,,,,4.984375,4.7355,space,,,,,,,,,,,0,18,18,18,1,1,both_wrong.png,1,RandomDot27.png,No answer,19,,2.8638,
,,,,,,,,,,,,,,,,,,,,,,,,,,,,,,,R_5lzc9Eh9N9dRLuJ,1,2024-05-31_16h30.34.860,interaction task,2021.2.3,Win32,59.52380952,120414,,,,,,,,,,,,,,,,,Smaller,Greater,,-0.30625,-0.475926039,1,0,0,LeftButton,"[""LeftButton""]",69,5.7808,space,0.9343,,,,,,,,,,,,,,0,19,19,19,1,3,only_sub_wrong.png,0,RandomDot25.png,No answer,20,,,
,,,,,,,,,,,,,,,,,,,,,,,,,,,,,,,R_5lzc9Eh9N9dRLuJ,1,2024-05-31_16h30.34.860,interaction task,2021.2.3,Win32,59.52380952,120414,,,,,,,,,,,,,,,,,Greater,Smaller,,-0.261458302,-0.527777778,1,0,0,LeftButton,"[""LeftButton""]",,,,,,,,,,,,,59.46969697,14.4952,space,40.8459596,18.8884,0,20,20,20,1,3,only_sub_wrong.png,3,RandomDot17.png,No answer,19,1.5181,,
,,,,,,,,,,,,,,,,,,,,,,,,,,,,,,,R_5lzc9Eh9N9dRLuJ,1,2024-05-31_16h30.34.860,interaction task,2021.2.3,Win32,59.52380952,120414,,,,,,,,,,,,,,,,,Greater,Smaller,,-0.242708302,-0.535185242,1,0,0,LeftButton,"[""LeftButton""]",,,,,,,,,,,,,79.8821613,7.123,space,19.59175245,10.5023,0,21,21,21,1,1,both_wrong.png,3,RandomDot6.png,No answer,20,1.2009,,
,,,,,,,,,,,,,,,,,,,,,,,,,,,,,,,R_5lzc9Eh9N9dRLuJ,1,2024-05-31_16h30.34.860,interaction task,2021.2.3,Win32,59.52380952,120414,,,,,,,,,,,,,,,,,Greater,Smaller,,0.226041698,-0.514814928,1,0,0,RightButton,"[""RightButton""]",,,,,,,,70,4.4168,space,20,6.7891,,,,,,0,22,22,22,1,3,only_sub_wrong.png,2,RandomDot39.png,No answer,20,,,2.6995
,,,,,,,,,,,,,,,,,,,,,,,,,,,,,,,R_5lzc9Eh9N9dRLuJ,1,2024-05-31_16h30.34.860,interaction task,2021.2.3,Win32,59.52380952,120414,,,,,,,,,,,,,,,,,Smaller,Greater,,0.192708397,-0.533333333,1,0,0,RightButton,"[""RightButton""]",,,,,,,,,,,,,98.19024211,7.9719,space,0,10.0258,0,23,23,23,1,2,only_sub_right.png,3,RandomDot18.png,No answer,20,0.8642,,
,,,,,,,,,,,,,,,,,,,,,,,,,,,,,,,R_5lzc9Eh9N9dRLuJ,1,2024-05-31_16h30.34.860,interaction task,2021.2.3,Win32,59.52380952,120414,,,,,,,,,,,,,,,,,Smaller,Greater,,-0.282291651,-0.520370483,1,0,0,LeftButton,"[""LeftButton""]",,,,,4.947916985,2.6192,space,,,,,,,,,,,0,24,24,24,1,2,only_sub_right.png,1,RandomDot14.png,No answer,20,,1.0029,
,,,,,,,,,,,,,,,,,,,,,,,,,,,,,,,R_5lzc9Eh9N9dRLuJ,1,2024-05-31_16h30.34.860,interaction task,2021.2.3,Win32,59.52380952,120414,,,,,,,,,,,,,,,,,Smaller,Greater,,-0.259375,-0.479629686,1,0,0,LeftButton,"[""LeftButton""]",50,6.3567,space,4.1867,,,,,,,,,,,,,,0,25,25,25,1,1,both_wrong.png,0,RandomDot28.png,No answer,19,,,
,,,,,,,,,,,,,,,,,,,,,,,,,,,,,,,R_5lzc9Eh9N9dRLuJ,1,2024-05-31_16h30.34.860,interaction task,2021.2.3,Win32,59.52380952,120414,,,,,,,,,,,,,,,,,Smaller,Greater,,-0.305208302,-0.503703817,1,0,0,LeftButton,"[""LeftButton""]",,,,,,,,0,3.6428,space,18,9.2427,,,,,,0,26,26,26,1,2,only_sub_right.png,2,RandomDot8.png,No answer,21,,,5.8433
,,,,,,,,,,,,,,,,,,,,,,,,,,,,,,,R_5lzc9Eh9N9dRLuJ,1,2024-05-31_16h30.34.860,interaction task,2021.2.3,Win32,59.52380952,120414,,,,,,,,,,,,,,,,,Greater,Smaller,,0.288541698,-0.529629686,1,0,0,RightButton,"[""RightButton""]",,,,,,,,0,3.5917,space,20,5.8043,,,,,,0,27,27,27,1,2,only_sub_right.png,2,RandomDot36.png,No answer,21,,,1.7652
,,,,,,,,,,,,,,,,,,,,,,,,,,,,,,,R_5lzc9Eh9N9dRLuJ,1,2024-05-31_16h30.34.860,interaction task,2021.2.3,Win32,59.52380952,120414,,,,,,,,,,,,,,,,,Smaller,Greater,,-0.217708302,-0.520370483,1,0,0,LeftButton,"[""LeftButton""]",,,,,,,,,,,,,,,,,,0,28,28,28,1,0,both_right.png,1,RandomDot5.png,No answer,19,,,
,,,,,,,,,,,,,,,,,,,,,,,,,,,,,,,R_5lzc9Eh9N9dRLuJ,1,2024-05-31_16h30.34.860,interaction task,2021.2.3,Win32,59.52380952,120414,,,,,,,,,,,,,,,,,Greater,Smaller,,-0.261458302,-0.492592706,1,0,0,LeftButton,"[""LeftButton""]",,,,,4.96875,2.2604,space,,,,,,,,,,,0,29,29,29,1,3,only_sub_wrong.png,1,RandomDot22.png,No answer,19,,0.9652,
,,,,,,,,,,,,,,,,,,,,,,,,,,,,,,,R_5lzc9Eh9N9dRLuJ,1,2024-05-31_16h30.34.860,interaction task,2021.2.3,Win32,59.52380952,120414,,,,,,,,,,,,,,,,,Greater,Smaller,,-0.272916651,-0.53703715,1,0,0,LeftButton,"[""LeftButton""]",50,4.8253,space,0.9105,,,,,,,,,,,,,,0,30,30,30,1,1,both_wrong.png,0,RandomDot16.png,No answer,19,,,
,,,,,,,,,,,,,,,,,,,,,,,,,,,,,,,R_5lzc9Eh9N9dRLuJ,1,2024-05-31_16h30.34.860,interaction task,2021.2.3,Win32,59.52380952,120414,,,,,,,,,,,,,,,,,Smaller,Greater,,-0.241666651,-0.540740797,1,0,0,LeftButton,"[""LeftButton""]",,,,,4.96875,2.6476,space,,,,,,,,,,,0,31,31,31,1,3,only_sub_wrong.png,1,RandomDot6.png,No answer,20,,1.8297,
,,,,,,,,,,,,,,,,,,,,,,,,,,,,,,,R_5lzc9Eh9N9dRLuJ,1,2024-05-31_16h30.34.860,interaction task,2021.2.3,Win32,59.52380952,120414,,,,,,,,,,,,,,,,,Smaller,Greater,,0.244791698,-0.53703715,1,0,0,RightButton,"[""RightButton""]",,,,,,,,48,3.1466,space,19,5.9578,,,,,,0,32,32,32,1,1,both_wrong.png,2,RandomDot8.png,No answer,20,,,0.8403
,,,,,,,,,,,,,,,,,,,,,,,,,,,,,,,R_5lzc9Eh9N9dRLuJ,1,2024-05-31_16h30.34.860,interaction task,2021.2.3,Win32,59.52380952,120414,,,,,,,,,,,,,,,,,Smaller,Greater,,-0.260416651,-0.494444444,1,0,0,LeftButton,"[""LeftButton""]",0,3.1331,space,1.1973,,,,,,,,,,,,,,0,33,33,33,1,2,only_sub_right.png,0,RandomDot21.png,No answer,21,,,
,,,,,,,,,,,,,,,,,,,,,,,,,,,,,,,R_5lzc9Eh9N9dRLuJ,1,2024-05-31_16h30.34.860,interaction task,2021.2.3,Win32,59.52380952,120414,,,,,,,,,,,,,,,,,Smaller,Greater,,-0.266666651,-0.531481595,1,0,0,LeftButton,"[""LeftButton""]",,,,,,,,,,,,,100,3.2541,space,0.441919192,5.4517,0,34,34,34,1,2,only_sub_right.png,3,RandomDot7.png,No answer,20,0.9374,,
,,,,,,,,,,,,,,,,,,,,,,,,,,,,,,,R_5lzc9Eh9N9dRLuJ,1,2024-05-31_16h30.34.860,interaction task,2021.2.3,Win32,59.52380952,120414,,,,,,,,,,,,,,,,,Smaller,Greater,,0.240625,-0.475926039,1,0,0,RightButton,"[""RightButton""]",,,,,,,,0,3.7624,space,19,5.4199,,,,,,0,35,35,35,1,2,only_sub_right.png,2,RandomDot37.png,No answer,19,,,1.3397
,,,,,,,,,,,,,,,,,,,,,,,,,,,,,,,R_5lzc9Eh9N9dRLuJ,1,2024-05-31_16h30.34.860,interaction task,2021.2.3,Win32,59.52380952,120414,,,,,,,,,,,,,,,,,Greater,Smaller,,-0.285416651,-0.544444444,1,0,0,LeftButton,"[""LeftButton""]",,,,,,,,,,,,,80.3030303,10.5634,space,10.43771204,15.4367,0,36,36,36,1,1,both_wrong.png,3,RandomDot6.png,No answer,21,6.5333,,
,,,,,,,,,,,,,,,,,,,,,,,,,,,,,,,R_5lzc9Eh9N9dRLuJ,1,2024-05-31_16h30.34.860,interaction task,2021.2.3,Win32,59.52380952,120414,,,,,,,,,,,,,,,,,Smaller,Greater,,0.216666698,-0.533333333,1,0,0,RightButton,"[""RightButton""]",,,,,,,,,,,,,,,,,,0,37,37,37,1,0,both_right.png,0,RandomDot27.png,No answer,19,,,
,,,,,,,,,,,,,,,,,,,,,,,,,,,,,,,R_5lzc9Eh9N9dRLuJ,1,2024-05-31_16h30.34.860,interaction task,2021.2.3,Win32,59.52380952,120414,,,,,,,,,,,,,,,,,Greater,Smaller,,-0.314583302,-0.488888889,1,0,0,LeftButton,"[""LeftButton""]",20,4.7504,space,3.1017,,,,,,,,,,,,,,0,38,38,38,1,1,both_wrong.png,0,RandomDot24.png,No answer,21,,,
,,,,,,,,,,,,,,,,,,,,,,,,,,,,,,,R_5lzc9Eh9N9dRLuJ,1,2024-05-31_16h30.34.860,interaction task,2021.2.3,Win32,59.52380952,120414,,,,,,,,,,,,,,,,,Smaller,Greater,,-0.284375,-0.483333333,1,0,0,LeftButton,"[""LeftButton""]",,,,,,,,25,5.3471,space,18,7.9033,,,,,,0,39,39,39,1,1,both_wrong.png,2,RandomDot7.png,No answer,21,,,1.5166
,,,,,,,,,,,,,,,,,,,,,,,,,,,,,,,R_5lzc9Eh9N9dRLuJ,1,2024-05-31_16h30.34.860,interaction task,2021.2.3,Win32,59.52380952,120414,,,,,,,,,,,,,,,,,Smaller,Greater,,-0.291666651,-0.514814928,1,0,0,LeftButton,"[""LeftButton""]",0,3.4443,space,0.6409,,,,,,,,,,,,,,0,40,40,40,1,2,only_sub_right.png,0,RandomDot29.png,No answer,20,,,
,,,,,,,,,,,,,,,,,,,,,,,,,,,,,,,R_5lzc9Eh9N9dRLuJ,1,2024-05-31_16h30.34.860,interaction task,2021.2.3,Win32,59.52380952,120414,,,,,,,,,,,,,,,,,Greater,Smaller,,0.242708397,-0.511111111,1,0,0,RightButton,"[""RightButton""]",,,,,,,,,,,,,49.15825237,5.4803,space,28.21969697,14.8975,0,41,41,41,1,3,only_sub_wrong.png,3,RandomDot20.png,No answer,20,6.0263,,
