choose_trial,key_resp.keys,key_resp.rt,key_resp_4.keys,key_resp_4.rt,session_trait,slider_face_judge.response,slider_face_judge.rt,key_resp_3.keys,key_resp_3.rt,face_loop.thisRepN,face_loop.thisTrialN,face_loop.thisN,face_loop.thisIndex,face_loop.ran,face_serial,image_name,isCheck,answer,check_question,participant,session,date,expName,psychopyVersion,OS,frameRate,SONAid,session.thisRepN,session.thisTrialN,session.thisN,session.thisIndex,session.ran,session_serial,slider_judge_img
"[0,1,2,3,4,5,6,7,8,9,10,11,12,13,14,15,16,17,18,19,20,21,22,23,24,25,26,27,28,29,30,31,32,33,34,35,36,37,38,39,40,41,42,43,44,45,46,47,48,49,57,53,51]",space,3.2802,space,6.4539,critical,4.03734375,1.7787,space,0.4297,0,0,0,33,1,34,image/34.jpg,0,0,,R_5NFLSVTrP1bwEtb,2,2024-05-29_19h44.19.121,face trait task,2021.2.3,MacIntel,59.88023952,120981,,,,,,,
,,,,,,5.010625,7.3323,space,0.1699,0,1,1,4,1,5,image/5.jpg,0,0,,R_5NFLSVTrP1bwEtb,2,2024-05-29_19h44.19.121,face trait task,2021.2.3,MacIntel,59.88023952,120981,,,,,,,
,,,,,,6.008411458,3.5033,space,0.1881,0,2,2,19,1,20,image/20.jpg,0,0,,R_5NFLSVTrP1bwEtb,2,2024-05-29_19h44.19.121,face trait task,2021.2.3,MacIntel,59.88023952,120981,,,,,,,
,,,,,,2.999296875,2.1718,space,0.2264,0,3,3,28,1,29,image/29.jpg,0,0,,R_5NFLSVTrP1bwEtb,2,2024-05-29_19h44.19.121,face trait task,2021.2.3,MacIntel,59.88023952,120981,,,,,,,
,,,,,,2.999296875,3.3711,space,0.1857,0,4,4,7,1,8,image/8.jpg,0,0,,R_5NFLSVTrP1bwEtb,2,2024-05-29_19h44.19.121,face trait task,2021.2.3,MacIntel,59.88023952,120981,,,,,,,
,,,,,,1.910390625,1.7083,space,0.304,0,5,5,42,1,43,image/43.jpg,0,0,,R_5NFLSVTrP1bwEtb,2,2024-05-29_19h44.19.121,face trait task,2021.2.3,MacIntel,59.88023952,120981,,,,,,,
,,,,,,2.321276042,2.2426,space,0.2118,0,6,6,22,1,23,image/23.jpg,0,0,,R_5NFLSVTrP1bwEtb,2,2024-05-29_19h44.19.121,face trait task,2021.2.3,MacIntel,59.88023952,120981,,,,,,,
,,,,,,5.249791667,2.9752,space,0.1545,0,7,7,27,1,28,image/28.jpg,0,0,,R_5NFLSVTrP1bwEtb,2,2024-05-29_19h44.19.121,face trait task,2021.2.3,MacIntel,59.88023952,120981,,,,,,,
,,,,,,1.6575,3.8201,space,0.0894,0,8,8,11,1,12,image/12.jpg,0,0,,R_5NFLSVTrP1bwEtb,2,2024-05-29_19h44.19.121,face trait task,2021.2.3,MacIntel,59.88023952,120981,,,,,,,
,,,,,,3.211302083,2.6027,space,0.7869,0,9,9,9,1,10,image/10.jpg,0,0,,R_5NFLSVTrP1bwEtb,2,2024-05-29_19h44.19.121,face trait task,2021.2.3,MacIntel,59.88023952,120981,,,,,,,
,,,,,,2.254401042,3.0027,space,0.232,0,10,10,6,1,7,image/7.jpg,0,0,,R_5NFLSVTrP1bwEtb,2,2024-05-29_19h44.19.121,face trait task,2021.2.3,MacIntel,59.88023952,120981,,,,,,,
,,,,,,1.215442708,1.5248,space,0.1619,0,11,11,35,1,36,image/36.jpg,0,0,,R_5NFLSVTrP1bwEtb,2,2024-05-29_19h44.19.121,face trait task,2021.2.3,MacIntel,59.88023952,120981,,,,,,,
,,,,,,1,6.1491,space,2.4436,0,12,12,52,1,52,image/fill_img.png,1,1,Please move the slider all the way to the LEFT to show that you are paying attention.,R_5NFLSVTrP1bwEtb,2,2024-05-29_19h44.19.121,face trait task,2021.2.3,MacIntel,59.88023952,120981,,,,,,,
,,,,,,1.735963542,3.7614,space,0.1398,0,13,13,2,1,3,image/3.jpg,0,0,,R_5NFLSVTrP1bwEtb,2,2024-05-29_19h44.19.121,face trait task,2021.2.3,MacIntel,59.88023952,120981,,,,,,,
,,,,,,2.36921875,1.3897,space,0.1459,0,14,14,24,1,25,image/25.jpg,0,0,,R_5NFLSVTrP1bwEtb,2,2024-05-29_19h44.19.121,face trait task,2021.2.3,MacIntel,59.88023952,120981,,,,,,,
,,,,,,3.161328125,1.8821,space,0.4199,0,15,15,3,1,4,image/4.jpg,0,0,,R_5NFLSVTrP1bwEtb,2,2024-05-29_19h44.19.121,face trait task,2021.2.3,MacIntel,59.88023952,120981,,,,,,,
,,,,,,2.760104167,1.5471,space,0.1382,0,16,16,39,1,40,image/40.jpg,0,0,,R_5NFLSVTrP1bwEtb,2,2024-05-29_19h44.19.121,face trait task,2021.2.3,MacIntel,59.88023952,120981,,,,,,,
,,,,,,2.268463542,1.8947,space,0.1366,0,17,17,29,1,30,image/30.jpg,0,0,,R_5NFLSVTrP1bwEtb,2,2024-05-29_19h44.19.121,face trait task,2021.2.3,MacIntel,59.88023952,120981,,,,,,,
,,,,,,2.09859375,5.4462,space,0.4374,0,18,18,41,1,42,image/42.jpg,0,0,,R_5NFLSVTrP1bwEtb,2,2024-05-29_19h44.19.121,face trait task,2021.2.3,MacIntel,59.88023952,120981,,,,,,,
,,,,,,2.257005208,11.2471,space,0.1654,0,19,19,1,1,2,image/2.jpg,0,0,,R_5NFLSVTrP1bwEtb,2,2024-05-29_19h44.19.121,face trait task,2021.2.3,MacIntel,59.88023952,120981,,,,,,,
,,,,,,1.62734375,2.3752,space,0.378,0,20,20,10,1,11,image/11.jpg,0,0,,R_5NFLSVTrP1bwEtb,2,2024-05-29_19h44.19.121,face trait task,2021.2.3,MacIntel,59.88023952,120981,,,,,,,
,,,,,,4.660260417,2.9454,space,0.1266,0,21,21,45,1,46,image/46.jpg,0,0,,R_5NFLSVTrP1bwEtb,2,2024-05-29_19h44.19.121,face trait task,2021.2.3,MacIntel,59.88023952,120981,,,,,,,
,,,,,,6.199973958,8.1955,space,0.1645,0,22,22,30,1,31,image/31.jpg,0,0,,R_5NFLSVTrP1bwEtb,2,2024-05-29_19h44.19.121,face trait task,2021.2.3,MacIntel,59.88023952,120981,,,,,,,
,,,,,,5.371614583,2.541,space,0.2373,0,23,23,48,1,49,image/49.jpg,0,0,,R_5NFLSVTrP1bwEtb,2,2024-05-29_19h44.19.121,face trait task,2021.2.3,MacIntel,59.88023952,120981,,,,,,,
,,,,,,5.478333333,4.3836,space,0.2035,0,24,24,12,1,13,image/13.jpg,0,0,,R_5NFLSVTrP1bwEtb,2,2024-05-29_19h44.19.121,face trait task,2021.2.3,MacIntel,59.88023952,120981,,,,,,,
,,,,,,4.335338542,1.7474,space,0.1395,0,25,25,23,1,24,image/24.jpg,0,0,,R_5NFLSVTrP1bwEtb,2,2024-05-29_19h44.19.121,face trait task,2021.2.3,MacIntel,59.88023952,120981,,,,,,,
,,,,,,4.659401042,1.668,space,0.2342,0,26,26,8,1,9,image/9.jpg,0,0,,R_5NFLSVTrP1bwEtb,2,2024-05-29_19h44.19.121,face trait task,2021.2.3,MacIntel,59.88023952,120981,,,,,,,
,,,,,,4.659401042,4.5237,space,0.1156,0,27,27,5,1,6,image/6.jpg,0,0,,R_5NFLSVTrP1bwEtb,2,2024-05-29_19h44.19.121,face trait task,2021.2.3,MacIntel,59.88023952,120981,,,,,,,
,,,,,,3.8609375,1.8372,space,0.1137,0,28,28,37,1,38,image/38.jpg,0,0,,R_5NFLSVTrP1bwEtb,2,2024-05-29_19h44.19.121,face trait task,2021.2.3,MacIntel,59.88023952,120981,,,,,,,
,,,,,,1,3.7606,space,1.6877,0,29,29,51,1,54,image/fill_img.png,1,1,Please move the slider all the way to the LEFT to show that you are paying attention.,R_5NFLSVTrP1bwEtb,2,2024-05-29_19h44.19.121,face trait task,2021.2.3,MacIntel,59.88023952,120981,,,,,,,
,,,,,,1.482265625,3.0525,space,0.1965,0,30,30,49,1,50,image/50.jpg,0,0,,R_5NFLSVTrP1bwEtb,2,2024-05-29_19h44.19.121,face trait task,2021.2.3,MacIntel,59.88023952,120981,,,,,,,
,,,,,,1.590234375,4.2442,space,0.3261,0,31,31,15,1,16,image/16.jpg,0,0,,R_5NFLSVTrP1bwEtb,2,2024-05-29_19h44.19.121,face trait task,2021.2.3,MacIntel,59.88023952,120981,,,,,,,
,,,,,,2.383411458,2.1259,space,0.1215,0,32,32,36,1,37,image/37.jpg,0,0,,R_5NFLSVTrP1bwEtb,2,2024-05-29_19h44.19.121,face trait task,2021.2.3,MacIntel,59.88023952,120981,,,,,,,
,,,,,,1.253046875,3.8131,space,0.1075,0,33,33,26,1,27,image/27.jpg,0,0,,R_5NFLSVTrP1bwEtb,2,2024-05-29_19h44.19.121,face trait task,2021.2.3,MacIntel,59.88023952,120981,,,,,,,
,,,,,,7,3.0535,space,1.5398,0,34,34,50,1,58,image/fill_img.png,1,7,Please move the slider all the way to the RIGHT to show that you are paying attention.,R_5NFLSVTrP1bwEtb,2,2024-05-29_19h44.19.121,face trait task,2021.2.3,MacIntel,59.88023952,120981,,,,,,,
,,,,,,6.153177083,2.4468,space,0.1781,0,35,35,0,1,1,image/1.jpg,0,0,,R_5NFLSVTrP1bwEtb,2,2024-05-29_19h44.19.121,face trait task,2021.2.3,MacIntel,59.88023952,120981,,,,,,,
,,,,,,4.733333333,2.0374,space,0.205,0,36,36,16,1,17,image/17.jpg,0,0,,R_5NFLSVTrP1bwEtb,2,2024-05-29_19h44.19.121,face trait task,2021.2.3,MacIntel,59.88023952,120981,,,,,,,
,,,,,,3.535286458,2.1551,space,0.1279,0,37,37,32,1,33,image/33.jpg,0,0,,R_5NFLSVTrP1bwEtb,2,2024-05-29_19h44.19.121,face trait task,2021.2.3,MacIntel,59.88023952,120981,,,,,,,
,,,,,,3.083854167,1.897,space,0.4063,0,38,38,44,1,45,image/45.jpg,0,0,,R_5NFLSVTrP1bwEtb,2,2024-05-29_19h44.19.121,face trait task,2021.2.3,MacIntel,59.88023952,120981,,,,,,,
,,,,,,3.53546875,1.9378,space,0.1056,0,39,39,18,1,19,image/19.jpg,0,0,,R_5NFLSVTrP1bwEtb,2,2024-05-29_19h44.19.121,face trait task,2021.2.3,MacIntel,59.88023952,120981,,,,,,,
,,,,,,2.759010417,1.8359,space,0.1363,0,40,40,40,1,41,image/41.jpg,0,0,,R_5NFLSVTrP1bwEtb,2,2024-05-29_19h44.19.121,face trait task,2021.2.3,MacIntel,59.88023952,120981,,,,,,,
,,,,,,3.457916667,2.5532,space,0.4546,0,41,41,38,1,39,image/39.jpg,0,0,,R_5NFLSVTrP1bwEtb,2,2024-05-29_19h44.19.121,face trait task,2021.2.3,MacIntel,59.88023952,120981,,,,,,,
,,,,,,2.320885417,1.9328,space,0.2005,0,42,42,20,1,21,image/21.jpg,0,0,,R_5NFLSVTrP1bwEtb,2,2024-05-29_19h44.19.121,face trait task,2021.2.3,MacIntel,59.88023952,120981,,,,,,,
,,,,,,1.541796875,1.9381,space,0.1725,0,43,43,21,1,22,image/22.jpg,0,0,,R_5NFLSVTrP1bwEtb,2,2024-05-29_19h44.19.121,face trait task,2021.2.3,MacIntel,59.88023952,120981,,,,,,,
,,,,,,2.175546875,2.115,space,0.3712,0,44,44,13,1,14,image/14.jpg,0,0,,R_5NFLSVTrP1bwEtb,2,2024-05-29_19h44.19.121,face trait task,2021.2.3,MacIntel,59.88023952,120981,,,,,,,
,,,,,,2.175546875,1.6358,space,0.573,0,45,45,43,1,44,image/44.jpg,0,0,,R_5NFLSVTrP1bwEtb,2,2024-05-29_19h44.19.121,face trait task,2021.2.3,MacIntel,59.88023952,120981,,,,,,,
,,,,,,1.618333333,1.4544,space,0.122,0,46,46,46,1,47,image/47.jpg,0,0,,R_5NFLSVTrP1bwEtb,2,2024-05-29_19h44.19.121,face trait task,2021.2.3,MacIntel,59.88023952,120981,,,,,,,
,,,,,,4.231015625,1.5869,space,0.2574,0,47,47,14,1,15,image/15.jpg,0,0,,R_5NFLSVTrP1bwEtb,2,2024-05-29_19h44.19.121,face trait task,2021.2.3,MacIntel,59.88023952,120981,,,,,,,
,,,,,,3.901536458,1.3508,space,0.176,0,48,48,25,1,26,image/26.jpg,0,0,,R_5NFLSVTrP1bwEtb,2,2024-05-29_19h44.19.121,face trait task,2021.2.3,MacIntel,59.88023952,120981,,,,,,,
,,,,,,3.241796875,2.8738,space,0.23,0,49,49,47,1,48,image/48.jpg,0,0,,R_5NFLSVTrP1bwEtb,2,2024-05-29_19h44.19.121,face trait task,2021.2.3,MacIntel,59.88023952,120981,,,,,,,
,,,,,,3.241796875,1.2869,space,0.1767,0,50,50,31,1,32,image/32.jpg,0,0,,R_5NFLSVTrP1bwEtb,2,2024-05-29_19h44.19.121,face trait task,2021.2.3,MacIntel,59.88023952,120981,,,,,,,
,,,,,,2.509791667,1.3751,space,0.1173,0,51,51,34,1,35,image/35.jpg,0,0,,R_5NFLSVTrP1bwEtb,2,2024-05-29_19h44.19.121,face trait task,2021.2.3,MacIntel,59.88023952,120981,,,,,,,
,,,,,,2.879479167,1.7383,space,0.4071,0,52,52,17,1,18,image/18.jpg,0,0,,R_5NFLSVTrP1bwEtb,2,2024-05-29_19h44.19.121,face trait task,2021.2.3,MacIntel,59.88023952,120981,,,,,,,
,,,,,,,,,,,,,,,,,,,,R_5NFLSVTrP1bwEtb,2,2024-05-29_19h44.19.121,face trait task,2021.2.3,MacIntel,59.88023952,120981,0,0,0,0,1,0,critical.png
,,,,,friendly,3.429166667,2.1423,space,0.1696,0,0,0,13,1,14,image/14.jpg,0,0,,R_5NFLSVTrP1bwEtb,2,2024-05-29_19h44.19.121,face trait task,2021.2.3,MacIntel,59.88023952,120981,,,,,,,
,,,,,,3.154244792,6.7369,space,0.0905,0,1,1,10,1,11,image/11.jpg,0,0,,R_5NFLSVTrP1bwEtb,2,2024-05-29_19h44.19.121,face trait task,2021.2.3,MacIntel,59.88023952,120981,,,,,,,
,,,,,,6.179505208,8.0951,space,2.8109,0,2,2,49,1,50,image/50.jpg,0,0,,R_5NFLSVTrP1bwEtb,2,2024-05-29_19h44.19.121,face trait task,2021.2.3,MacIntel,59.88023952,120981,,,,,,,
,,,,,,6.333307292,1.6715,space,0.1956,0,3,3,2,1,3,image/3.jpg,0,0,,R_5NFLSVTrP1bwEtb,2,2024-05-29_19h44.19.121,face trait task,2021.2.3,MacIntel,59.88023952,120981,,,,,,,
,,,,,,4.713307292,6.945,space,0.1691,0,4,4,44,1,45,image/45.jpg,0,0,,R_5NFLSVTrP1bwEtb,2,2024-05-29_19h44.19.121,face trait task,2021.2.3,MacIntel,59.88023952,120981,,,,,,,
,,,,,,4.133723958,2.5761,space,0.2092,0,5,5,28,1,29,image/29.jpg,0,0,,R_5NFLSVTrP1bwEtb,2,2024-05-29_19h44.19.121,face trait task,2021.2.3,MacIntel,59.88023952,120981,,,,,,,
,,,,,,2.854375,4.1515,space,0.1378,0,6,6,15,1,16,image/16.jpg,0,0,,R_5NFLSVTrP1bwEtb,2,2024-05-29_19h44.19.121,face trait task,2021.2.3,MacIntel,59.88023952,120981,,,,,,,
,,,,,,2.854375,1.5128,space,0.7721,0,7,7,22,1,23,image/23.jpg,0,0,,R_5NFLSVTrP1bwEtb,2,2024-05-29_19h44.19.121,face trait task,2021.2.3,MacIntel,59.88023952,120981,,,,,,,
,,,,,,3.327630208,1.7814,space,0.1542,0,8,8,5,1,6,image/6.jpg,0,0,,R_5NFLSVTrP1bwEtb,2,2024-05-29_19h44.19.121,face trait task,2021.2.3,MacIntel,59.88023952,120981,,,,,,,
,,,,,,3.327630208,1.5402,space,0.3744,0,9,9,46,1,47,image/47.jpg,0,0,,R_5NFLSVTrP1bwEtb,2,2024-05-29_19h44.19.121,face trait task,2021.2.3,MacIntel,59.88023952,120981,,,,,,,
,,,,,,6.385104167,1.8036,space,0.1775,0,10,10,20,1,21,image/21.jpg,0,0,,R_5NFLSVTrP1bwEtb,2,2024-05-29_19h44.19.121,face trait task,2021.2.3,MacIntel,59.88023952,120981,,,,,,,
,,,,,,1.674557292,2.0751,space,0.1055,0,11,11,37,1,38,image/38.jpg,0,0,,R_5NFLSVTrP1bwEtb,2,2024-05-29_19h44.19.121,face trait task,2021.2.3,MacIntel,59.88023952,120981,,,,,,,
,,,,,,6.502838542,2.8475,space,0.1315,0,12,12,11,1,12,image/12.jpg,0,0,,R_5NFLSVTrP1bwEtb,2,2024-05-29_19h44.19.121,face trait task,2021.2.3,MacIntel,59.88023952,120981,,,,,,,
,,,,,,5.779739583,1.6344,space,0.1729,0,13,13,18,1,19,image/19.jpg,0,0,,R_5NFLSVTrP1bwEtb,2,2024-05-29_19h44.19.121,face trait task,2021.2.3,MacIntel,59.88023952,120981,,,,,,,
,,,,,,2.250729167,1.688,space,0.1552,0,14,14,14,1,15,image/15.jpg,0,0,,R_5NFLSVTrP1bwEtb,2,2024-05-29_19h44.19.121,face trait task,2021.2.3,MacIntel,59.88023952,120981,,,,,,,
,,,,,,6.757604167,1.5208,space,0.1852,0,15,15,48,1,49,image/49.jpg,0,0,,R_5NFLSVTrP1bwEtb,2,2024-05-29_19h44.19.121,face trait task,2021.2.3,MacIntel,59.88023952,120981,,,,,,,
,,,,,,1,3.6016,space,1.2883,0,16,16,51,1,54,image/fill_img.png,1,1,Please move the slider all the way to the LEFT to show that you are paying attention.,R_5NFLSVTrP1bwEtb,2,2024-05-29_19h44.19.121,face trait task,2021.2.3,MacIntel,59.88023952,120981,,,,,,,
,,,,,,1.315338542,11.3007,space,0.2326,0,17,17,27,1,28,image/28.jpg,0,0,,R_5NFLSVTrP1bwEtb,2,2024-05-29_19h44.19.121,face trait task,2021.2.3,MacIntel,59.88023952,120981,,,,,,,
,,,,,,1.330598958,2.704,space,0.1461,0,18,18,38,1,39,image/39.jpg,0,0,,R_5NFLSVTrP1bwEtb,2,2024-05-29_19h44.19.121,face trait task,2021.2.3,MacIntel,59.88023952,120981,,,,,,,
,,,,,,1,2.565,space,1.0232,0,19,19,52,1,52,image/fill_img.png,1,1,Please move the slider all the way to the LEFT to show that you are paying attention.,R_5NFLSVTrP1bwEtb,2,2024-05-29_19h44.19.121,face trait task,2021.2.3,MacIntel,59.88023952,120981,,,,,,,
,,,,,,1.153854167,2.9934,space,0.2445,0,20,20,39,1,40,image/40.jpg,0,0,,R_5NFLSVTrP1bwEtb,2,2024-05-29_19h44.19.121,face trait task,2021.2.3,MacIntel,59.88023952,120981,,,,,,,
,,,,,,3.502708333,12.0306,space,0.178,0,21,21,32,1,33,image/33.jpg,0,0,,R_5NFLSVTrP1bwEtb,2,2024-05-29_19h44.19.121,face trait task,2021.2.3,MacIntel,59.88023952,120981,,,,,,,
,,,,,,5.342369792,2.2475,space,0.1759,0,22,22,7,1,8,image/8.jpg,0,0,,R_5NFLSVTrP1bwEtb,2,2024-05-29_19h44.19.121,face trait task,2021.2.3,MacIntel,59.88023952,120981,,,,,,,
,,,,,,5.529765625,1.3536,space,0.1562,0,23,23,31,1,32,image/32.jpg,0,0,,R_5NFLSVTrP1bwEtb,2,2024-05-29_19h44.19.121,face trait task,2021.2.3,MacIntel,59.88023952,120981,,,,,,,
,,,,,,2.282265625,2.3434,space,0.1275,0,24,24,25,1,26,image/26.jpg,0,0,,R_5NFLSVTrP1bwEtb,2,2024-05-29_19h44.19.121,face trait task,2021.2.3,MacIntel,59.88023952,120981,,,,,,,
,,,,,,3.562135417,2.623,space,0.1604,0,25,25,4,1,5,image/5.jpg,0,0,,R_5NFLSVTrP1bwEtb,2,2024-05-29_19h44.19.121,face trait task,2021.2.3,MacIntel,59.88023952,120981,,,,,,,
,,,,,,7,3.9019,space,1.1042,0,26,26,50,1,58,image/fill_img.png,1,7,Please move the slider all the way to the RIGHT to show that you are paying attention.,R_5NFLSVTrP1bwEtb,2,2024-05-29_19h44.19.121,face trait task,2021.2.3,MacIntel,59.88023952,120981,,,,,,,
,,,,,,1.465651042,2.2017,space,0.1577,0,27,27,45,1,46,image/46.jpg,0,0,,R_5NFLSVTrP1bwEtb,2,2024-05-29_19h44.19.121,face trait task,2021.2.3,MacIntel,59.88023952,120981,,,,,,,
,,,,,,3.299635417,1.6208,space,0.1896,0,28,28,42,1,43,image/43.jpg,0,0,,R_5NFLSVTrP1bwEtb,2,2024-05-29_19h44.19.121,face trait task,2021.2.3,MacIntel,59.88023952,120981,,,,,,,
,,,,,,4.803020833,2.3139,space,0.2227,0,29,29,36,1,37,image/37.jpg,0,0,,R_5NFLSVTrP1bwEtb,2,2024-05-29_19h44.19.121,face trait task,2021.2.3,MacIntel,59.88023952,120981,,,,,,,
,,,,,,3.811380208,2.8253,space,0.387,0,30,30,26,1,27,image/27.jpg,0,0,,R_5NFLSVTrP1bwEtb,2,2024-05-29_19h44.19.121,face trait task,2021.2.3,MacIntel,59.88023952,120981,,,,,,,
,,,,,,5.253932292,4.4686,space,0.3803,0,31,31,12,1,13,image/13.jpg,0,0,,R_5NFLSVTrP1bwEtb,2,2024-05-29_19h44.19.121,face trait task,2021.2.3,MacIntel,59.88023952,120981,,,,,,,
,,,,,,1.655208333,2.4095,space,0.6744,0,32,32,0,1,1,image/1.jpg,0,0,,R_5NFLSVTrP1bwEtb,2,2024-05-29_19h44.19.121,face trait task,2021.2.3,MacIntel,59.88023952,120981,,,,,,,
,,,,,,1.626640625,1.805,space,0.1932,0,33,33,21,1,22,image/22.jpg,0,0,,R_5NFLSVTrP1bwEtb,2,2024-05-29_19h44.19.121,face trait task,2021.2.3,MacIntel,59.88023952,120981,,,,,,,
,,,,,,6.117552083,2.5987,space,0.3869,0,34,34,1,1,2,image/2.jpg,0,0,,R_5NFLSVTrP1bwEtb,2,2024-05-29_19h44.19.121,face trait task,2021.2.3,MacIntel,59.88023952,120981,,,,,,,
,,,,,,4.784635417,2.1713,space,0.0726,0,35,35,8,1,9,image/9.jpg,0,0,,R_5NFLSVTrP1bwEtb,2,2024-05-29_19h44.19.121,face trait task,2021.2.3,MacIntel,59.88023952,120981,,,,,,,
,,,,,,6.860390625,1.7033,space,0.2399,0,36,36,41,1,42,image/42.jpg,0,0,,R_5NFLSVTrP1bwEtb,2,2024-05-29_19h44.19.121,face trait task,2021.2.3,MacIntel,59.88023952,120981,,,,,,,
,,,,,,2.78234375,2.5576,space,0.2083,0,37,37,19,1,20,image/20.jpg,0,0,,R_5NFLSVTrP1bwEtb,2,2024-05-29_19h44.19.121,face trait task,2021.2.3,MacIntel,59.88023952,120981,,,,,,,
,,,,,,6.151015625,2.7215,space,0.6708,0,38,38,6,1,7,image/7.jpg,0,0,,R_5NFLSVTrP1bwEtb,2,2024-05-29_19h44.19.121,face trait task,2021.2.3,MacIntel,59.88023952,120981,,,,,,,
,,,,,,1.072604167,4.048,space,0.2573,0,39,39,30,1,31,image/31.jpg,0,0,,R_5NFLSVTrP1bwEtb,2,2024-05-29_19h44.19.121,face trait task,2021.2.3,MacIntel,59.88023952,120981,,,,,,,
,,,,,,6.825338542,2.2407,space,0.1726,0,40,40,3,1,4,image/4.jpg,0,0,,R_5NFLSVTrP1bwEtb,2,2024-05-29_19h44.19.121,face trait task,2021.2.3,MacIntel,59.88023952,120981,,,,,,,
,,,,,,5.2171875,1.6038,space,0.1398,0,41,41,9,1,10,image/10.jpg,0,0,,R_5NFLSVTrP1bwEtb,2,2024-05-29_19h44.19.121,face trait task,2021.2.3,MacIntel,59.88023952,120981,,,,,,,
,,,,,,5.923854167,1.5694,space,0.1109,0,42,42,33,1,34,image/34.jpg,0,0,,R_5NFLSVTrP1bwEtb,2,2024-05-29_19h44.19.121,face trait task,2021.2.3,MacIntel,59.88023952,120981,,,,,,,
,,,,,,4.171484375,2.0644,space,0.1563,0,43,43,34,1,35,image/35.jpg,0,0,,R_5NFLSVTrP1bwEtb,2,2024-05-29_19h44.19.121,face trait task,2021.2.3,MacIntel,59.88023952,120981,,,,,,,
,,,,,,4.203307292,3.1627,space,0.3234,0,44,44,17,1,18,image/18.jpg,0,0,,R_5NFLSVTrP1bwEtb,2,2024-05-29_19h44.19.121,face trait task,2021.2.3,MacIntel,59.88023952,120981,,,,,,,
,,,,,,5.594453125,7.2,space,0.2203,0,45,45,23,1,24,image/24.jpg,0,0,,R_5NFLSVTrP1bwEtb,2,2024-05-29_19h44.19.121,face trait task,2021.2.3,MacIntel,59.88023952,120981,,,,,,,
,,,,,,4.057265625,1.6544,space,0.0756,0,46,46,24,1,25,image/25.jpg,0,0,,R_5NFLSVTrP1bwEtb,2,2024-05-29_19h44.19.121,face trait task,2021.2.3,MacIntel,59.88023952,120981,,,,,,,
,,,,,,3.762447917,3.0901,space,0.3503,0,47,47,40,1,41,image/41.jpg,0,0,,R_5NFLSVTrP1bwEtb,2,2024-05-29_19h44.19.121,face trait task,2021.2.3,MacIntel,59.88023952,120981,,,,,,,
,,,,,,4.447135417,2.1917,space,0.2788,0,48,48,35,1,36,image/36.jpg,0,0,,R_5NFLSVTrP1bwEtb,2,2024-05-29_19h44.19.121,face trait task,2021.2.3,MacIntel,59.88023952,120981,,,,,,,
,,,,,,4.645338542,3.3172,space,0.215,0,49,49,47,1,48,image/48.jpg,0,0,,R_5NFLSVTrP1bwEtb,2,2024-05-29_19h44.19.121,face trait task,2021.2.3,MacIntel,59.88023952,120981,,,,,,,
,,,,,,4.645338542,1.1929,space,0.1375,0,50,50,16,1,17,image/17.jpg,0,0,,R_5NFLSVTrP1bwEtb,2,2024-05-29_19h44.19.121,face trait task,2021.2.3,MacIntel,59.88023952,120981,,,,,,,
,,,,,,3.774583333,1.4077,space,0.1402,0,51,51,29,1,30,image/30.jpg,0,0,,R_5NFLSVTrP1bwEtb,2,2024-05-29_19h44.19.121,face trait task,2021.2.3,MacIntel,59.88023952,120981,,,,,,,
,,,,,,5.25515625,1.1781,space,0.1222,0,52,52,43,1,44,image/44.jpg,0,0,,R_5NFLSVTrP1bwEtb,2,2024-05-29_19h44.19.121,face trait task,2021.2.3,MacIntel,59.88023952,120981,,,,,,,
,,,,,,,,,,,,,,,,,,,,R_5NFLSVTrP1bwEtb,2,2024-05-29_19h44.19.121,face trait task,2021.2.3,MacIntel,59.88023952,120981,0,1,1,3,1,3,friendly.png
,,,,,competent,1,2.7976,space,0.8312,0,0,0,52,1,52,image/fill_img.png,1,1,Please move the slider all the way to the LEFT to show that you are paying attention.,R_5NFLSVTrP1bwEtb,2,2024-05-29_19h44.19.121,face trait task,2021.2.3,MacIntel,59.88023952,120981,,,,,,,
,,,,,,4.5659375,2.8077,space,0.1109,0,1,1,26,1,27,image/27.jpg,0,0,,R_5NFLSVTrP1bwEtb,2,2024-05-29_19h44.19.121,face trait task,2021.2.3,MacIntel,59.88023952,120981,,,,,,,
,,,,,,6.312942708,2.3282,space,0.2138,0,2,2,10,1,11,image/11.jpg,0,0,,R_5NFLSVTrP1bwEtb,2,2024-05-29_19h44.19.121,face trait task,2021.2.3,MacIntel,59.88023952,120981,,,,,,,
,,,,,,1,2.4029,space,0.7334,0,3,3,51,1,54,image/fill_img.png,1,1,Please move the slider all the way to the LEFT to show that you are paying attention.,R_5NFLSVTrP1bwEtb,2,2024-05-29_19h44.19.121,face trait task,2021.2.3,MacIntel,59.88023952,120981,,,,,,,
,,,,,,2.718567708,1.7998,space,0.1076,0,4,4,18,1,19,image/19.jpg,0,0,,R_5NFLSVTrP1bwEtb,2,2024-05-29_19h44.19.121,face trait task,2021.2.3,MacIntel,59.88023952,120981,,,,,,,
,,,,,,6.236276042,1.6052,space,0.1006,0,5,5,20,1,21,image/21.jpg,0,0,,R_5NFLSVTrP1bwEtb,2,2024-05-29_19h44.19.121,face trait task,2021.2.3,MacIntel,59.88023952,120981,,,,,,,
,,,,,,4.12859375,1.6783,space,0.1392,0,6,6,8,1,9,image/9.jpg,0,0,,R_5NFLSVTrP1bwEtb,2,2024-05-29_19h44.19.121,face trait task,2021.2.3,MacIntel,59.88023952,120981,,,,,,,
,,,,,,3.150833333,1.5981,space,0.139,0,7,7,35,1,36,image/36.jpg,0,0,,R_5NFLSVTrP1bwEtb,2,2024-05-29_19h44.19.121,face trait task,2021.2.3,MacIntel,59.88023952,120981,,,,,,,
,,,,,,3.451015625,1.8467,space,0.188,0,8,8,6,1,7,image/7.jpg,0,0,,R_5NFLSVTrP1bwEtb,2,2024-05-29_19h44.19.121,face trait task,2021.2.3,MacIntel,59.88023952,120981,,,,,,,
,,,,,,2.193541667,1.6307,space,0.107,0,9,9,5,1,6,image/6.jpg,0,0,,R_5NFLSVTrP1bwEtb,2,2024-05-29_19h44.19.121,face trait task,2021.2.3,MacIntel,59.88023952,120981,,,,,,,
,,,,,,6.850520833,2.8624,space,0.1675,0,10,10,9,1,10,image/10.jpg,0,0,,R_5NFLSVTrP1bwEtb,2,2024-05-29_19h44.19.121,face trait task,2021.2.3,MacIntel,59.88023952,120981,,,,,,,
,,,,,,6.021770833,1.6983,space,0.1058,0,11,11,21,1,22,image/22.jpg,0,0,,R_5NFLSVTrP1bwEtb,2,2024-05-29_19h44.19.121,face trait task,2021.2.3,MacIntel,59.88023952,120981,,,,,,,
,,,,,,6.021770833,1.0616,space,0.2882,0,12,12,0,1,1,image/1.jpg,0,0,,R_5NFLSVTrP1bwEtb,2,2024-05-29_19h44.19.121,face trait task,2021.2.3,MacIntel,59.88023952,120981,,,,,,,
,,,,,,4.680494792,1.1987,space,0.1433,0,13,13,45,1,46,image/46.jpg,0,0,,R_5NFLSVTrP1bwEtb,2,2024-05-29_19h44.19.121,face trait task,2021.2.3,MacIntel,59.88023952,120981,,,,,,,
,,,,,,3.373359375,1.2473,space,0.1037,0,14,14,17,1,18,image/18.jpg,0,0,,R_5NFLSVTrP1bwEtb,2,2024-05-29_19h44.19.121,face trait task,2021.2.3,MacIntel,59.88023952,120981,,,,,,,
,,,,,,4.34765625,1.4373,space,0.1399,0,15,15,27,1,28,image/28.jpg,0,0,,R_5NFLSVTrP1bwEtb,2,2024-05-29_19h44.19.121,face trait task,2021.2.3,MacIntel,59.88023952,120981,,,,,,,
,,,,,,2.936770833,1.8084,space,0.3628,0,16,16,43,1,44,image/44.jpg,0,0,,R_5NFLSVTrP1bwEtb,2,2024-05-29_19h44.19.121,face trait task,2021.2.3,MacIntel,59.88023952,120981,,,,,,,
,,,,,,2.489036458,2.1542,space,0.3213,0,17,17,11,1,12,image/12.jpg,0,0,,R_5NFLSVTrP1bwEtb,2,2024-05-29_19h44.19.121,face trait task,2021.2.3,MacIntel,59.88023952,120981,,,,,,,
,,,,,,1.562057292,1.7715,space,0.1314,0,18,18,37,1,38,image/38.jpg,0,0,,R_5NFLSVTrP1bwEtb,2,2024-05-29_19h44.19.121,face trait task,2021.2.3,MacIntel,59.88023952,120981,,,,,,,
,,,,,,2.49765625,2.094,space,0.1557,0,19,19,23,1,24,image/24.jpg,0,0,,R_5NFLSVTrP1bwEtb,2,2024-05-29_19h44.19.121,face trait task,2021.2.3,MacIntel,59.88023952,120981,,,,,,,
,,,,,,3.24828125,5.7309,space,0.3137,0,20,20,48,1,49,image/49.jpg,0,0,,R_5NFLSVTrP1bwEtb,2,2024-05-29_19h44.19.121,face trait task,2021.2.3,MacIntel,59.88023952,120981,,,,,,,
,,,,,,3.24828125,1.7122,space,0.2064,0,21,21,34,1,35,image/35.jpg,0,0,,R_5NFLSVTrP1bwEtb,2,2024-05-29_19h44.19.121,face trait task,2021.2.3,MacIntel,59.88023952,120981,,,,,,,
,,,,,,2.605625,1.4203,space,0.3806,0,22,22,25,1,26,image/26.jpg,0,0,,R_5NFLSVTrP1bwEtb,2,2024-05-29_19h44.19.121,face trait task,2021.2.3,MacIntel,59.88023952,120981,,,,,,,
,,,,,,1.978359375,1.1323,space,0.1888,0,23,23,19,1,20,image/20.jpg,0,0,,R_5NFLSVTrP1bwEtb,2,2024-05-29_19h44.19.121,face trait task,2021.2.3,MacIntel,59.88023952,120981,,,,,,,
,,,,,,1.34578125,1.7411,space,0.4769,0,24,24,16,1,17,image/17.jpg,0,0,,R_5NFLSVTrP1bwEtb,2,2024-05-29_19h44.19.121,face trait task,2021.2.3,MacIntel,59.88023952,120981,,,,,,,
,,,,,,1.31359375,1.088,space,0.1371,0,25,25,46,1,47,image/47.jpg,0,0,,R_5NFLSVTrP1bwEtb,2,2024-05-29_19h44.19.121,face trait task,2021.2.3,MacIntel,59.88023952,120981,,,,,,,
,,,,,,5.270598958,1.4795,space,0.1854,0,26,26,33,1,34,image/34.jpg,0,0,,R_5NFLSVTrP1bwEtb,2,2024-05-29_19h44.19.121,face trait task,2021.2.3,MacIntel,59.88023952,120981,,,,,,,
,,,,,,4.271354167,2.443,space,0.135,0,27,27,31,1,32,image/32.jpg,0,0,,R_5NFLSVTrP1bwEtb,2,2024-05-29_19h44.19.121,face trait task,2021.2.3,MacIntel,59.88023952,120981,,,,,,,
,,,,,,4.271354167,1.2453,space,0.2071,0,28,28,39,1,40,image/40.jpg,0,0,,R_5NFLSVTrP1bwEtb,2,2024-05-29_19h44.19.121,face trait task,2021.2.3,MacIntel,59.88023952,120981,,,,,,,
,,,,,,1.154270833,2.8096,space,0.502,0,29,29,38,1,39,image/39.jpg,0,0,,R_5NFLSVTrP1bwEtb,2,2024-05-29_19h44.19.121,face trait task,2021.2.3,MacIntel,59.88023952,120981,,,,,,,
,,,,,,1.154270833,0.9599,space,0.1576,0,30,30,24,1,25,image/25.jpg,0,0,,R_5NFLSVTrP1bwEtb,2,2024-05-29_19h44.19.121,face trait task,2021.2.3,MacIntel,59.88023952,120981,,,,,,,
,,,,,,3.665807292,2.7194,space,0.6033,0,31,31,44,1,45,image/45.jpg,0,0,,R_5NFLSVTrP1bwEtb,2,2024-05-29_19h44.19.121,face trait task,2021.2.3,MacIntel,59.88023952,120981,,,,,,,
,,,,,,5.61046875,1.7638,space,0.2199,0,32,32,28,1,29,image/29.jpg,0,0,,R_5NFLSVTrP1bwEtb,2,2024-05-29_19h44.19.121,face trait task,2021.2.3,MacIntel,59.88023952,120981,,,,,,,
,,,,,,2.160364583,1.6272,space,0.1376,0,33,33,32,1,33,image/33.jpg,0,0,,R_5NFLSVTrP1bwEtb,2,2024-05-29_19h44.19.121,face trait task,2021.2.3,MacIntel,59.88023952,120981,,,,,,,
,,,,,,2.308854167,1.1376,space,0.1506,0,34,34,22,1,23,image/23.jpg,0,0,,R_5NFLSVTrP1bwEtb,2,2024-05-29_19h44.19.121,face trait task,2021.2.3,MacIntel,59.88023952,120981,,,,,,,
,,,,,,2.575989583,1.571,space,0.1566,0,35,35,49,1,50,image/50.jpg,0,0,,R_5NFLSVTrP1bwEtb,2,2024-05-29_19h44.19.121,face trait task,2021.2.3,MacIntel,59.88023952,120981,,,,,,,
,,,,,,2.780625,2.261,space,0.2126,0,36,36,13,1,14,image/14.jpg,0,0,,R_5NFLSVTrP1bwEtb,2,2024-05-29_19h44.19.121,face trait task,2021.2.3,MacIntel,59.88023952,120981,,,,,,,
,,,,,,3.133125,1.1147,space,0.1948,0,37,37,42,1,43,image/43.jpg,0,0,,R_5NFLSVTrP1bwEtb,2,2024-05-29_19h44.19.121,face trait task,2021.2.3,MacIntel,59.88023952,120981,,,,,,,
,,,,,,2.120911458,1.371,space,0.123,0,38,38,15,1,16,image/16.jpg,0,0,,R_5NFLSVTrP1bwEtb,2,2024-05-29_19h44.19.121,face trait task,2021.2.3,MacIntel,59.88023952,120981,,,,,,,
,,,,,,3.089895833,1.5544,space,0.6682,0,39,39,29,1,30,image/30.jpg,0,0,,R_5NFLSVTrP1bwEtb,2,2024-05-29_19h44.19.121,face trait task,2021.2.3,MacIntel,59.88023952,120981,,,,,,,
,,,,,,3.588125,2.5294,space,0.1244,0,40,40,4,1,5,image/5.jpg,0,0,,R_5NFLSVTrP1bwEtb,2,2024-05-29_19h44.19.121,face trait task,2021.2.3,MacIntel,59.88023952,120981,,,,,,,
,,,,,,2.083541667,1.7377,space,0.1214,0,41,41,36,1,37,image/37.jpg,0,0,,R_5NFLSVTrP1bwEtb,2,2024-05-29_19h44.19.121,face trait task,2021.2.3,MacIntel,59.88023952,120981,,,,,,,
,,,,,,2.083541667,1.328,space,0.1387,0,42,42,2,1,3,image/3.jpg,0,0,,R_5NFLSVTrP1bwEtb,2,2024-05-29_19h44.19.121,face trait task,2021.2.3,MacIntel,59.88023952,120981,,,,,,,
,,,,,,7,3.3593,space,1.0864,0,43,43,50,1,58,image/fill_img.png,1,7,Please move the slider all the way to the RIGHT to show that you are paying attention.,R_5NFLSVTrP1bwEtb,2,2024-05-29_19h44.19.121,face trait task,2021.2.3,MacIntel,59.88023952,120981,,,,,,,
,,,,,,1.624114583,1.6191,space,0.1343,0,44,44,12,1,13,image/13.jpg,0,0,,R_5NFLSVTrP1bwEtb,2,2024-05-29_19h44.19.121,face trait task,2021.2.3,MacIntel,59.88023952,120981,,,,,,,
,,,,,,6.075572917,1.3384,space,0.2017,0,45,45,3,1,4,image/4.jpg,0,0,,R_5NFLSVTrP1bwEtb,2,2024-05-29_19h44.19.121,face trait task,2021.2.3,MacIntel,59.88023952,120981,,,,,,,
,,,,,,6.721223958,1.4808,space,0.189,0,46,46,7,1,8,image/8.jpg,0,0,,R_5NFLSVTrP1bwEtb,2,2024-05-29_19h44.19.121,face trait task,2021.2.3,MacIntel,59.88023952,120981,,,,,,,
,,,,,,5.151979167,4.5562,space,0.1928,0,47,47,1,1,2,image/2.jpg,0,0,,R_5NFLSVTrP1bwEtb,2,2024-05-29_19h44.19.121,face trait task,2021.2.3,MacIntel,59.88023952,120981,,,,,,,
,,,,,,4.06109375,1.7078,space,0.1945,0,48,48,30,1,31,image/31.jpg,0,0,,R_5NFLSVTrP1bwEtb,2,2024-05-29_19h44.19.121,face trait task,2021.2.3,MacIntel,59.88023952,120981,,,,,,,
,,,,,,1.231223958,1.9318,space,0.1743,0,49,49,40,1,41,image/41.jpg,0,0,,R_5NFLSVTrP1bwEtb,2,2024-05-29_19h44.19.121,face trait task,2021.2.3,MacIntel,59.88023952,120981,,,,,,,
,,,,,,2.115234375,1.7488,space,2.1733,0,50,50,47,1,48,image/48.jpg,0,0,,R_5NFLSVTrP1bwEtb,2,2024-05-29_19h44.19.121,face trait task,2021.2.3,MacIntel,59.88023952,120981,,,,,,,
,,,,,,2.224817708,8.0982,space,0.1078,0,51,51,41,1,42,image/42.jpg,0,0,,R_5NFLSVTrP1bwEtb,2,2024-05-29_19h44.19.121,face trait task,2021.2.3,MacIntel,59.88023952,120981,,,,,,,
,,,,,,2.880026042,1.7983,space,0.2055,0,52,52,14,1,15,image/15.jpg,0,0,,R_5NFLSVTrP1bwEtb,2,2024-05-29_19h44.19.121,face trait task,2021.2.3,MacIntel,59.88023952,120981,,,,,,,
,,,,,,,,,,,,,,,,,,,,R_5NFLSVTrP1bwEtb,2,2024-05-29_19h44.19.121,face trait task,2021.2.3,MacIntel,59.88023952,120981,0,2,2,1,1,1,competent.png
,,,,,trustworthy,2.040703125,2.025,space,0.9525,0,0,0,26,1,27,image/27.jpg,0,0,,R_5NFLSVTrP1bwEtb,2,2024-05-29_19h44.19.121,face trait task,2021.2.3,MacIntel,59.88023952,120981,,,,,,,
,,,,,,2.040703125,5.2465,space,0.9556,0,1,1,1,1,2,image/2.jpg,0,0,,R_5NFLSVTrP1bwEtb,2,2024-05-29_19h44.19.121,face trait task,2021.2.3,MacIntel,59.88023952,120981,,,,,,,
,,,,,,3.056822917,2.5794,space,0.1796,0,2,2,11,1,12,image/12.jpg,0,0,,R_5NFLSVTrP1bwEtb,2,2024-05-29_19h44.19.121,face trait task,2021.2.3,MacIntel,59.88023952,120981,,,,,,,
,,,,,,1.730546875,2.0957,space,0.3572,0,3,3,28,1,29,image/29.jpg,0,0,,R_5NFLSVTrP1bwEtb,2,2024-05-29_19h44.19.121,face trait task,2021.2.3,MacIntel,59.88023952,120981,,,,,,,
,,,,,,3.285286458,3.369,space,0.2194,0,4,4,40,1,41,image/41.jpg,0,0,,R_5NFLSVTrP1bwEtb,2,2024-05-29_19h44.19.121,face trait task,2021.2.3,MacIntel,59.88023952,120981,,,,,,,
,,,,,,4.3153125,2.5216,space,1.6864,0,5,5,5,1,6,image/6.jpg,0,0,,R_5NFLSVTrP1bwEtb,2,2024-05-29_19h44.19.121,face trait task,2021.2.3,MacIntel,59.88023952,120981,,,,,,,
,,,,,,1.666640625,3.427,space,0.4396,0,6,6,32,1,33,image/33.jpg,0,0,,R_5NFLSVTrP1bwEtb,2,2024-05-29_19h44.19.121,face trait task,2021.2.3,MacIntel,59.88023952,120981,,,,,,,
,,,,,,1.666640625,2.5879,space,0.5392,0,7,7,6,1,7,image/7.jpg,0,0,,R_5NFLSVTrP1bwEtb,2,2024-05-29_19h44.19.121,face trait task,2021.2.3,MacIntel,59.88023952,120981,,,,,,,
,,,,,,1.666640625,1.609,space,0.7716,0,8,8,14,1,15,image/15.jpg,0,0,,R_5NFLSVTrP1bwEtb,2,2024-05-29_19h44.19.121,face trait task,2021.2.3,MacIntel,59.88023952,120981,,,,,,,
,,,,,,1.484375,2.1643,space,0.2051,0,9,9,16,1,17,image/17.jpg,0,0,,R_5NFLSVTrP1bwEtb,2,2024-05-29_19h44.19.121,face trait task,2021.2.3,MacIntel,59.88023952,120981,,,,,,,
,,,,,,6.375078125,2.707,space,0.1557,0,10,10,33,1,34,image/34.jpg,0,0,,R_5NFLSVTrP1bwEtb,2,2024-05-29_19h44.19.121,face trait task,2021.2.3,MacIntel,59.88023952,120981,,,,,,,
,,,,,,3.212291667,1.4617,space,0.1401,0,11,11,47,1,48,image/48.jpg,0,0,,R_5NFLSVTrP1bwEtb,2,2024-05-29_19h44.19.121,face trait task,2021.2.3,MacIntel,59.88023952,120981,,,,,,,
,,,,,,5.491197917,1.7596,space,0.1626,0,12,12,4,1,5,image/5.jpg,0,0,,R_5NFLSVTrP1bwEtb,2,2024-05-29_19h44.19.121,face trait task,2021.2.3,MacIntel,59.88023952,120981,,,,,,,
,,,,,,1,15.8792,space,1.1031,0,13,13,52,1,52,image/fill_img.png,1,1,Please move the slider all the way to the LEFT to show that you are paying attention.,R_5NFLSVTrP1bwEtb,2,2024-05-29_19h44.19.121,face trait task,2021.2.3,MacIntel,59.88023952,120981,,,,,,,
,,,,,,2.42578125,3.0932,space,0.1884,0,14,14,22,1,23,image/23.jpg,0,0,,R_5NFLSVTrP1bwEtb,2,2024-05-29_19h44.19.121,face trait task,2021.2.3,MacIntel,59.88023952,120981,,,,,,,
,,,,,,1,5.0042,space,0.9605,0,15,15,51,1,54,image/fill_img.png,1,1,Please move the slider all the way to the LEFT to show that you are paying attention.,R_5NFLSVTrP1bwEtb,2,2024-05-29_19h44.19.121,face trait task,2021.2.3,MacIntel,59.88023952,120981,,,,,,,
,,,,,,5.632135417,3.015,space,0.1268,0,16,16,9,1,10,image/10.jpg,0,0,,R_5NFLSVTrP1bwEtb,2,2024-05-29_19h44.19.121,face trait task,2021.2.3,MacIntel,59.88023952,120981,,,,,,,
,,,,,,3.180807292,1.5569,space,0.1756,0,17,17,23,1,24,image/24.jpg,0,0,,R_5NFLSVTrP1bwEtb,2,2024-05-29_19h44.19.121,face trait task,2021.2.3,MacIntel,59.88023952,120981,,,,,,,
,,,,,,2.293333333,4.8442,space,0.2475,0,18,18,46,1,47,image/47.jpg,0,0,,R_5NFLSVTrP1bwEtb,2,2024-05-29_19h44.19.121,face trait task,2021.2.3,MacIntel,59.88023952,120981,,,,,,,
,,,,,,5.495,2.3105,space,1.1566,0,19,19,10,1,11,image/11.jpg,0,0,,R_5NFLSVTrP1bwEtb,2,2024-05-29_19h44.19.121,face trait task,2021.2.3,MacIntel,59.88023952,120981,,,,,,,
,,,,,,3.637994792,1.6652,space,0.1891,0,20,20,44,1,45,image/45.jpg,0,0,,R_5NFLSVTrP1bwEtb,2,2024-05-29_19h44.19.121,face trait task,2021.2.3,MacIntel,59.88023952,120981,,,,,,,
,,,,,,5.157786458,2.881,space,0.2036,0,21,21,17,1,18,image/18.jpg,0,0,,R_5NFLSVTrP1bwEtb,2,2024-05-29_19h44.19.121,face trait task,2021.2.3,MacIntel,59.88023952,120981,,,,,,,
,,,,,,1.620052083,2.8871,space,0.1531,0,22,22,30,1,31,image/31.jpg,0,0,,R_5NFLSVTrP1bwEtb,2,2024-05-29_19h44.19.121,face trait task,2021.2.3,MacIntel,59.88023952,120981,,,,,,,
,,,,,,4.497708333,1.7949,space,0.1733,0,23,23,41,1,42,image/42.jpg,0,0,,R_5NFLSVTrP1bwEtb,2,2024-05-29_19h44.19.121,face trait task,2021.2.3,MacIntel,59.88023952,120981,,,,,,,
,,,,,,3.390677083,1.812,space,0.173,0,24,24,18,1,19,image/19.jpg,0,0,,R_5NFLSVTrP1bwEtb,2,2024-05-29_19h44.19.121,face trait task,2021.2.3,MacIntel,59.88023952,120981,,,,,,,
,,,,,,6.639140625,3.0039,space,0.1223,0,25,25,3,1,4,image/4.jpg,0,0,,R_5NFLSVTrP1bwEtb,2,2024-05-29_19h44.19.121,face trait task,2021.2.3,MacIntel,59.88023952,120981,,,,,,,
,,,,,,1.737994792,3.0134,space,0.2064,0,26,26,39,1,40,image/40.jpg,0,0,,R_5NFLSVTrP1bwEtb,2,2024-05-29_19h44.19.121,face trait task,2021.2.3,MacIntel,59.88023952,120981,,,,,,,
,,,,,,5.188463542,5.4645,space,0.4757,0,27,27,2,1,3,image/3.jpg,0,0,,R_5NFLSVTrP1bwEtb,2,2024-05-29_19h44.19.121,face trait task,2021.2.3,MacIntel,59.88023952,120981,,,,,,,
,,,,,,2.273151042,4.9542,space,0.2663,0,28,28,42,1,43,image/43.jpg,0,0,,R_5NFLSVTrP1bwEtb,2,2024-05-29_19h44.19.121,face trait task,2021.2.3,MacIntel,59.88023952,120981,,,,,,,
,,,,,,3.847421875,14.6295,space,0.3347,0,29,29,34,1,35,image/35.jpg,0,0,,R_5NFLSVTrP1bwEtb,2,2024-05-29_19h44.19.121,face trait task,2021.2.3,MacIntel,59.88023952,120981,,,,,,,
,,,,,,3.091432292,2.2777,space,0.203,0,30,30,43,1,44,image/44.jpg,0,0,,R_5NFLSVTrP1bwEtb,2,2024-05-29_19h44.19.121,face trait task,2021.2.3,MacIntel,59.88023952,120981,,,,,,,
,,,,,,2.537213542,2.8649,space,0.1631,0,31,31,13,1,14,image/14.jpg,0,0,,R_5NFLSVTrP1bwEtb,2,2024-05-29_19h44.19.121,face trait task,2021.2.3,MacIntel,59.88023952,120981,,,,,,,
,,,,,,2.677890625,2.1044,space,0.2236,0,32,32,12,1,13,image/13.jpg,0,0,,R_5NFLSVTrP1bwEtb,2,2024-05-29_19h44.19.121,face trait task,2021.2.3,MacIntel,59.88023952,120981,,,,,,,
,,,,,,7,3.0961,space,1.1018,0,33,33,50,1,58,image/fill_img.png,1,7,Please move the slider all the way to the RIGHT to show that you are paying attention.,R_5NFLSVTrP1bwEtb,2,2024-05-29_19h44.19.121,face trait task,2021.2.3,MacIntel,59.88023952,120981,,,,,,,
,,,,,,2.444270833,1.7553,space,0.1578,0,34,34,48,1,49,image/49.jpg,0,0,,R_5NFLSVTrP1bwEtb,2,2024-05-29_19h44.19.121,face trait task,2021.2.3,MacIntel,59.88023952,120981,,,,,,,
,,,,,,5.13609375,1.5104,space,0.2093,0,35,35,49,1,50,image/50.jpg,0,0,,R_5NFLSVTrP1bwEtb,2,2024-05-29_19h44.19.121,face trait task,2021.2.3,MacIntel,59.88023952,120981,,,,,,,
,,,,,,5.611015625,2.56,space,0.1717,0,36,36,20,1,21,image/21.jpg,0,0,,R_5NFLSVTrP1bwEtb,2,2024-05-29_19h44.19.121,face trait task,2021.2.3,MacIntel,59.88023952,120981,,,,,,,
,,,,,,4.922838542,2.0787,space,0.1472,0,37,37,25,1,26,image/26.jpg,0,0,,R_5NFLSVTrP1bwEtb,2,2024-05-29_19h44.19.121,face trait task,2021.2.3,MacIntel,59.88023952,120981,,,,,,,
,,,,,,5.388307292,0.9858,space,0.1543,0,38,38,36,1,37,image/37.jpg,0,0,,R_5NFLSVTrP1bwEtb,2,2024-05-29_19h44.19.121,face trait task,2021.2.3,MacIntel,59.88023952,120981,,,,,,,
,,,,,,2.622083333,1.3641,space,0.1807,0,39,39,27,1,28,image/28.jpg,0,0,,R_5NFLSVTrP1bwEtb,2,2024-05-29_19h44.19.121,face trait task,2021.2.3,MacIntel,59.88023952,120981,,,,,,,
,,,,,,2.622083333,0.989,space,0.2064,0,40,40,0,1,1,image/1.jpg,0,0,,R_5NFLSVTrP1bwEtb,2,2024-05-29_19h44.19.121,face trait task,2021.2.3,MacIntel,59.88023952,120981,,,,,,,
,,,,,,3.479791667,2.636,space,0.1694,0,41,41,37,1,38,image/38.jpg,0,0,,R_5NFLSVTrP1bwEtb,2,2024-05-29_19h44.19.121,face trait task,2021.2.3,MacIntel,59.88023952,120981,,,,,,,
,,,,,,3.101119792,0.9821,space,0.1824,0,42,42,31,1,32,image/32.jpg,0,0,,R_5NFLSVTrP1bwEtb,2,2024-05-29_19h44.19.121,face trait task,2021.2.3,MacIntel,59.88023952,120981,,,,,,,
,,,,,,3.03734375,1.6284,space,0.1462,0,43,43,35,1,36,image/36.jpg,0,0,,R_5NFLSVTrP1bwEtb,2,2024-05-29_19h44.19.121,face trait task,2021.2.3,MacIntel,59.88023952,120981,,,,,,,
,,,,,,4.533515625,0.9843,space,0.2044,0,44,44,8,1,9,image/9.jpg,0,0,,R_5NFLSVTrP1bwEtb,2,2024-05-29_19h44.19.121,face trait task,2021.2.3,MacIntel,59.88023952,120981,,,,,,,
,,,,,,3.910208333,1.688,space,0.2798,0,45,45,29,1,30,image/30.jpg,0,0,,R_5NFLSVTrP1bwEtb,2,2024-05-29_19h44.19.121,face trait task,2021.2.3,MacIntel,59.88023952,120981,,,,,,,
,,,,,,2.089921875,3.3248,space,0.3058,0,46,46,15,1,16,image/16.jpg,0,0,,R_5NFLSVTrP1bwEtb,2,2024-05-29_19h44.19.121,face trait task,2021.2.3,MacIntel,59.88023952,120981,,,,,,,
,,,,,,2.832552083,4.0242,space,0.1613,0,47,47,21,1,22,image/22.jpg,0,0,,R_5NFLSVTrP1bwEtb,2,2024-05-29_19h44.19.121,face trait task,2021.2.3,MacIntel,59.88023952,120981,,,,,,,
,,,,,,2.832552083,13.3857,space,0.4053,0,48,48,7,1,8,image/8.jpg,0,0,,R_5NFLSVTrP1bwEtb,2,2024-05-29_19h44.19.121,face trait task,2021.2.3,MacIntel,59.88023952,120981,,,,,,,
,,,,,,2.832552083,28.6306,space,0.1476,0,49,49,45,1,46,image/46.jpg,0,0,,R_5NFLSVTrP1bwEtb,2,2024-05-29_19h44.19.121,face trait task,2021.2.3,MacIntel,59.88023952,120981,,,,,,,
,,,,,,1.504453125,1.5037,space,0.1399,0,50,50,38,1,39,image/39.jpg,0,0,,R_5NFLSVTrP1bwEtb,2,2024-05-29_19h44.19.121,face trait task,2021.2.3,MacIntel,59.88023952,120981,,,,,,,
,,,,,,6.061588542,1.8375,space,0.3541,0,51,51,24,1,25,image/25.jpg,0,0,,R_5NFLSVTrP1bwEtb,2,2024-05-29_19h44.19.121,face trait task,2021.2.3,MacIntel,59.88023952,120981,,,,,,,
,,,,,,2.738854167,1.487,space,0.2413,0,52,52,19,1,20,image/20.jpg,0,0,,R_5NFLSVTrP1bwEtb,2,2024-05-29_19h44.19.121,face trait task,2021.2.3,MacIntel,59.88023952,120981,,,,,,,
,,,,,,,,,,,,,,,,,,,,R_5NFLSVTrP1bwEtb,2,2024-05-29_19h44.19.121,face trait task,2021.2.3,MacIntel,59.88023952,120981,0,3,3,2,1,2,trustworthy.png
