chooserow,ParID,pre_instru_resp_2.keys,pre_instru_resp_2.rt,pre_instru_resp_3.keys,pre_instru_resp_3.rt,pre_instru_resp_9.keys,pre_instru_resp_9.rt,pre_instru_resp_8.keys,pre_instru_resp_8.rt,pre_instru_resp_4.keys,pre_instru_resp_4.rt,pre_instru_resp_5.keys,pre_instru_resp_5.rt,pre_instru_resp_6.keys,pre_instru_resp_6.rt,key_resp_3.keys,key_resp_3.rt,key_resp_4.keys,key_resp_4.rt,key_resp_5.keys,key_resp_5.rt,key_resp_6.keys,key_resp_6.rt,key_resp_7.keys,key_resp_7.rt,trials_2.thisRepN,trials_2.thisTrialN,trials_2.thisN,trials_2.thisIndex,trials_2.ran,participant,session,date,expName,psychopyVersion,OS,frameRate,SONAid,pre_instru_resp.keys,pre_instru_resp.rt,clicked,judge_2.x,judge_2.y,judge_2.leftButton,judge_2.midButton,judge_2.rightButton,judge_2.clicked_name,trials.thisRepN,trials.thisTrialN,trials.thisN,trials.thisIndex,trials.ran,prac_answer,prac_dot_sti,dotlefttext,dotrighttext,prac_acc,judge.x,judge.y,judge.leftButton,judge.midButton,judge.rightButton,judge.clicked_name,clicked_guilt,slider_guilt.response,slider_guilt.rt,key_guilt.keys,key_guilt.rt,share_slider.response,share_slider.rt,key_share.keys,slider_apology.response,slider_apology.rt,key_apology.keys,slider_hide.response,slider_hide.rt,slider_forgiveness.response,slider_forgiveness.rt,key_forgiveness.keys,slider_mad.response,slider_mad.rt,trialseq.thisRepN,trialseq.thisTrialN,trialseq.thisN,trialseq.thisIndex,trialseq.ran,type_trial,stipic,DV,picture,answer,number,key_forgiveness.rt,key_share.rt,key_apology.rt,incompleteTrials,trials_redo.thisRepN,trials_redo.thisTrialN,trials_redo.thisN,trials_redo.thisIndex,trials_redo.ran
"[104,93,118,190,200,187,178,169,53,108,181,164,157,85,107,139,137,77,5,171,75,62,43,55,121,30,12,60,124,193,120,83,119,86,152,50,142,144,155,156,100,71]",R_5NFLSVTrP1bwEtb,space,20.2419,space,0.6396,space,0.4298,space,0.1823,space,0.1499,space,30.8639,space,0.555,2,1.8456,3,3.0773,2,0.8038,2,1.0769,2,0.5083,0,0,0,0,1,R_5NFLSVTrP1bwEtb,1,2024-05-29_19h27.37.718,interaction task,2021.2.3,MacIntel,60.24096386,120981,,,,,,,,,,,,,,,,,,,,,,,,,,,,,,,,,,,,,,,,,,,,,,,,,,,,,,,,,,,,,,,
,,,,space,2.6872,space,7.0891,space,13.187,space,0.8019,space,3.4209,space,3.5215,3,3.0729,1,7.1161,3,11.5698,1,9.0505,3,5.1356,1,0,1,0,1,R_5NFLSVTrP1bwEtb,1,2024-05-29_19h27.37.718,interaction task,2021.2.3,MacIntel,60.24096386,120981,,,,,,,,,,,,,,,,,,,,,,,,,,,,,,,,,,,,,,,,,,,,,,,,,,,,,,,,,,,,,,,
,,,,space,0.8944,space,0.3773,space,2.7189,space,25.3188,space,50.8673,space,0.5229,3,2.227,1,4.1527,3,4.3063,2,16.345,2,5.8713,2,0,2,0,1,R_5NFLSVTrP1bwEtb,1,2024-05-29_19h27.37.718,interaction task,2021.2.3,MacIntel,60.24096386,120981,,,,,,,,,,,,,,,,,,,,,,,,,,,,,,,,,,,,,,,,,,,,,,,,,,,,,,,,,,,,,,,
,,,,,,,,,,,,,,,,,,,,,,,,,,,,,,,R_5NFLSVTrP1bwEtb,1,2024-05-29_19h27.37.718,interaction task,2021.2.3,MacIntel,60.24096386,120981,space,1.1017,"[""RightButton_2""]",0.338183594,-0.293854167,1,0,0,RightButton_2,0,0,0,1,1,LeftButton_2,11dot2.png,Greater,Smaller,,,,,,,,,,,,,,,,,,,,,,,,,,,,,,,,,,,,,,,,,,,,,
,,,,,,,,,,,,,,,,,,,,,,,,,,,,,,,R_5NFLSVTrP1bwEtb,1,2024-05-29_19h27.37.718,interaction task,2021.2.3,MacIntel,60.24096386,120981,,,"[""LeftButton_2""]",-0.259971788,-0.312907986,1,0,0,LeftButton_2,0,1,1,2,1,LeftButton_2,11dot2.png,Greater,Smaller,,,,,,,,,,,,,,,,,,,,,,,,,,,,,,,,,,,,,,,,,,,,,
,,,,,,,,,,,,,,,,,,,,,,,,,,,,,,,R_5NFLSVTrP1bwEtb,1,2024-05-29_19h27.37.718,interaction task,2021.2.3,MacIntel,60.24096386,120981,,,"[""RightButton_2""]",0.312402344,-0.335130208,1,0,0,RightButton_2,0,2,2,0,1,LeftButton_2,11dot1.png,Greater,Smaller,,,,,,,,,,,,,,,,,,,,,,,,,,,,,,,,,,,,,,,,,,,,,
,,,,,,,,,,,,,,,,,,,,,,,,,,,,,,,R_5NFLSVTrP1bwEtb,1,2024-05-29_19h27.37.718,interaction task,2021.2.3,MacIntel,60.24096386,120981,,,,,,,,,,,,,,,,,Smaller,Greater,0.2,-0.296674262,-0.481840278,1,0,0,LeftButton,"[""LeftButton""]",9,3.1937,space,1.1065,,,,,,,,,,,,,,0,0,0,0,1,2,only_sub_right.png,0,RandomDot29.png,No answer,20,,,,,,,,,
,,,,,,,,,,,,,,,,,,,,,,,,,,,,,,,R_5NFLSVTrP1bwEtb,1,2024-05-29_19h27.37.718,interaction task,2021.2.3,MacIntel,60.24096386,120981,,,,,,,,,,,,,,,,,Smaller,Greater,,0.263373481,-0.519392361,1,0,0,RightButton,"[""RightButton""]",,,,,,,,,,,,,43.5953502,1.8059,space,75.14621037,2.9131,0,1,1,1,1,1,both_wrong.png,3,RandomDot12.png,No answer,21,0.2123,,,,,,,,
,,,,,,,,,,,,,,,,,,,,,,,,,,,,,,,R_5NFLSVTrP1bwEtb,1,2024-05-29_19h27.37.718,interaction task,2021.2.3,MacIntel,60.24096386,120981,,,,,,,,,,,,,,,,,Smaller,Greater,,-0.309407552,-0.524548611,1,0,0,LeftButton,"[""LeftButton""]",,,,,3.039388021,1.1755,space,,,,,,,,,,,0,2,2,2,1,2,only_sub_right.png,1,RandomDot34.png,No answer,19,,0.9195,,,,,,,
,,,,,,,,,,,,,,,,,,,,,,,,,,,,,,,R_5NFLSVTrP1bwEtb,1,2024-05-29_19h27.37.718,interaction task,2021.2.3,MacIntel,60.24096386,120981,,,,,,,,,,,,,,,,,Smaller,Greater,,0.319004991,-0.523116319,1,0,0,RightButton,"[""RightButton""]",,,,,,,,,,,,,38.15301452,2.6599,space,22.96861848,4.4604,0,3,3,3,1,3,only_sub_wrong.png,3,RandomDot7.png,No answer,19,0.7938,,,,,,,,
,,,,,,,,,,,,,,,,,,,,,,,,,,,,,,,R_5NFLSVTrP1bwEtb,1,2024-05-29_19h27.37.718,interaction task,2021.2.3,MacIntel,60.24096386,120981,,,,,,,,,,,,,,,,,Greater,Smaller,,0.248882378,-0.545130208,1,0,0,RightButton,"[""RightButton""]",,,,,,,,,,,,,,,,,,0,4,4,4,1,5,both_right.png,10,RandomDot42.png,RightButton,20,,,,,,,,,
,,,,,,,,,,,,,,,,,,,,,,,,,,,,,,,R_5NFLSVTrP1bwEtb,1,2024-05-29_19h27.37.718,interaction task,2021.2.3,MacIntel,60.24096386,120981,,,,,,,,,,,,,,,,,Smaller,Greater,,-0.332400174,-0.483446181,1,0,0,LeftButton,"[""LeftButton""]",,,,,,,,,,,,,38.5355289,1.2724,space,74.00633944,2.1474,0,5,5,5,1,3,only_sub_wrong.png,3,RandomDot18.png,No answer,21,0.3735,,,,,,,,
,,,,,,,,,,,,,,,,,,,,,,,,,,,,,,,R_5NFLSVTrP1bwEtb,1,2024-05-29_19h27.37.718,interaction task,2021.2.3,MacIntel,60.24096386,120981,,,,,,,,,,,,,,,,,Smaller,Greater,,-0.269656033,-0.509088542,1,0,0,LeftButton,"[""LeftButton""]",,,,,,,,33,1.4525,space,24,2.7157,,,,,,0,6,6,6,1,3,only_sub_wrong.png,2,RandomDot22.png,No answer,19,,,0.9441,,,,,,
,,,,,,,,,,,,,,,,,,,,,,,,,,,,,,,R_5NFLSVTrP1bwEtb,1,2024-05-29_19h27.37.718,interaction task,2021.2.3,MacIntel,60.24096386,120981,,,,,,,,,,,,,,,,,Greater,Smaller,,0.240576172,-0.487126736,1,0,0,RightButton,"[""RightButton""]",,,,,,,,62,2.4155,space,72,3.3425,,,,,,0,7,7,7,1,3,only_sub_wrong.png,2,RandomDot1.png,No answer,20,,,0.8713,,,,,,
,,,,,,,,,,,,,,,,,,,,,,,,,,,,,,,R_5NFLSVTrP1bwEtb,1,2024-05-29_19h27.37.718,interaction task,2021.2.3,MacIntel,60.24096386,120981,,,,,,,,,,,,,,,,,Greater,Smaller,,0.325390625,-0.483342014,1,0,0,RightButton,"[""RightButton""]",35,1.8393,space,0.6193,,,,,,,,,,,,,,0,8,8,8,1,1,both_wrong.png,0,RandomDot32.png,No answer,19,,,,,,,,,
,,,,,,,,,,,,,,,,,,,,,,,,,,,,,,,R_5NFLSVTrP1bwEtb,1,2024-05-29_19h27.37.718,interaction task,2021.2.3,MacIntel,60.24096386,120981,,,,,,,,,,,,,,,,,Greater,Smaller,,0.235736762,-0.513663194,1,0,0,RightButton,"[""RightButton""]",,,,,0.049994575,1.6647,space,,,,,,,,,,,0,9,9,9,1,2,only_sub_right.png,1,RandomDot3.png,No answer,20,,0.938,,,,,,,
,,,,,,,,,,,,,,,,,,,,,,,,,,,,,,,R_5NFLSVTrP1bwEtb,1,2024-05-29_19h27.37.718,interaction task,2021.2.3,MacIntel,60.24096386,120981,,,,,,,,,,,,,,,,,Greater,Smaller,,0.350531684,-0.494513889,1,0,0,RightButton,"[""RightButton""]",,,,,,,,,,,,,32.93207684,3.9932,space,68.59633663,5.1516,0,10,10,10,1,3,only_sub_wrong.png,3,RandomDot3.png,No answer,19,0.3568,,,,,,,,
,,,,,,,,,,,,,,,,,,,,,,,,,,,,,,,R_5NFLSVTrP1bwEtb,1,2024-05-29_19h27.37.718,interaction task,2021.2.3,MacIntel,60.24096386,120981,,,,,,,,,,,,,,,,,Smaller,Greater,,0.265386285,-0.515147569,1,0,0,RightButton,"[""RightButton""]",,,,,2.094021267,2.0085,space,,,,,,,,,,,0,11,11,11,1,3,only_sub_wrong.png,1,RandomDot40.png,No answer,19,,0.638,,,,,,,
,,,,,,,,,,,,,,,,,,,,,,,,,,,,,,,R_5NFLSVTrP1bwEtb,1,2024-05-29_19h27.37.718,interaction task,2021.2.3,MacIntel,60.24096386,120981,,,,,,,,,,,,,,,,,Greater,Smaller,,0.32428928,-0.509045139,1,0,0,RightButton,"[""RightButton""]",,,,,1.910129123,4.2378,space,,,,,,,,,,,0,12,12,12,1,3,only_sub_wrong.png,1,RandomDot8.png,No answer,21,,0.6391,,,,,,,
,,,,,,,,,,,,,,,,,,,,,,,,,,,,,,,R_5NFLSVTrP1bwEtb,1,2024-05-29_19h27.37.718,interaction task,2021.2.3,MacIntel,60.24096386,120981,,,,,,,,,,,,,,,,,Greater,Smaller,,-0.267154948,-0.500885417,1,0,0,LeftButton,"[""LeftButton""]",,,,,,,,,,,,,44.13130875,1.012,space,80.31125053,1.6566,0,13,13,13,1,1,both_wrong.png,3,RandomDot40.png,No answer,21,0.3045,,,,,,,,
,,,,,,,,,,,,,,,,,,,,,,,,,,,,,,,R_5NFLSVTrP1bwEtb,1,2024-05-29_19h27.37.718,interaction task,2021.2.3,MacIntel,60.24096386,120981,,,,,,,,,,,,,,,,,Smaller,Greater,,0.301671007,-0.469774306,1,0,0,RightButton,"[""RightButton""]",6,2.4529,space,1.3237,,,,,,,,,,,,,,0,14,14,14,1,2,only_sub_right.png,0,RandomDot37.png,No answer,21,,,,,,,,,
,,,,,,,,,,,,,,,,,,,,,,,,,,,,,,,R_5NFLSVTrP1bwEtb,1,2024-05-29_19h27.37.718,interaction task,2021.2.3,MacIntel,60.24096386,120981,,,,,,,,,,,,,,,,,Smaller,Greater,,0.268771701,-0.526475694,1,0,0,RightButton,"[""RightButton""]",,,,,,,,,,,,,23.49800084,3.7014,space,72.50477869,4.6007,0,15,15,15,1,2,only_sub_right.png,3,RandomDot30.png,No answer,20,0.15,,,,,,,,
,,,,,,,,,,,,,,,,,,,,,,,,,,,,,,,R_5NFLSVTrP1bwEtb,1,2024-05-29_19h27.37.718,interaction task,2021.2.3,MacIntel,60.24096386,120981,,,,,,,,,,,,,,,,,Greater,Smaller,,-0.290071615,-0.501119792,1,0,0,LeftButton,"[""LeftButton""]",,,,,,,,,,,,,46.1381392,1.0568,space,52.95380015,1.9101,0,16,16,16,1,2,only_sub_right.png,3,RandomDot23.png,No answer,20,1.3271,,,,,,,,
,,,,,,,,,,,,,,,,,,,,,,,,,,,,,,,R_5NFLSVTrP1bwEtb,1,2024-05-29_19h27.37.718,interaction task,2021.2.3,MacIntel,60.24096386,120981,,,,,,,,,,,,,,,,,Greater,Smaller,,-0.006325955,-0.365833333,0,0,0,,[],,,,,,,,,,,,,,,,,,0,17,17,17,1,1,both_wrong.png,2,RandomDot13.png,No answer,21,,,,77,,,,,
,,,,,,,,,,,,,,,,,,,,,,,,,,,,,,,R_5NFLSVTrP1bwEtb,1,2024-05-29_19h27.37.718,interaction task,2021.2.3,MacIntel,60.24096386,120981,,,,,,,,,,,,,,,,,Greater,Smaller,,0.260210503,-0.494244792,1,0,0,RightButton,"[""RightButton""]",,,,,,,,,,,,,,,,,,0,18,18,18,1,0,both_right.png,0,RandomDot2.png,No answer,19,,,,,,,,,
,,,,,,,,,,,,,,,,,,,,,,,,,,,,,,,R_5NFLSVTrP1bwEtb,1,2024-05-29_19h27.37.718,interaction task,2021.2.3,MacIntel,60.24096386,120981,,,,,,,,,,,,,,,,,Greater,Smaller,,-0.253515625,-0.4765625,1,0,0,LeftButton,"[""LeftButton""]",,,,,,,,45,1.2635,space,62,2.1647,,,,,,0,19,19,19,1,3,only_sub_wrong.png,2,RandomDot23.png,No answer,20,,,3.8862,,,,,,
,,,,,,,,,,,,,,,,,,,,,,,,,,,,,,,R_5NFLSVTrP1bwEtb,1,2024-05-29_19h27.37.718,interaction task,2021.2.3,MacIntel,60.24096386,120981,,,,,,,,,,,,,,,,,Greater,Smaller,,0.15054796,-0.495850694,0,0,0,,[],,,,,,,,,,,,,,,,,,0,20,20,20,1,1,both_wrong.png,2,RandomDot10.png,No answer,20,,,,75,,,,,
,,,,,,,,,,,,,,,,,,,,,,,,,,,,,,,R_5NFLSVTrP1bwEtb,1,2024-05-29_19h27.37.718,interaction task,2021.2.3,MacIntel,60.24096386,120981,,,,,,,,,,,,,,,,,Greater,Smaller,,0.307107205,-0.591605903,0,0,0,,[],,,,,,,,,,,,,,,,,,0,21,21,21,1,1,both_wrong.png,1,RandomDot28.png,No answer,21,,,,62,,,,,
,,,,,,,,,,,,,,,,,,,,,,,,,,,,,,,R_5NFLSVTrP1bwEtb,1,2024-05-29_19h27.37.718,interaction task,2021.2.3,MacIntel,60.24096386,120981,,,,,,,,,,,,,,,,,Smaller,Greater,,-0.262982856,-0.484835069,1,0,0,LeftButton,"[""LeftButton""]",,,,,,,,,,,,,,,,,,0,22,22,22,1,0,both_right.png,3,RandomDot3.png,No answer,21,,,,,,,,,
,,,,,,,,,,,,,,,,,,,,,,,,,,,,,,,R_5NFLSVTrP1bwEtb,1,2024-05-29_19h27.37.718,interaction task,2021.2.3,MacIntel,60.24096386,120981,,,,,,,,,,,,,,,,,Smaller,Greater,,-0.222412109,-0.514071181,1,0,0,LeftButton,"[""LeftButton""]",54,12.2256,space,1.557,,,,,,,,,,,,,,0,23,23,23,1,1,both_wrong.png,0,RandomDot28.png,No answer,19,,,,,,,,,
,,,,,,,,,,,,,,,,,,,,,,,,,,,,,,,R_5NFLSVTrP1bwEtb,1,2024-05-29_19h27.37.718,interaction task,2021.2.3,MacIntel,60.24096386,120981,,,,,,,,,,,,,,,,,Greater,Smaller,,0.253634983,-0.533958333,1,0,0,RightButton,"[""RightButton""]",,,,,,,,38,2.144,space,58,1.4349,,,,,,0,24,24,24,1,2,only_sub_right.png,2,RandomDot18.png,No answer,19,,,0.909,,,,,,
,,,,,,,,,,,,,,,,,,,,,,,,,,,,,,,R_5NFLSVTrP1bwEtb,1,2024-05-29_19h27.37.718,interaction task,2021.2.3,MacIntel,60.24096386,120981,,,,,,,,,,,,,,,,,Smaller,Greater,,0.324679905,-0.481015625,1,0,0,RightButton,"[""RightButton""]",,,,,,,,,,,,,,,,,,0,25,25,25,1,0,both_right.png,2,RandomDot24.png,No answer,21,,,,,,,,,
,,,,,,,,,,,,,,,,,,,,,,,,,,,,,,,R_5NFLSVTrP1bwEtb,1,2024-05-29_19h27.37.718,interaction task,2021.2.3,MacIntel,60.24096386,120981,,,,,,,,,,,,,,,,,Greater,Smaller,,-0.251540799,-0.503289931,1,0,0,LeftButton,"[""LeftButton""]",,,,,,,,,,,,,,,,,,0,26,26,26,1,0,both_right.png,1,RandomDot30.png,No answer,20,,,,,,,,,
,,,,,,,,,,,,,,,,,,,,,,,,,,,,,,,R_5NFLSVTrP1bwEtb,1,2024-05-29_19h27.37.718,interaction task,2021.2.3,MacIntel,60.24096386,120981,,,,,,,,,,,,,,,,,Greater,Smaller,,0.315342882,-0.535555556,1,0,0,RightButton,"[""RightButton""]",,,,,2.01304796,1.7497,space,,,,,,,,,,,0,27,27,27,1,1,both_wrong.png,1,RandomDot13.png,No answer,19,,0.8226,,,,,,,
,,,,,,,,,,,,,,,,,,,,,,,,,,,,,,,R_5NFLSVTrP1bwEtb,1,2024-05-29_19h27.37.718,interaction task,2021.2.3,MacIntel,60.24096386,120981,,,,,,,,,,,,,,,,,Greater,Smaller,,0.116238064,-0.483289931,0,0,0,,[],,,,,,,,,,,,,,,,,,0,28,28,28,1,2,only_sub_right.png,2,RandomDot20.png,No answer,20,,,,124,,,,,
,,,,,,,,,,,,,,,,,,,,,,,,,,,,,,,R_5NFLSVTrP1bwEtb,1,2024-05-29_19h27.37.718,interaction task,2021.2.3,MacIntel,60.24096386,120981,,,,,,,,,,,,,,,,,Greater,Smaller,,-0.385167101,-0.521215278,1,0,0,LeftButton,"[""LeftButton""]",,,,,,,,,,,,,,,,,,0,29,29,29,1,4,both_right.png,10,RandomDot41.png,LeftButton,5,,,,,,,,,
,,,,,,,,,,,,,,,,,,,,,,,,,,,,,,,R_5NFLSVTrP1bwEtb,1,2024-05-29_19h27.37.718,interaction task,2021.2.3,MacIntel,60.24096386,120981,,,,,,,,,,,,,,,,,Greater,Smaller,,-0.294227431,-0.525434028,1,0,0,LeftButton,"[""LeftButton""]",,,,,,,,52,1.6807,space,58,2.3495,,,,,,0,30,30,30,1,2,only_sub_right.png,2,RandomDot21.png,No answer,21,,,0.5179,,,,,,
,,,,,,,,,,,,,,,,,,,,,,,,,,,,,,,R_5NFLSVTrP1bwEtb,1,2024-05-29_19h27.37.718,interaction task,2021.2.3,MacIntel,60.24096386,120981,,,,,,,,,,,,,,,,,Smaller,Greater,,0.313932292,-0.509713542,1,0,0,RightButton,"[""RightButton""]",,,,,,,,70,3.8753,space,38,4.5594,,,,,,0,31,31,31,1,1,both_wrong.png,2,RandomDot8.png,No answer,20,,,0.4587,,,,,,
,,,,,,,,,,,,,,,,,,,,,,,,,,,,,,,R_5NFLSVTrP1bwEtb,1,2024-05-29_19h27.37.718,interaction task,2021.2.3,MacIntel,60.24096386,120981,,,,,,,,,,,,,,,,,Smaller,Greater,,0.313226997,-0.483993056,1,0,0,RightButton,"[""RightButton""]",,,,,2.991183811,5.5862,space,,,,,,,,,,,0,32,32,32,1,2,only_sub_right.png,1,RandomDot38.png,No answer,19,,0.6293,,,,,,,
,,,,,,,,,,,,,,,,,,,,,,,,,,,,,,,R_5NFLSVTrP1bwEtb,1,2024-05-29_19h27.37.718,interaction task,2021.2.3,MacIntel,60.24096386,120981,,,,,,,,,,,,,,,,,Greater,Smaller,,0.290565321,-0.515190972,1,0,0,RightButton,"[""RightButton""]",,,,,,,,,,,,,43.28407776,1.608,space,72.24830773,2.226,0,33,33,33,1,1,both_wrong.png,3,RandomDot13.png,No answer,21,0.2683,,,,,,,,
,,,,,,,,,,,,,,,,,,,,,,,,,,,,,,,R_5NFLSVTrP1bwEtb,1,2024-05-29_19h27.37.718,interaction task,2021.2.3,MacIntel,60.24096386,120981,,,,,,,,,,,,,,,,,Smaller,Greater,,0.332628038,-0.542890625,1,0,0,RightButton,"[""RightButton""]",58,1.6262,space,0.5741,,,,,,,,,,,,,,0,34,34,34,1,3,only_sub_wrong.png,0,RandomDot9.png,No answer,19,,,,,,,,,
,,,,,,,,,,,,,,,,,,,,,,,,,,,,,,,R_5NFLSVTrP1bwEtb,1,2024-05-29_19h27.37.718,interaction task,2021.2.3,MacIntel,60.24096386,120981,,,,,,,,,,,,,,,,,Greater,Smaller,,-0.207052951,-0.475954861,1,0,0,LeftButton,"[""LeftButton""]",66,1.794,space,0.5003,,,,,,,,,,,,,,0,35,35,35,1,1,both_wrong.png,0,RandomDot12.png,No answer,21,,,,,,,,,
,,,,,,,,,,,,,,,,,,,,,,,,,,,,,,,R_5NFLSVTrP1bwEtb,1,2024-05-29_19h27.37.718,interaction task,2021.2.3,MacIntel,60.24096386,120981,,,,,,,,,,,,,,,,,Smaller,Greater,,-0.371788194,-0.539748264,1,0,0,LeftButton,"[""LeftButton""]",,,,,,,,,,,,,51.24508979,1.7019,space,64.71419928,2.4338,0,36,36,36,1,2,only_sub_right.png,3,RandomDot18.png,No answer,20,0.1554,,,,,,,,
,,,,,,,,,,,,,,,,,,,,,,,,,,,,,,,R_5NFLSVTrP1bwEtb,1,2024-05-29_19h27.37.718,interaction task,2021.2.3,MacIntel,60.24096386,120981,,,,,,,,,,,,,,,,,Greater,Smaller,,0.263156467,-0.504809028,1,0,0,RightButton,"[""RightButton""]",40,6.9932,space,1.1236,,,,,,,,,,,,,,0,37,37,37,1,3,only_sub_wrong.png,0,RandomDot33.png,No answer,19,,,,,,,,,
,,,,,,,,,,,,,,,,,,,,,,,,,,,,,,,R_5NFLSVTrP1bwEtb,1,2024-05-29_19h27.37.718,interaction task,2021.2.3,MacIntel,60.24096386,120981,,,,,,,,,,,,,,,,,Smaller,Greater,,-0.268907335,-0.475677083,1,0,0,LeftButton,"[""LeftButton""]",51,6.1468,space,0.6729,,,,,,,,,,,,,,0,38,38,38,1,3,only_sub_wrong.png,0,RandomDot2.png,No answer,20,,,,,,,,,
,,,,,,,,,,,,,,,,,,,,,,,,,,,,,,,R_5NFLSVTrP1bwEtb,1,2024-05-29_19h27.37.718,interaction task,2021.2.3,MacIntel,60.24096386,120981,,,,,,,,,,,,,,,,,Greater,Smaller,,-0.311420356,-0.522682292,1,0,0,LeftButton,"[""LeftButton""]",,,,,3.724934896,2.3806,space,,,,,,,,,,,0,39,39,39,1,3,only_sub_wrong.png,1,RandomDot4.png,No answer,20,,1.3309,,,,,,,
,,,,,,,,,,,,,,,,,,,,,,,,,,,,,,,R_5NFLSVTrP1bwEtb,1,2024-05-29_19h27.37.718,interaction task,2021.2.3,MacIntel,60.24096386,120981,,,,,,,,,,,,,,,,,Greater,Smaller,,-0.271321615,-0.489045139,1,0,0,LeftButton,"[""LeftButton""]",32,3.1955,space,0.8906,,,,,,,,,,,,,,0,40,40,40,1,2,only_sub_right.png,0,RandomDot33.png,No answer,21,,,,,,,,,
,,,,,,,,,,,,,,,,,,,,,,,,,,,,,,,R_5NFLSVTrP1bwEtb,1,2024-05-29_19h27.37.718,interaction task,2021.2.3,MacIntel,60.24096386,120981,,,,,,,,,,,,,,,,,Smaller,Greater,,0.262413194,-0.460052083,1,0,0,RightButton,"[""RightButton""]",,,,,2.954128689,4.602,space,,,,,,,,,,,0,41,41,41,1,1,both_wrong.png,1,RandomDot14.png,No answer,20,,0.5872,,,,,,,
,,,,,,,,,,,,,,,,,,,,,,,,,,,,,,,R_5NFLSVTrP1bwEtb,1,2024-05-29_19h27.37.718,interaction task,2021.2.3,MacIntel,60.24096386,120981,,,,,,,,,,,,,,,,,Greater,Smaller,,0.281987847,-0.540104167,1,0,0,RightButton,"[""RightButton""]",,,,,,,,59,7.9025,space,63,8.6485,,,,,,,,,,,1,both_wrong.png,2,RandomDot13.png,No answer,21,,,0.173,,0,0,0,0,1
,,,,,,,,,,,,,,,,,,,,,,,,,,,,,,,R_5NFLSVTrP1bwEtb,1,2024-05-29_19h27.37.718,interaction task,2021.2.3,MacIntel,60.24096386,120981,,,,,,,,,,,,,,,,,Greater,Smaller,,0.133327908,-0.304774306,0,0,0,,[],,,,,,,,,,,,,,,,,,,,,,,2,only_sub_right.png,2,RandomDot20.png,No answer,20,,,,71,0,1,1,3,1
,,,,,,,,,,,,,,,,,,,,,,,,,,,,,,,R_5NFLSVTrP1bwEtb,1,2024-05-29_19h27.37.718,interaction task,2021.2.3,MacIntel,60.24096386,120981,,,,,,,,,,,,,,,,,Greater,Smaller,,0.329692925,-0.489001736,1,0,0,RightButton,"[""RightButton""]",,,,,3.031684028,3.075,space,,,,,,,,,,,,,,,,1,both_wrong.png,1,RandomDot28.png,No answer,21,,3.2392,,,0,2,2,2,1
,,,,,,,,,,,,,,,,,,,,,,,,,,,,,,,R_5NFLSVTrP1bwEtb,1,2024-05-29_19h27.37.718,interaction task,2021.2.3,MacIntel,60.24096386,120981,,,,,,,,,,,,,,,,,Greater,Smaller,,0.022531467,-0.326475694,0,0,0,,[],,,,,,,,,,,,,,,,,,,,,,,1,both_wrong.png,2,RandomDot10.png,No answer,20,,,,71,0,3,3,1,1
