chooserow,ParID,pre_instru_resp_2.keys,pre_instru_resp_2.rt,pre_instru_resp_3.keys,pre_instru_resp_3.rt,pre_instru_resp_9.keys,pre_instru_resp_9.rt,pre_instru_resp_8.keys,pre_instru_resp_8.rt,pre_instru_resp_4.keys,pre_instru_resp_4.rt,pre_instru_resp_5.keys,pre_instru_resp_5.rt,pre_instru_resp_6.keys,pre_instru_resp_6.rt,key_resp_3.keys,key_resp_3.rt,key_resp_4.keys,key_resp_4.rt,key_resp_5.keys,key_resp_5.rt,key_resp_6.keys,key_resp_6.rt,key_resp_7.keys,key_resp_7.rt,trials_2.thisRepN,trials_2.thisTrialN,trials_2.thisN,trials_2.thisIndex,trials_2.ran,participant,session,date,expName,psychopyVersion,OS,frameRate,SONAid,pre_instru_resp.keys,pre_instru_resp.rt,clicked,judge_2.x,judge_2.y,judge_2.leftButton,judge_2.midButton,judge_2.rightButton,trials.thisRepN,trials.thisTrialN,trials.thisN,trials.thisIndex,trials.ran,prac_answer,prac_dot_sti,dotlefttext,dotrighttext,judge_2.clicked_name,prac_acc,judge.x,judge.y,judge.leftButton,judge.midButton,judge.rightButton,judge.clicked_name,clicked_guilt,slider_guilt.response,slider_guilt.rt,key_guilt.keys,share_slider.response,share_slider.rt,key_share.keys,slider_apology.response,slider_apology.rt,key_apology.keys,slider_hide.response,slider_hide.rt,slider_forgiveness.response,slider_forgiveness.rt,key_forgiveness.keys,key_forgiveness.rt,slider_mad.response,slider_mad.rt,trialseq.thisRepN,trialseq.thisTrialN,trialseq.thisN,trialseq.thisIndex,trialseq.ran,type_trial,stipic,DV,picture,answer,number,key_apology.rt,key_guilt.rt,key_share.rt,incompleteTrials,trials_redo.thisRepN,trials_redo.thisTrialN,trials_redo.thisN,trials_redo.thisIndex,trials_redo.ran
"[137,83,94,47,79,56,76,173,69,124,142,117,52,150,157,55,62,113,122,182,92,168,178,95,201,163,159,148,140,184,104,98,191,195,154,67,102,131,24,22,112,3]",R_5Oxl4uaiGfTi56L,space,1.519,space,6.6437,space,16.4366,space,28.7224,space,55.7445,space,13.7316,space,5.2531,1,12.4237,1,12.2005,3,18.9982,2,23.6789,3,5.432,0,0,0,0,1,R_5Oxl4uaiGfTi56L,1,2024-05-30_11h25.47.071,interaction task,2021.2.3,MacIntel,56.17977528,120513,,,,,,,,,,,,,,,,,,,,,,,,,,,,,,,,,,,,,,,,,,,,,,,,,,,,,,,,,,,,,,,
,,,,space,1.5614,space,3.8169,space,5.2833,space,58.8115,space,2.7707,space,1.1343,3,5.6878,1,3.765,3,9.4492,1,11.9575,3,2.4816,1,0,1,0,1,R_5Oxl4uaiGfTi56L,1,2024-05-30_11h25.47.071,interaction task,2021.2.3,MacIntel,56.17977528,120513,,,,,,,,,,,,,,,,,,,,,,,,,,,,,,,,,,,,,,,,,,,,,,,,,,,,,,,,,,,,,,,
,,,,space,0.5689,space,0.2423,space,0.2406,space,0.1346,space,0.3334,space,0.356,3,4.0023,1,3.0668,3,3.0326,2,12.2214,2,12.7359,2,0,2,0,1,R_5Oxl4uaiGfTi56L,1,2024-05-30_11h25.47.071,interaction task,2021.2.3,MacIntel,56.17977528,120513,,,,,,,,,,,,,,,,,,,,,,,,,,,,,,,,,,,,,,,,,,,,,,,,,,,,,,,,,,,,,,,
,,,,,,,,,,,,,,,,,,,,,,,,,,,,,,,R_5Oxl4uaiGfTi56L,1,2024-05-30_11h25.47.071,interaction task,2021.2.3,MacIntel,56.17977528,120513,space,6.0614,[],-0.267766232,-0.288925374,0,0,0,0,0,0,2,1,LeftButton_2,11dot1.png,Greater,Smaller,,,,,,,,,,,,,,,,,,,,,,,,,,,,,,,,,,,,,,,,,,,,,,
,,,,,,,,,,,,,,,,,,,,,,,,,,,,,,,R_5Oxl4uaiGfTi56L,1,2024-05-30_11h25.47.071,interaction task,2021.2.3,MacIntel,56.17977528,120513,,,"[""RightButton_2""]",0.26849077,-0.305097114,1,0,0,0,1,1,1,1,RightButton_2,11dot2.png,Smaller,Greater,RightButton_2,,,,,,,,,,,,,,,,,,,,,,,,,,,,,,,,,,,,,,,,,,,,,
,,,,,,,,,,,,,,,,,,,,,,,,,,,,,,,R_5Oxl4uaiGfTi56L,1,2024-05-30_11h25.47.071,interaction task,2021.2.3,MacIntel,56.17977528,120513,,,"[""LeftButton_2""]",-0.279794057,-0.266494412,1,0,0,0,2,2,0,1,RightButton_2,9dot1.png,Greater,Smaller,LeftButton_2,,,,,,,,,,,,,,,,,,,,,,,,,,,,,,,,,,,,,,,,,,,,,
,,,,,,,,,,,,,,,,,,,,,,,,,,,,,,,R_5Oxl4uaiGfTi56L,1,2024-05-30_11h25.47.071,interaction task,2021.2.3,MacIntel,56.17977528,120513,,,,,,,,,,,,,,,,Greater,Smaller,,0.2,0.268658362,-0.534275309,1,0,0,RightButton,"[""RightButton""]",,,,,,,,,,,,90.11068976,12.6913,space,1.9399,0.038999821,17.1175,0,0,0,0,1,2,only_sub_right.png,3,RandomDot23.png,No answer,20,,,,,,,,,
,,,,,,,,,,,,,,,,,,,,,,,,,,,,,,,R_5Oxl4uaiGfTi56L,1,2024-05-30_11h25.47.071,interaction task,2021.2.3,MacIntel,56.17977528,120513,,,,,,,,,,,,,,,,Smaller,Greater,,,-0.289497164,-0.507744412,1,0,0,LeftButton,"[""LeftButton""]",,,,,,,0,12.5914,space,99,16.8139,,,,,,,0,1,1,1,1,1,both_wrong.png,2,RandomDot8.png,No answer,20,1.0336,,,,,,,,
,,,,,,,,,,,,,,,,,,,,,,,,,,,,,,,R_5Oxl4uaiGfTi56L,1,2024-05-30_11h25.47.071,interaction task,2021.2.3,MacIntel,56.17977528,120513,,,,,,,,,,,,,,,,Smaller,Greater,,,-0.25637953,-0.518783366,1,0,0,LeftButton,"[""LeftButton""]",,,,,,,,,,,,98.59612633,5.3811,space,0.6512,0.084211048,8.9632,0,2,2,2,1,1,both_wrong.png,3,RandomDot25.png,No answer,21,,,,,,,,,
,,,,,,,,,,,,,,,,,,,,,,,,,,,,,,,R_5Oxl4uaiGfTi56L,1,2024-05-30_11h25.47.071,interaction task,2021.2.3,MacIntel,56.17977528,120513,,,,,,,,,,,,,,,,Smaller,Greater,,,0.256704542,-0.504683567,1,0,0,RightButton,"[""RightButton""]",,,,,,,,,,,,,,,,,,0,3,3,3,1,0,both_right.png,3,RandomDot13.png,No answer,19,,,,,,,,,
,,,,,,,,,,,,,,,,,,,,,,,,,,,,,,,R_5Oxl4uaiGfTi56L,1,2024-05-30_11h25.47.071,interaction task,2021.2.3,MacIntel,56.17977528,120513,,,,,,,,,,,,,,,,Smaller,Greater,,,0.286146884,-0.477511258,1,0,0,RightButton,"[""RightButton""]",,,,,,,0,3.719,space,100,5.3146,,,,,,,0,4,4,4,1,1,both_wrong.png,2,RandomDot24.png,No answer,21,0.8913,,,,,,,,
,,,,,,,,,,,,,,,,,,,,,,,,,,,,,,,R_5Oxl4uaiGfTi56L,1,2024-05-30_11h25.47.071,interaction task,2021.2.3,MacIntel,56.17977528,120513,,,,,,,,,,,,,,,,Smaller,Greater,,,0.276365831,-0.513100722,1,0,0,RightButton,"[""RightButton""]",0,3.0616,space,,,,,,,,,,,,,,,0,5,5,5,1,1,both_wrong.png,0,RandomDot39.png,No answer,21,,0.9405,,,,,,,
,,,,,,,,,,,,,,,,,,,,,,,,,,,,,,,R_5Oxl4uaiGfTi56L,1,2024-05-30_11h25.47.071,interaction task,2021.2.3,MacIntel,56.17977528,120513,,,,,,,,,,,,,,,,Greater,Smaller,,,-0.288224114,-0.538876953,1,0,0,LeftButton,"[""LeftButton""]",,,,,,,0,4.1957,space,99,6.1847,,,,,,,0,6,6,6,1,1,both_wrong.png,2,RandomDot9.png,No answer,21,0.8072,,,,,,,,
,,,,,,,,,,,,,,,,,,,,,,,,,,,,,,,R_5Oxl4uaiGfTi56L,1,2024-05-30_11h25.47.071,interaction task,2021.2.3,MacIntel,56.17977528,120513,,,,,,,,,,,,,,,,Greater,Smaller,,,-0.243380653,-0.489911974,1,0,0,LeftButton,"[""LeftButton""]",,,,,,,0,3.8341,space,100,5.2651,,,,,,,0,7,7,7,1,3,only_sub_wrong.png,2,RandomDot20.png,No answer,19,0.7593,,,,,,,,
,,,,,,,,,,,,,,,,,,,,,,,,,,,,,,,R_5Oxl4uaiGfTi56L,1,2024-05-30_11h25.47.071,interaction task,2021.2.3,MacIntel,56.17977528,120513,,,,,,,,,,,,,,,,Smaller,Greater,,,0.26466963,-0.539324816,1,0,0,RightButton,"[""RightButton""]",,,,0.027508842,10.9853,space,,,,,,,,,,,,0,8,8,8,1,1,both_wrong.png,1,RandomDot13.png,No answer,19,,,0.8984,,,,,,
,,,,,,,,,,,,,,,,,,,,,,,,,,,,,,,R_5Oxl4uaiGfTi56L,1,2024-05-30_11h25.47.071,interaction task,2021.2.3,MacIntel,56.17977528,120513,,,,,,,,,,,,,,,,Greater,Smaller,,,0.267690786,-0.522977024,1,0,0,RightButton,"[""RightButton""]",,,,,,,0,4.3187,space,99,6.0931,,,,,,,0,9,9,9,1,2,only_sub_right.png,2,RandomDot20.png,No answer,20,0.7772,,,,,,,,
,,,,,,,,,,,,,,,,,,,,,,,,,,,,,,,R_5Oxl4uaiGfTi56L,1,2024-05-30_11h25.47.071,interaction task,2021.2.3,MacIntel,56.17977528,120513,,,,,,,,,,,,,,,,Smaller,Greater,,,0.310737016,-0.518882921,1,0,0,RightButton,"[""RightButton""]",,,,,,,,,,,,99.04969426,4.3184,space,0.4676,0.345763989,5.7968,0,10,10,10,1,2,only_sub_right.png,3,RandomDot18.png,No answer,20,,,,,,,,,
,,,,,,,,,,,,,,,,,,,,,,,,,,,,,,,R_5Oxl4uaiGfTi56L,1,2024-05-30_11h25.47.071,interaction task,2021.2.3,MacIntel,56.17977528,120513,,,,,,,,,,,,,,,,Smaller,Greater,,,0.229888831,-0.503724908,1,0,0,RightButton,"[""RightButton""]",,,,1.03406016,7.5259,space,,,,,,,,,,,,0,11,11,11,1,2,only_sub_right.png,1,RandomDot27.png,No answer,21,,,1.0335,,,,,,
,,,,,,,,,,,,,,,,,,,,,,,,,,,,,,,R_5Oxl4uaiGfTi56L,1,2024-05-30_11h25.47.071,interaction task,2021.2.3,MacIntel,56.17977528,120513,,,,,,,,,,,,,,,,Greater,Smaller,,,0.261944156,-0.494136285,1,0,0,RightButton,"[""RightButton""]",1,2.5304,space,,,,,,,,,,,,,,,0,12,12,12,1,1,both_wrong.png,0,RandomDot10.png,No answer,20,,1.0397,,,,,,,
,,,,,,,,,,,,,,,,,,,,,,,,,,,,,,,R_5Oxl4uaiGfTi56L,1,2024-05-30_11h25.47.071,interaction task,2021.2.3,MacIntel,56.17977528,120513,,,,,,,,,,,,,,,,Smaller,Greater,,,0.223189545,-0.488865017,1,0,0,RightButton,"[""RightButton""]",2,3.2469,space,,,,,,,,,,,,,,,0,13,13,13,1,3,only_sub_wrong.png,0,RandomDot16.png,No answer,21,,2.2504,,,,,,,
,,,,,,,,,,,,,,,,,,,,,,,,,,,,,,,R_5Oxl4uaiGfTi56L,1,2024-05-30_11h25.47.071,interaction task,2021.2.3,MacIntel,56.17977528,120513,,,,,,,,,,,,,,,,Greater,Smaller,,,-0.259243181,-0.508625624,1,0,0,LeftButton,"[""LeftButton""]",,,,0.171991136,2.0224,space,,,,,,,,,,,,0,14,14,14,1,3,only_sub_wrong.png,1,RandomDot8.png,No answer,21,,,0.7035,,,,,,
,,,,,,,,,,,,,,,,,,,,,,,,,,,,,,,R_5Oxl4uaiGfTi56L,1,2024-05-30_11h25.47.071,interaction task,2021.2.3,MacIntel,56.17977528,120513,,,,,,,,,,,,,,,,Smaller,Greater,,,-0.295800357,-0.495786133,1,0,0,LeftButton,"[""LeftButton""]",3,1.8209,space,,,,,,,,,,,,,,,0,15,15,15,1,1,both_wrong.png,0,RandomDot28.png,No answer,19,,0.4672,,,,,,,
,,,,,,,,,,,,,,,,,,,,,,,,,,,,,,,R_5Oxl4uaiGfTi56L,1,2024-05-30_11h25.47.071,interaction task,2021.2.3,MacIntel,56.17977528,120513,,,,,,,,,,,,,,,,Greater,Smaller,,,0.275478872,-0.532850884,1,0,0,RightButton,"[""RightButton""]",,,,0.162893507,1.4174,space,,,,,,,,,,,,0,16,16,16,1,1,both_wrong.png,1,RandomDot28.png,No answer,21,,,0.7068,,,,,,
,,,,,,,,,,,,,,,,,,,,,,,,,,,,,,,R_5Oxl4uaiGfTi56L,1,2024-05-30_11h25.47.071,interaction task,2021.2.3,MacIntel,56.17977528,120513,,,,,,,,,,,,,,,,Greater,Smaller,,,-0.325061247,-0.485668267,1,0,0,LeftButton,"[""LeftButton""]",,,,0.052492142,1.6461,space,,,,,,,,,,,,0,17,17,17,1,2,only_sub_right.png,1,RandomDot3.png,No answer,20,,,0.5008,,,,,,
,,,,,,,,,,,,,,,,,,,,,,,,,,,,,,,R_5Oxl4uaiGfTi56L,1,2024-05-30_11h25.47.071,interaction task,2021.2.3,MacIntel,56.17977528,120513,,,,,,,,,,,,,,,,Greater,Smaller,,,-0.334321721,-0.506039497,1,0,0,LeftButton,"[""LeftButton""]",,,,,,,0,3.17,space,99,4.8927,,,,,,,0,18,18,18,1,2,only_sub_right.png,2,RandomDot33.png,No answer,20,0.7261,,,,,,,,
,,,,,,,,,,,,,,,,,,,,,,,,,,,,,,,R_5Oxl4uaiGfTi56L,1,2024-05-30_11h25.47.071,interaction task,2021.2.3,MacIntel,56.17977528,120513,,,,,,,,,,,,,,,,Greater,Smaller,,,-0.38938463,-0.511351047,1,0,0,LeftButton,"[""LeftButton""]",,,,,,,,,,,,98.2079263,3.4502,space,0.7343,0.351638023,4.9115,0,19,19,19,1,3,only_sub_wrong.png,3,RandomDot8.png,No answer,21,,,,,,,,,
,,,,,,,,,,,,,,,,,,,,,,,,,,,,,,,R_5Oxl4uaiGfTi56L,1,2024-05-30_11h25.47.071,interaction task,2021.2.3,MacIntel,56.17977528,120513,,,,,,,,,,,,,,,,Smaller,Greater,,,-0.287535773,-0.522081163,1,0,0,LeftButton,"[""LeftButton""]",,,,,,,,,,,,97.754855,2.1631,space,0.5888,1.941501947,3.4666,0,20,20,20,1,1,both_wrong.png,3,RandomDot7.png,No answer,21,,,,,,,,,
,,,,,,,,,,,,,,,,,,,,,,,,,,,,,,,R_5Oxl4uaiGfTi56L,1,2024-05-30_11h25.47.071,interaction task,2021.2.3,MacIntel,56.17977528,120513,,,,,,,,,,,,,,,,Greater,Smaller,,,-0.317351151,-0.517660048,1,0,0,LeftButton,"[""LeftButton""]",,,,,,,4,5.8023,space,96,7.8455,,,,,,,0,21,21,21,1,3,only_sub_wrong.png,2,RandomDot13.png,No answer,21,0.2237,,,,,,,,
,,,,,,,,,,,,,,,,,,,,,,,,,,,,,,,R_5Oxl4uaiGfTi56L,1,2024-05-30_11h25.47.071,interaction task,2021.2.3,MacIntel,56.17977528,120513,,,,,,,,,,,,,,,,Smaller,Greater,,,0.203007423,-0.516801893,1,0,0,RightButton,"[""RightButton""]",,,,,,,1,2.9012,space,98,4.3281,,,,,,,0,22,22,22,1,3,only_sub_wrong.png,2,RandomDot22.png,No answer,19,0.5676,,,,,,,,
,,,,,,,,,,,,,,,,,,,,,,,,,,,,,,,R_5Oxl4uaiGfTi56L,1,2024-05-30_11h25.47.071,interaction task,2021.2.3,MacIntel,56.17977528,120513,,,,,,,,,,,,,,,,Smaller,Greater,,,0.275006273,-0.526297879,1,0,0,RightButton,"[""RightButton""]",,,,,,,,,,,,98.57763083,4.6539,space,0.2335,1.099751105,5.8697,0,23,23,23,1,1,both_wrong.png,3,RandomDot12.png,No answer,19,,,,,,,,,
,,,,,,,,,,,,,,,,,,,,,,,,,,,,,,,R_5Oxl4uaiGfTi56L,1,2024-05-30_11h25.47.071,interaction task,2021.2.3,MacIntel,56.17977528,120513,,,,,,,,,,,,,,,,Smaller,Greater,,,-0.378920152,-0.49425076,1,0,0,LeftButton,"[""LeftButton""]",,,,,,,,,,,,,,,,,,0,24,24,24,1,5,both_right.png,10,RandomDot42.png,LeftButton,19,,,,,,,,,
,,,,,,,,,,,,,,,,,,,,,,,,,,,,,,,R_5Oxl4uaiGfTi56L,1,2024-05-30_11h25.47.071,interaction task,2021.2.3,MacIntel,56.17977528,120513,,,,,,,,,,,,,,,,Smaller,Greater,,,0.327815247,-0.544287652,1,0,0,RightButton,"[""RightButton""]",,,,0.095946842,5.321,space,,,,,,,,,,,,0,25,25,25,1,3,only_sub_wrong.png,1,RandomDot6.png,No answer,20,,,1.101,,,,,,
,,,,,,,,,,,,,,,,,,,,,,,,,,,,,,,R_5Oxl4uaiGfTi56L,1,2024-05-30_11h25.47.071,interaction task,2021.2.3,MacIntel,56.17977528,120513,,,,,,,,,,,,,,,,Greater,Smaller,,,-0.308178965,-0.516180013,1,0,0,LeftButton,"[""LeftButton""]",,,,0.085456,3.9803,space,,,,,,,,,,,,0,26,26,26,1,3,only_sub_wrong.png,1,RandomDot11.png,No answer,20,,,0.3003,,,,,,
,,,,,,,,,,,,,,,,,,,,,,,,,,,,,,,R_5Oxl4uaiGfTi56L,1,2024-05-30_11h25.47.071,interaction task,2021.2.3,MacIntel,56.17977528,120513,,,,,,,,,,,,,,,,Greater,Smaller,,,0.216728295,-0.516487901,1,0,0,RightButton,"[""RightButton""]",85,2.4107,space,,,,,,,,,,,,,,,0,27,27,27,1,3,only_sub_wrong.png,0,RandomDot12.png,No answer,20,,0.3337,,,,,,,
,,,,,,,,,,,,,,,,,,,,,,,,,,,,,,,R_5Oxl4uaiGfTi56L,1,2024-05-30_11h25.47.071,interaction task,2021.2.3,MacIntel,56.17977528,120513,,,,,,,,,,,,,,,,Smaller,Greater,,,-0.240811751,-0.523064914,1,0,0,LeftButton,"[""LeftButton""]",,,,,,,,,,,,4.28047223,2.8,space,0.4699,62.47137136,5.5352,0,28,28,28,1,2,only_sub_right.png,3,RandomDot8.png,No answer,19,,,,,,,,,
,,,,,,,,,,,,,,,,,,,,,,,,,,,,,,,R_5Oxl4uaiGfTi56L,1,2024-05-30_11h25.47.071,interaction task,2021.2.3,MacIntel,56.17977528,120513,,,,,,,,,,,,,,,,Greater,Smaller,,,0.347786204,-0.500584852,1,0,0,RightButton,"[""RightButton""]",,,,,,,,,,,,4.447698111,1.9798,space,0.5904,45.335991,3.2646,0,29,29,29,1,3,only_sub_wrong.png,3,RandomDot20.png,No answer,20,,,,,,,,,
,,,,,,,,,,,,,,,,,,,,,,,,,,,,,,,R_5Oxl4uaiGfTi56L,1,2024-05-30_11h25.47.071,interaction task,2021.2.3,MacIntel,56.17977528,120513,,,,,,,,,,,,,,,,Smaller,Greater,,,0.330073547,-0.539644911,1,0,0,RightButton,"[""RightButton""]",5,1.9835,space,,,,,,,,,,,,,,,0,30,30,30,1,2,only_sub_right.png,0,RandomDot29.png,No answer,20,,0.4438,,,,,,,
,,,,,,,,,,,,,,,,,,,,,,,,,,,,,,,R_5Oxl4uaiGfTi56L,1,2024-05-30_11h25.47.071,interaction task,2021.2.3,MacIntel,56.17977528,120513,,,,,,,,,,,,,,,,Greater,Smaller,,,-0.241029188,-0.295972087,0,0,0,,[],,,,,,,,,,,,,,,,,,0,31,31,31,1,2,only_sub_right.png,0,RandomDot16.png,No answer,20,,,,98,,,,,
,,,,,,,,,,,,,,,,,,,,,,,,,,,,,,,R_5Oxl4uaiGfTi56L,1,2024-05-30_11h25.47.071,interaction task,2021.2.3,MacIntel,56.17977528,120513,,,,,,,,,,,,,,,,Smaller,Greater,,,0.346655273,-0.481990017,1,0,0,RightButton,"[""RightButton""]",,,,,,,,,,,,65.53640997,1.5267,space,0.7483,70.52469821,2.5585,0,32,32,32,1,3,only_sub_wrong.png,3,RandomDot36.png,No answer,21,,,,,,,,,
,,,,,,,,,,,,,,,,,,,,,,,,,,,,,,,R_5Oxl4uaiGfTi56L,1,2024-05-30_11h25.47.071,interaction task,2021.2.3,MacIntel,56.17977528,120513,,,,,,,,,,,,,,,,Smaller,Greater,,,-0.259573364,-0.527158339,1,0,0,LeftButton,"[""LeftButton""]",,,,,,,,,,,,,,,,,,0,33,33,33,1,4,both_right.png,10,RandomDot41.png,RightButton,5,,,,,,,,,
,,,,,,,,,,,,,,,,,,,,,,,,,,,,,,,R_5Oxl4uaiGfTi56L,1,2024-05-30_11h25.47.071,interaction task,2021.2.3,MacIntel,56.17977528,120513,,,,,,,,,,,,,,,,Smaller,Greater,,,0.325535329,-0.526630046,1,0,0,RightButton,"[""RightButton""]",15,2.0636,space,,,,,,,,,,,,,,,0,34,34,34,1,3,only_sub_wrong.png,0,RandomDot25.png,No answer,21,,0.5431,,,,,,,
,,,,,,,,,,,,,,,,,,,,,,,,,,,,,,,R_5Oxl4uaiGfTi56L,1,2024-05-30_11h25.47.071,interaction task,2021.2.3,MacIntel,56.17977528,120513,,,,,,,,,,,,,,,,Smaller,Greater,,,0.250684865,-0.522516276,1,0,0,RightButton,"[""RightButton""]",,,,1.205635071,2.1918,space,,,,,,,,,,,,0,35,35,35,1,1,both_wrong.png,1,RandomDot17.png,No answer,20,,,0.4836,,,,,,
,,,,,,,,,,,,,,,,,,,,,,,,,,,,,,,R_5Oxl4uaiGfTi56L,1,2024-05-30_11h25.47.071,interaction task,2021.2.3,MacIntel,56.17977528,120513,,,,,,,,,,,,,,,,Smaller,Greater,,,-0.317830361,-0.490124647,1,0,0,LeftButton,"[""LeftButton""]",2,2.2064,space,,,,,,,,,,,,,,,0,36,36,36,1,2,only_sub_right.png,0,RandomDot16.png,No answer,21,,0.2905,,,,,,,
,,,,,,,,,,,,,,,,,,,,,,,,,,,,,,,R_5Oxl4uaiGfTi56L,1,2024-05-30_11h25.47.071,interaction task,2021.2.3,MacIntel,56.17977528,120513,,,,,,,,,,,,,,,,Smaller,Greater,,,-0.354477353,-0.526455214,1,0,0,LeftButton,"[""LeftButton""]",,,,,,,2,2.8381,space,93,4.1648,,,,,,,0,37,37,37,1,2,only_sub_right.png,2,RandomDot5.png,No answer,21,0.5413,,,,,,,,
,,,,,,,,,,,,,,,,,,,,,,,,,,,,,,,R_5Oxl4uaiGfTi56L,1,2024-05-30_11h25.47.071,interaction task,2021.2.3,MacIntel,56.17977528,120513,,,,,,,,,,,,,,,,Greater,Smaller,,,-0.281701406,-0.482254774,1,0,0,LeftButton,"[""LeftButton""]",,,,,,,,,,,,,,,,,,0,38,38,38,1,0,both_right.png,2,RandomDot25.png,No answer,19,,,,,,,,,
,,,,,,,,,,,,,,,,,,,,,,,,,,,,,,,R_5Oxl4uaiGfTi56L,1,2024-05-30_11h25.47.071,interaction task,2021.2.3,MacIntel,56.17977528,120513,,,,,,,,,,,,,,,,Smaller,Greater,,,0.311424764,-0.506688368,1,0,0,RightButton,"[""RightButton""]",,,,,,,,,,,,,,,,,,0,39,39,39,1,0,both_right.png,1,RandomDot21.png,No answer,20,,,,,,,,,
,,,,,,,,,,,,,,,,,,,,,,,,,,,,,,,R_5Oxl4uaiGfTi56L,1,2024-05-30_11h25.47.071,interaction task,2021.2.3,MacIntel,56.17977528,120513,,,,,,,,,,,,,,,,Greater,Smaller,,,-0.288789029,-0.526357558,1,0,0,LeftButton,"[""LeftButton""]",,,,0.025318782,5.0204,space,,,,,,,,,,,,0,40,40,40,1,2,only_sub_right.png,1,RandomDot32.png,No answer,19,,,0.8169,,,,,,
,,,,,,,,,,,,,,,,,,,,,,,,,,,,,,,R_5Oxl4uaiGfTi56L,1,2024-05-30_11h25.47.071,interaction task,2021.2.3,MacIntel,56.17977528,120513,,,,,,,,,,,,,,,,Greater,Smaller,,,0.338293796,-0.538493381,1,0,0,RightButton,"[""RightButton""]",,,,,,,,,,,,,,,,,,0,41,41,41,1,0,both_right.png,0,RandomDot22.png,No answer,21,,,,,,,,,
,,,,,,,,,,,,,,,,,,,,,,,,,,,,,,,R_5Oxl4uaiGfTi56L,1,2024-05-30_11h25.47.071,interaction task,2021.2.3,MacIntel,56.17977528,120513,,,,,,,,,,,,,,,,Greater,Smaller,,,-0.316493776,-0.522134603,1,0,0,LeftButton,"[""LeftButton""]",1,2.5138,space,,,,,,,,,,,,,,,,,,,,2,only_sub_right.png,0,RandomDot16.png,No answer,20,,0.5097,,,0,0,0,0,1
