chooserow,ParID,pre_instru_resp_2.keys,pre_instru_resp_2.rt,pre_instru_resp_3.keys,pre_instru_resp_3.rt,pre_instru_resp_9.keys,pre_instru_resp_9.rt,pre_instru_resp_8.keys,pre_instru_resp_8.rt,pre_instru_resp_4.keys,pre_instru_resp_4.rt,pre_instru_resp_5.keys,pre_instru_resp_5.rt,pre_instru_resp_6.keys,pre_instru_resp_6.rt,key_resp_3.keys,key_resp_3.rt,key_resp_4.keys,key_resp_4.rt,key_resp_5.keys,key_resp_5.rt,key_resp_6.keys,key_resp_6.rt,key_resp_7.keys,key_resp_7.rt,trials_2.thisRepN,trials_2.thisTrialN,trials_2.thisN,trials_2.thisIndex,trials_2.ran,participant,session,date,expName,psychopyVersion,OS,frameRate,SONAid,pre_instru_resp.keys,pre_instru_resp.rt,clicked,judge_2.x,judge_2.y,judge_2.leftButton,judge_2.midButton,judge_2.rightButton,judge_2.clicked_name,trials.thisRepN,trials.thisTrialN,trials.thisN,trials.thisIndex,trials.ran,prac_answer,prac_dot_sti,dotlefttext,dotrighttext,prac_acc,judge.x,judge.y,judge.leftButton,judge.midButton,judge.rightButton,judge.clicked_name,clicked_guilt,slider_guilt.response,slider_guilt.rt,key_guilt.keys,key_guilt.rt,share_slider.response,share_slider.rt,key_share.keys,slider_apology.response,slider_apology.rt,key_apology.keys,slider_hide.response,slider_hide.rt,slider_forgiveness.response,slider_forgiveness.rt,key_forgiveness.keys,slider_mad.response,slider_mad.rt,trialseq.thisRepN,trialseq.thisTrialN,trialseq.thisN,trialseq.thisIndex,trialseq.ran,type_trial,stipic,DV,picture,answer,number,key_apology.rt,key_share.rt,key_forgiveness.rt
"[153,121,38,202,75,2,117,60,195,148,167,101,72,52,126,77,67,93,182,115,98,112,136,68,168,95,48,134,190,105,146,175,25,166,156,170,127,133,181,15,50,94]",R_5PyR4YVF9PC296x,space,2.1997,space,5.7076,space,22.7783,space,37.6243,space,38.3827,space,15.7962,space,7.4434,3,10.7449,1,14.0949,3,16.066,1,12.4204,3,8.7675,0,0,0,0,1,R_5PyR4YVF9PC296x,1,2024-05-14_09h54.51.733,interaction task,2021.2.3,MacIntel,59.88023952,120210,,,,,,,,,,,,,,,,,,,,,,,,,,,,,,,,,,,,,,,,,,,,,,,,,,,,,,,,,
,,,,space,4.599,space,19.0319,space,16.5837,space,36.3913,space,6.3835,space,2.7673,3,4.3176,2,12.8199,3,6.3404,2,3.766,2,1.8337,1,0,1,0,1,R_5PyR4YVF9PC296x,1,2024-05-14_09h54.51.733,interaction task,2021.2.3,MacIntel,59.88023952,120210,,,,,,,,,,,,,,,,,,,,,,,,,,,,,,,,,,,,,,,,,,,,,,,,,,,,,,,,,
,,,,space,2.6546,space,0.4446,space,0.3679,space,0.5218,space,1.6227,space,1.2595,3,2.162,1,2.7697,3,2.6108,2,1.383,2,0.8087,2,0,2,0,1,R_5PyR4YVF9PC296x,1,2024-05-14_09h54.51.733,interaction task,2021.2.3,MacIntel,59.88023952,120210,,,,,,,,,,,,,,,,,,,,,,,,,,,,,,,,,,,,,,,,,,,,,,,,,,,,,,,,,
,,,,,,,,,,,,,,,,,,,,,,,,,,,,,,,R_5PyR4YVF9PC296x,1,2024-05-14_09h54.51.733,interaction task,2021.2.3,MacIntel,59.88023952,120210,space,1.8764,"[""LeftButton_2""]",-0.277072483,-0.312717014,1,0,0,LeftButton_2,0,0,0,0,1,RightButton_2,9dot1.png,Greater,Smaller,,,,,,,,,,,,,,,,,,,,,,,,,,,,,,,,,,,,,,,
,,,,,,,,,,,,,,,,,,,,,,,,,,,,,,,R_5PyR4YVF9PC296x,1,2024-05-14_09h54.51.733,interaction task,2021.2.3,MacIntel,59.88023952,120210,,,"[""LeftButton_2""]",-0.219319661,-0.334244792,1,0,0,LeftButton_2,0,1,1,1,1,LeftButton_2,9dot1.png,Smaller,Greater,,,,,,,,,,,,,,,,,,,,,,,,,,,,,,,,,,,,,,,
,,,,,,,,,,,,,,,,,,,,,,,,,,,,,,,R_5PyR4YVF9PC296x,1,2024-05-14_09h54.51.733,interaction task,2021.2.3,MacIntel,59.88023952,120210,,,"[""LeftButton_2""]",-0.356130642,-0.336571181,1,0,0,LeftButton_2,0,2,2,2,1,LeftButton_2,11dot1.png,Greater,Smaller,,,,,,,,,,,,,,,,,,,,,,,,,,,,,,,,,,,,,,,
,,,,,,,,,,,,,,,,,,,,,,,,,,,,,,,R_5PyR4YVF9PC296x,1,2024-05-14_09h54.51.733,interaction task,2021.2.3,MacIntel,59.88023952,120210,,,,,,,,,,,,,,,,,Smaller,Greater,0.4,-0.254969618,-0.47578125,1,0,0,LeftButton,"[""LeftButton""]",90,8.6337,space,3.8862,,,,,,,,,,,,,,0,0,0,0,1,3,only_sub_wrong.png,0,RandomDot25.png,No answer,20,,,
,,,,,,,,,,,,,,,,,,,,,,,,,,,,,,,R_5PyR4YVF9PC296x,1,2024-05-14_09h54.51.733,interaction task,2021.2.3,MacIntel,59.88023952,120210,,,,,,,,,,,,,,,,,Greater,Smaller,,0.265093316,-0.511944444,1,0,0,RightButton,"[""RightButton""]",,,,,,,,12,8.6623,space,30,12.5551,,,,,,0,1,1,1,1,2,only_sub_right.png,2,RandomDot18.png,No answer,19,1.1747,,
,,,,,,,,,,,,,,,,,,,,,,,,,,,,,,,R_5PyR4YVF9PC296x,1,2024-05-14_09h54.51.733,interaction task,2021.2.3,MacIntel,59.88023952,120210,,,,,,,,,,,,,,,,,Greater,Smaller,,0.310080295,-0.465737847,1,0,0,RightButton,"[""RightButton""]",,,,,,,,,,,,,,,,,,0,2,2,2,1,0,both_right.png,3,RandomDot39.png,No answer,20,,,
,,,,,,,,,,,,,,,,,,,,,,,,,,,,,,,R_5PyR4YVF9PC296x,1,2024-05-14_09h54.51.733,interaction task,2021.2.3,MacIntel,59.88023952,120210,,,,,,,,,,,,,,,,,Smaller,Greater,,-0.313069661,-0.517725694,1,0,0,LeftButton,"[""LeftButton""]",,,,,,,,,,,,,,,,,,0,3,3,3,1,5,both_right.png,10,RandomDot42.png,LeftButton,21,,,
,,,,,,,,,,,,,,,,,,,,,,,,,,,,,,,R_5PyR4YVF9PC296x,1,2024-05-14_09h54.51.733,interaction task,2021.2.3,MacIntel,59.88023952,120210,,,,,,,,,,,,,,,,,Greater,Smaller,,-0.24156901,-0.534401042,1,0,0,LeftButton,"[""LeftButton""]",,,,,,,,11,3.6836,space,32,5.6212,,,,,,0,4,4,4,1,1,both_wrong.png,2,RandomDot10.png,No answer,20,1.2398,,
,,,,,,,,,,,,,,,,,,,,,,,,,,,,,,,R_5PyR4YVF9PC296x,1,2024-05-14_09h54.51.733,interaction task,2021.2.3,MacIntel,59.88023952,120210,,,,,,,,,,,,,,,,,Greater,Smaller,,0.353895399,-0.505373264,1,0,0,RightButton,"[""RightButton""]",,,,,,,,,,,,,,,,,,0,5,5,5,1,0,both_right.png,0,RandomDot3.png,No answer,21,,,
,,,,,,,,,,,,,,,,,,,,,,,,,,,,,,,R_5PyR4YVF9PC296x,1,2024-05-14_09h54.51.733,interaction task,2021.2.3,MacIntel,59.88023952,120210,,,,,,,,,,,,,,,,,Smaller,Greater,,-0.251844618,-0.518246528,1,0,0,LeftButton,"[""LeftButton""]",,,,,2.966471354,8.8973,space,,,,,,,,,,,0,6,6,6,1,2,only_sub_right.png,1,RandomDot27.png,No answer,21,,1.0925,
,,,,,,,,,,,,,,,,,,,,,,,,,,,,,,,R_5PyR4YVF9PC296x,1,2024-05-14_09h54.51.733,interaction task,2021.2.3,MacIntel,59.88023952,120210,,,,,,,,,,,,,,,,,Greater,Smaller,,0.272905816,-0.526345486,1,0,0,RightButton,"[""RightButton""]",,,,,2.928927951,7.4793,space,,,,,,,,,,,0,7,7,7,1,1,both_wrong.png,1,RandomDot13.png,No answer,19,,0.8256,
,,,,,,,,,,,,,,,,,,,,,,,,,,,,,,,R_5PyR4YVF9PC296x,1,2024-05-14_09h54.51.733,interaction task,2021.2.3,MacIntel,59.88023952,120210,,,,,,,,,,,,,,,,,Smaller,Greater,,0.360443793,-0.539626736,1,0,0,RightButton,"[""RightButton""]",,,,,,,,,,,,,,,,,,0,8,8,8,1,4,both_right.png,10,RandomDot41.png,RightButton,5,,,
,,,,,,,,,,,,,,,,,,,,,,,,,,,,,,,R_5PyR4YVF9PC296x,1,2024-05-14_09h54.51.733,interaction task,2021.2.3,MacIntel,59.88023952,120210,,,,,,,,,,,,,,,,,Greater,Smaller,,0.358962674,-0.517065972,1,0,0,RightButton,"[""RightButton""]",80,4.826,space,2.9389,,,,,,,,,,,,,,0,9,9,9,1,3,only_sub_wrong.png,0,RandomDot12.png,No answer,20,,,
,,,,,,,,,,,,,,,,,,,,,,,,,,,,,,,R_5PyR4YVF9PC296x,1,2024-05-14_09h54.51.733,interaction task,2021.2.3,MacIntel,59.88023952,120210,,,,,,,,,,,,,,,,,Smaller,Greater,,-0.236067708,-0.493368056,1,0,0,LeftButton,"[""LeftButton""]",,,,,3.092963325,3.0722,space,,,,,,,,,,,0,10,10,10,1,3,only_sub_wrong.png,1,RandomDot22.png,No answer,20,,0.9059,
,,,,,,,,,,,,,,,,,,,,,,,,,,,,,,,R_5PyR4YVF9PC296x,1,2024-05-14_09h54.51.733,interaction task,2021.2.3,MacIntel,59.88023952,120210,,,,,,,,,,,,,,,,,Greater,Smaller,,-0.216417101,-0.525451389,1,0,0,LeftButton,"[""LeftButton""]",17,5.0665,space,0.6949,,,,,,,,,,,,,,0,11,11,11,1,2,only_sub_right.png,0,RandomDot18.png,No answer,21,,,
,,,,,,,,,,,,,,,,,,,,,,,,,,,,,,,R_5PyR4YVF9PC296x,1,2024-05-14_09h54.51.733,interaction task,2021.2.3,MacIntel,59.88023952,120210,,,,,,,,,,,,,,,,,Greater,Smaller,,0.33046875,-0.514765625,1,0,0,RightButton,"[""RightButton""]",,,,,,,,14,4.1832,space,23,5.1198,,,,,,0,12,12,12,1,1,both_wrong.png,2,RandomDot1.png,No answer,21,0.6277,,
,,,,,,,,,,,,,,,,,,,,,,,,,,,,,,,R_5PyR4YVF9PC296x,1,2024-05-14_09h54.51.733,interaction task,2021.2.3,MacIntel,59.88023952,120210,,,,,,,,,,,,,,,,,Greater,Smaller,,0.346055773,-0.486545139,1,0,0,RightButton,"[""RightButton""]",47,4.2885,space,0.7,,,,,,,,,,,,,,0,13,13,13,1,1,both_wrong.png,0,RandomDot10.png,No answer,20,,,
,,,,,,,,,,,,,,,,,,,,,,,,,,,,,,,R_5PyR4YVF9PC296x,1,2024-05-14_09h54.51.733,interaction task,2021.2.3,MacIntel,59.88023952,120210,,,,,,,,,,,,,,,,,Smaller,Greater,,-0.24875217,-0.515425347,1,0,0,LeftButton,"[""LeftButton""]",,,,,,,,16,2.8297,space,20,3.9896,,,,,,0,14,14,14,1,2,only_sub_right.png,2,RandomDot34.png,No answer,20,1.3857,,
,,,,,,,,,,,,,,,,,,,,,,,,,,,,,,,R_5PyR4YVF9PC296x,1,2024-05-14_09h54.51.733,interaction task,2021.2.3,MacIntel,59.88023952,120210,,,,,,,,,,,,,,,,,Greater,Smaller,,-0.306618924,-0.504479167,1,0,0,LeftButton,"[""LeftButton""]",,,,,,,,16,3.2278,space,22,4.1574,,,,,,0,15,15,15,1,1,both_wrong.png,2,RandomDot13.png,No answer,21,0.8065,,
,,,,,,,,,,,,,,,,,,,,,,,,,,,,,,,R_5PyR4YVF9PC296x,1,2024-05-14_09h54.51.733,interaction task,2021.2.3,MacIntel,59.88023952,120210,,,,,,,,,,,,,,,,,Smaller,Greater,,0.322151693,-0.461050347,1,0,0,RightButton,"[""RightButton""]",,,,,3.20977105,2.2076,space,,,,,,,,,,,0,16,16,16,1,1,both_wrong.png,1,RandomDot17.png,No answer,20,,0.7199,
,,,,,,,,,,,,,,,,,,,,,,,,,,,,,,,R_5PyR4YVF9PC296x,1,2024-05-14_09h54.51.733,interaction task,2021.2.3,MacIntel,59.88023952,120210,,,,,,,,,,,,,,,,,Smaller,Greater,,-0.243207465,-0.474756944,1,0,0,LeftButton,"[""LeftButton""]",,,,,,,,,,,,,50.20879367,5.5067,space,36.80160985,7.9727,0,17,17,17,1,1,both_wrong.png,3,RandomDot12.png,No answer,21,,,1.1079
,,,,,,,,,,,,,,,,,,,,,,,,,,,,,,,R_5PyR4YVF9PC296x,1,2024-05-14_09h54.51.733,interaction task,2021.2.3,MacIntel,59.88023952,120210,,,,,,,,,,,,,,,,,Greater,Smaller,,0.263503689,-0.544418403,1,0,0,RightButton,"[""RightButton""]",,,,,,,,,,,,,40.61524534,2.8181,space,33.43679854,4.0612,0,18,18,18,1,3,only_sub_wrong.png,3,RandomDot8.png,No answer,21,,,0.6221
,,,,,,,,,,,,,,,,,,,,,,,,,,,,,,,R_5PyR4YVF9PC296x,1,2024-05-14_09h54.51.733,interaction task,2021.2.3,MacIntel,59.88023952,120210,,,,,,,,,,,,,,,,,Smaller,Greater,,0.287532552,-0.510416667,1,0,0,RightButton,"[""RightButton""]",,,,,3.139973958,1.7073,space,,,,,,,,,,,0,19,19,19,1,2,only_sub_right.png,1,RandomDot14.png,No answer,20,,0.5235,
,,,,,,,,,,,,,,,,,,,,,,,,,,,,,,,R_5PyR4YVF9PC296x,1,2024-05-14_09h54.51.733,interaction task,2021.2.3,MacIntel,59.88023952,120210,,,,,,,,,,,,,,,,,Greater,Smaller,,0.255365668,-0.495217014,1,0,0,RightButton,"[""RightButton""]",25,5.2485,space,0.4339,,,,,,,,,,,,,,0,20,20,20,1,2,only_sub_right.png,0,RandomDot16.png,No answer,20,,,
,,,,,,,,,,,,,,,,,,,,,,,,,,,,,,,R_5PyR4YVF9PC296x,1,2024-05-14_09h54.51.733,interaction task,2021.2.3,MacIntel,59.88023952,120210,,,,,,,,,,,,,,,,,Greater,Smaller,,0.239756944,-0.502439236,1,0,0,RightButton,"[""RightButton""]",,,,,2.845648872,1.5615,space,,,,,,,,,,,0,21,21,21,1,2,only_sub_right.png,1,RandomDot32.png,No answer,19,,0.4461,
,,,,,,,,,,,,,,,,,,,,,,,,,,,,,,,R_5PyR4YVF9PC296x,1,2024-05-14_09h54.51.733,interaction task,2021.2.3,MacIntel,59.88023952,120210,,,,,,,,,,,,,,,,,Greater,Smaller,,-0.277875434,-0.514782986,1,0,0,LeftButton,"[""LeftButton""]",,,,,,,,,,,,,48.67380401,4.0404,space,40.35987041,5.4054,0,22,22,22,1,2,only_sub_right.png,3,RandomDot10.png,No answer,19,,,1.0851
,,,,,,,,,,,,,,,,,,,,,,,,,,,,,,,R_5PyR4YVF9PC296x,1,2024-05-14_09h54.51.733,interaction task,2021.2.3,MacIntel,59.88023952,120210,,,,,,,,,,,,,,,,,Smaller,Greater,,0.25242513,-0.524835069,1,0,0,RightButton,"[""RightButton""]",,,,,2.639322917,1.3571,space,,,,,,,,,,,0,23,23,23,1,1,both_wrong.png,1,RandomDot8.png,No answer,21,,0.5871,
,,,,,,,,,,,,,,,,,,,,,,,,,,,,,,,R_5PyR4YVF9PC296x,1,2024-05-14_09h54.51.733,interaction task,2021.2.3,MacIntel,59.88023952,120210,,,,,,,,,,,,,,,,,Greater,Smaller,,0.306108941,-0.522534722,1,0,0,RightButton,"[""RightButton""]",,,,,,,,29,2.2559,space,26,3.1909,,,,,,0,24,24,24,1,3,only_sub_wrong.png,2,RandomDot13.png,No answer,21,0.6203,,
,,,,,,,,,,,,,,,,,,,,,,,,,,,,,,,R_5PyR4YVF9PC296x,1,2024-05-14_09h54.51.733,interaction task,2021.2.3,MacIntel,59.88023952,120210,,,,,,,,,,,,,,,,,Smaller,Greater,,0.217626953,-0.523524306,1,0,0,RightButton,"[""RightButton""]",,,,,,,,,,,,,49.58296068,3.6231,space,42.71962244,4.5413,0,25,25,25,1,1,both_wrong.png,3,RandomDot12.png,No answer,19,,,0.4722
,,,,,,,,,,,,,,,,,,,,,,,,,,,,,,,R_5PyR4YVF9PC296x,1,2024-05-14_09h54.51.733,interaction task,2021.2.3,MacIntel,59.88023952,120210,,,,,,,,,,,,,,,,,Greater,Smaller,,-0.232226563,-0.538602431,1,0,0,LeftButton,"[""LeftButton""]",54,3.3223,space,0.7356,,,,,,,,,,,,,,0,26,26,26,1,1,both_wrong.png,0,RandomDot24.png,No answer,21,,,
,,,,,,,,,,,,,,,,,,,,,,,,,,,,,,,R_5PyR4YVF9PC296x,1,2024-05-14_09h54.51.733,interaction task,2021.2.3,MacIntel,59.88023952,120210,,,,,,,,,,,,,,,,,Greater,Smaller,,0.270388455,-0.480329861,1,0,0,RightButton,"[""RightButton""]",,,,,,,,,,,,,49.87669665,2.1608,space,46.59025147,3.3563,0,27,27,27,1,2,only_sub_right.png,3,RandomDot22.png,No answer,20,,,0.7173
,,,,,,,,,,,,,,,,,,,,,,,,,,,,,,,R_5PyR4YVF9PC296x,1,2024-05-14_09h54.51.733,interaction task,2021.2.3,MacIntel,59.88023952,120210,,,,,,,,,,,,,,,,,Smaller,Greater,,0.249419488,-0.527977431,1,0,0,RightButton,"[""RightButton""]",,,,,,,,,,,,,46.61874825,2.8702,space,38.35797208,3.8547,0,28,28,28,1,3,only_sub_wrong.png,3,RandomDot7.png,No answer,19,,,0.568
,,,,,,,,,,,,,,,,,,,,,,,,,,,,,,,R_5PyR4YVF9PC296x,1,2024-05-14_09h54.51.733,interaction task,2021.2.3,MacIntel,59.88023952,120210,,,,,,,,,,,,,,,,,Smaller,Greater,,0.226850043,-0.527387153,1,0,0,RightButton,"[""RightButton""]",47,3.4621,space,0.5896,,,,,,,,,,,,,,0,29,29,29,1,2,only_sub_right.png,0,RandomDot17.png,No answer,20,,,
,,,,,,,,,,,,,,,,,,,,,,,,,,,,,,,R_5PyR4YVF9PC296x,1,2024-05-14_09h54.51.733,interaction task,2021.2.3,MacIntel,59.88023952,120210,,,,,,,,,,,,,,,,,Greater,Smaller,,0.227902561,-0.491996528,1,0,0,RightButton,"[""RightButton""]",72,4.133,space,0.506,,,,,,,,,,,,,,0,30,30,30,1,3,only_sub_wrong.png,0,RandomDot38.png,No answer,21,,,
,,,,,,,,,,,,,,,,,,,,,,,,,,,,,,,R_5PyR4YVF9PC296x,1,2024-05-14_09h54.51.733,interaction task,2021.2.3,MacIntel,59.88023952,120210,,,,,,,,,,,,,,,,,Smaller,Greater,,0.249669054,-0.478559028,1,0,0,RightButton,"[""RightButton""]",,,,,,,,38,3.3336,space,34,4.2741,,,,,,0,31,31,31,1,3,only_sub_wrong.png,2,RandomDot17.png,No answer,19,0.4918,,
,,,,,,,,,,,,,,,,,,,,,,,,,,,,,,,R_5PyR4YVF9PC296x,1,2024-05-14_09h54.51.733,interaction task,2021.2.3,MacIntel,59.88023952,120210,,,,,,,,,,,,,,,,,Greater,Smaller,,-0.301508247,-0.533116319,1,0,0,LeftButton,"[""LeftButton""]",,,,,,,,,,,,,,,,,,0,32,32,32,1,0,both_right.png,2,RandomDot39.png,No answer,20,,,
,,,,,,,,,,,,,,,,,,,,,,,,,,,,,,,R_5PyR4YVF9PC296x,1,2024-05-14_09h54.51.733,interaction task,2021.2.3,MacIntel,59.88023952,120210,,,,,,,,,,,,,,,,,Smaller,Greater,,0.268630642,-0.493029514,1,0,0,RightButton,"[""RightButton""]",,,,,3.059814453,2.3203,space,,,,,,,,,,,0,33,33,33,1,3,only_sub_wrong.png,1,RandomDot15.png,No answer,20,,0.3344,
,,,,,,,,,,,,,,,,,,,,,,,,,,,,,,,R_5PyR4YVF9PC296x,1,2024-05-14_09h54.51.733,interaction task,2021.2.3,MacIntel,59.88023952,120210,,,,,,,,,,,,,,,,,Greater,Smaller,,0.301828342,-0.510564236,1,0,0,RightButton,"[""RightButton""]",,,,,3.224663628,1.8538,space,,,,,,,,,,,0,34,34,34,1,3,only_sub_wrong.png,1,RandomDot4.png,No answer,20,,0.5108,
,,,,,,,,,,,,,,,,,,,,,,,,,,,,,,,R_5PyR4YVF9PC296x,1,2024-05-14_09h54.51.733,interaction task,2021.2.3,MacIntel,59.88023952,120210,,,,,,,,,,,,,,,,,Greater,Smaller,,0.238145616,-0.489869792,1,0,0,RightButton,"[""RightButton""]",,,,,,,,91,6.6989,space,84,7.645,,,,,,0,35,35,35,1,3,only_sub_wrong.png,2,RandomDot39.png,No answer,20,1.1501,,
,,,,,,,,,,,,,,,,,,,,,,,,,,,,,,,R_5PyR4YVF9PC296x,1,2024-05-14_09h54.51.733,interaction task,2021.2.3,MacIntel,59.88023952,120210,,,,,,,,,,,,,,,,,Smaller,Greater,,0.299028863,-0.488090278,1,0,0,RightButton,"[""RightButton""]",,,,,,,,60,4.8818,space,57,5.8374,,,,,,0,36,36,36,1,2,only_sub_right.png,2,RandomDot22.png,No answer,19,0.4309,,
,,,,,,,,,,,,,,,,,,,,,,,,,,,,,,,R_5PyR4YVF9PC296x,1,2024-05-14_09h54.51.733,interaction task,2021.2.3,MacIntel,59.88023952,120210,,,,,,,,,,,,,,,,,Greater,Smaller,,0.288699002,-0.498645833,1,0,0,RightButton,"[""RightButton""]",,,,,,,,,,,,,56.32957176,3.3437,space,56.00131085,4.2398,0,37,37,37,1,2,only_sub_right.png,3,RandomDot36.png,No answer,20,,,0.4514
,,,,,,,,,,,,,,,,,,,,,,,,,,,,,,,R_5PyR4YVF9PC296x,1,2024-05-14_09h54.51.733,interaction task,2021.2.3,MacIntel,59.88023952,120210,,,,,,,,,,,,,,,,,Greater,Smaller,,-0.282443576,-0.483819444,1,0,0,LeftButton,"[""LeftButton""]",,,,,,,,,,,,,48.22717189,2.2198,space,44.67932362,3.9725,0,38,38,38,1,3,only_sub_wrong.png,3,RandomDot3.png,No answer,19,,,0.3167
,,,,,,,,,,,,,,,,,,,,,,,,,,,,,,,R_5PyR4YVF9PC296x,1,2024-05-14_09h54.51.733,interaction task,2021.2.3,MacIntel,59.88023952,120210,,,,,,,,,,,,,,,,,Greater,Smaller,,-0.243918186,-0.501527778,1,0,0,LeftButton,"[""LeftButton""]",,,,,,,,,,,,,,,,,,0,39,39,39,1,0,both_right.png,1,RandomDot35.png,No answer,21,,,
,,,,,,,,,,,,,,,,,,,,,,,,,,,,,,,R_5PyR4YVF9PC296x,1,2024-05-14_09h54.51.733,interaction task,2021.2.3,MacIntel,59.88023952,120210,,,,,,,,,,,,,,,,,Greater,Smaller,,0.340044488,-0.505286458,1,0,0,RightButton,"[""RightButton""]",32,2.4205,space,0.5008,,,,,,,,,,,,,,0,40,40,40,1,1,both_wrong.png,0,RandomDot12.png,No answer,21,,,
,,,,,,,,,,,,,,,,,,,,,,,,,,,,,,,R_5PyR4YVF9PC296x,1,2024-05-14_09h54.51.733,interaction task,2021.2.3,MacIntel,59.88023952,120210,,,,,,,,,,,,,,,,,Smaller,Greater,,-0.257823351,-0.481414931,1,0,0,LeftButton,"[""LeftButton""]",,,,,,,,,,,,,53.01572583,3.2141,space,49.91286564,4.9033,0,41,41,41,1,1,both_wrong.png,3,RandomDot25.png,No answer,21,,,0.5901
