choose_trial,key_resp.keys,key_resp.rt,key_resp_4.keys,key_resp_4.rt,session_trait,slider_face_judge.response,slider_face_judge.rt,key_resp_3.keys,key_resp_3.rt,face_loop.thisRepN,face_loop.thisTrialN,face_loop.thisN,face_loop.thisIndex,face_loop.ran,face_serial,image_name,isCheck,answer,check_question,participant,session,date,expName,psychopyVersion,OS,frameRate,SONAid,session.thisRepN,session.thisTrialN,session.thisN,session.thisIndex,session.ran,session_serial,slider_judge_img
"[0,1,2,3,4,5,6,7,8,9,10,11,12,13,14,15,16,17,18,19,20,21,22,23,24,25,26,27,28,29,30,31,32,33,34,35,36,37,38,39,40,41,42,43,44,45,46,47,48,49,58,56,60]",space,24.5843,space,35.3983,friendly,3.003776042,6.6392,space,0.7843,0,0,0,40,1,41,image/41.jpg,0,0,,R_5PyR4YVF9PC296x,2,2024-05-14_10h12.59.305,face trait task,2021.2.3,MacIntel,59.88023952,120210,,,,,,,
,,,,,,3.979609375,1.9563,space,1.4247,0,1,1,43,1,44,image/44.jpg,0,0,,R_5PyR4YVF9PC296x,2,2024-05-14_10h12.59.305,face trait task,2021.2.3,MacIntel,59.88023952,120210,,,,,,,
,,,,,,2.01828125,4.3827,space,0.3336,0,2,2,47,1,48,image/48.jpg,0,0,,R_5PyR4YVF9PC296x,2,2024-05-14_10h12.59.305,face trait task,2021.2.3,MacIntel,59.88023952,120210,,,,,,,
,,,,,,6.987708333,12.2529,space,0.9679,0,3,3,51,1,57,image/fill_img.png,1,7,Please move the slider all the way to the RIGHT to show that you are paying attention.,R_5PyR4YVF9PC296x,2,2024-05-14_10h12.59.305,face trait task,2021.2.3,MacIntel,59.88023952,120210,,,,,,,
,,,,,,1.998671875,6.4819,space,0.8375,0,4,4,42,1,43,image/43.jpg,0,0,,R_5PyR4YVF9PC296x,2,2024-05-14_10h12.59.305,face trait task,2021.2.3,MacIntel,59.88023952,120210,,,,,,,
,,,,,,3.008072917,3.348,space,0.5905,0,5,5,5,1,6,image/6.jpg,0,0,,R_5PyR4YVF9PC296x,2,2024-05-14_10h12.59.305,face trait task,2021.2.3,MacIntel,59.88023952,120210,,,,,,,
,,,,,,3.953671875,3.6574,space,0.6833,0,6,6,26,1,27,image/27.jpg,0,0,,R_5PyR4YVF9PC296x,2,2024-05-14_10h12.59.305,face trait task,2021.2.3,MacIntel,59.88023952,120210,,,,,,,
,,,,,,1,4.2293,space,0.7021,0,7,7,41,1,42,image/42.jpg,0,0,,R_5PyR4YVF9PC296x,2,2024-05-14_10h12.59.305,face trait task,2021.2.3,MacIntel,59.88023952,120210,,,,,,,
,,,,,,3.014010417,1.7761,space,0.4757,0,8,8,18,1,19,image/19.jpg,0,0,,R_5PyR4YVF9PC296x,2,2024-05-14_10h12.59.305,face trait task,2021.2.3,MacIntel,59.88023952,120210,,,,,,,
,,,,,,4.951875,2.7039,space,0.4082,0,9,9,2,1,3,image/3.jpg,0,0,,R_5PyR4YVF9PC296x,2,2024-05-14_10h12.59.305,face trait task,2021.2.3,MacIntel,59.88023952,120210,,,,,,,
,,,,,,4.993515625,1.9531,space,0.4074,0,10,10,20,1,21,image/21.jpg,0,0,,R_5PyR4YVF9PC296x,2,2024-05-14_10h12.59.305,face trait task,2021.2.3,MacIntel,59.88023952,120210,,,,,,,
,,,,,,3.997421875,2.4522,space,0.2798,0,11,11,27,1,28,image/28.jpg,0,0,,R_5PyR4YVF9PC296x,2,2024-05-14_10h12.59.305,face trait task,2021.2.3,MacIntel,59.88023952,120210,,,,,,,
,,,,,,2.999296875,1.6881,space,0.2829,0,12,12,24,1,25,image/25.jpg,0,0,,R_5PyR4YVF9PC296x,2,2024-05-14_10h12.59.305,face trait task,2021.2.3,MacIntel,59.88023952,120210,,,,,,,
,,,,,,2.995963542,1.2032,space,0.5397,0,13,13,7,1,8,image/8.jpg,0,0,,R_5PyR4YVF9PC296x,2,2024-05-14_10h12.59.305,face trait task,2021.2.3,MacIntel,59.88023952,120210,,,,,,,
,,,,,,3.972786458,1.6716,space,0.1359,0,14,14,35,1,36,image/36.jpg,0,0,,R_5PyR4YVF9PC296x,2,2024-05-14_10h12.59.305,face trait task,2021.2.3,MacIntel,59.88023952,120210,,,,,,,
,,,,,,3.975130208,2.0864,space,0.3149,0,15,15,25,1,26,image/26.jpg,0,0,,R_5PyR4YVF9PC296x,2,2024-05-14_10h12.59.305,face trait task,2021.2.3,MacIntel,59.88023952,120210,,,,,,,
,,,,,,2.994270833,3.869,space,1.6825,0,16,16,0,1,1,image/1.jpg,0,0,,R_5PyR4YVF9PC296x,2,2024-05-14_10h12.59.305,face trait task,2021.2.3,MacIntel,59.88023952,120210,,,,,,,
,,,,,,2.966953125,3.377,space,0.1338,0,17,17,29,1,30,image/30.jpg,0,0,,R_5PyR4YVF9PC296x,2,2024-05-14_10h12.59.305,face trait task,2021.2.3,MacIntel,59.88023952,120210,,,,,,,
,,,,,,1.997005208,1.7368,space,0.1682,0,18,18,21,1,22,image/22.jpg,0,0,,R_5PyR4YVF9PC296x,2,2024-05-14_10h12.59.305,face trait task,2021.2.3,MacIntel,59.88023952,120210,,,,,,,
,,,,,,3.01296875,1.8215,space,0.2409,0,19,19,12,1,13,image/13.jpg,0,0,,R_5PyR4YVF9PC296x,2,2024-05-14_10h12.59.305,face trait task,2021.2.3,MacIntel,59.88023952,120210,,,,,,,
,,,,,,1.992942708,2.6864,space,0.2401,0,20,20,9,1,10,image/10.jpg,0,0,,R_5PyR4YVF9PC296x,2,2024-05-14_10h12.59.305,face trait task,2021.2.3,MacIntel,59.88023952,120210,,,,,,,
,,,,,,2.966380208,2.2878,space,0.5539,0,21,21,44,1,45,image/45.jpg,0,0,,R_5PyR4YVF9PC296x,2,2024-05-14_10h12.59.305,face trait task,2021.2.3,MacIntel,59.88023952,120210,,,,,,,
,,,,,,4.041640625,1.3898,space,0.2803,0,22,22,17,1,18,image/18.jpg,0,0,,R_5PyR4YVF9PC296x,2,2024-05-14_10h12.59.305,face trait task,2021.2.3,MacIntel,59.88023952,120210,,,,,,,
,,,,,,6.959296875,3.3705,space,0.736,0,23,23,52,1,61,image/fill_img.png,1,7,Please move the slider all the way to the RIGHT to show that you are paying attention.,R_5PyR4YVF9PC296x,2,2024-05-14_10h12.59.305,face trait task,2021.2.3,MacIntel,59.88023952,120210,,,,,,,
,,,,,,3.050416667,4.3598,space,0.2016,0,24,24,23,1,24,image/24.jpg,0,0,,R_5PyR4YVF9PC296x,2,2024-05-14_10h12.59.305,face trait task,2021.2.3,MacIntel,59.88023952,120210,,,,,,,
,,,,,,1.9615625,2.5221,space,0.1693,0,25,25,14,1,15,image/15.jpg,0,0,,R_5PyR4YVF9PC296x,2,2024-05-14_10h12.59.305,face trait task,2021.2.3,MacIntel,59.88023952,120210,,,,,,,
,,,,,,1.004140625,2.5056,space,0.2929,0,26,26,8,1,9,image/9.jpg,0,0,,R_5PyR4YVF9PC296x,2,2024-05-14_10h12.59.305,face trait task,2021.2.3,MacIntel,59.88023952,120210,,,,,,,
,,,,,,1.959427083,2.5728,space,0.2732,0,27,27,19,1,20,image/20.jpg,0,0,,R_5PyR4YVF9PC296x,2,2024-05-14_10h12.59.305,face trait task,2021.2.3,MacIntel,59.88023952,120210,,,,,,,
,,,,,,4.00328125,2.1518,space,0.583,0,28,28,32,1,33,image/33.jpg,0,0,,R_5PyR4YVF9PC296x,2,2024-05-14_10h12.59.305,face trait task,2021.2.3,MacIntel,59.88023952,120210,,,,,,,
,,,,,,4.98171875,2.6606,space,0.6719,0,29,29,33,1,34,image/34.jpg,0,0,,R_5PyR4YVF9PC296x,2,2024-05-14_10h12.59.305,face trait task,2021.2.3,MacIntel,59.88023952,120210,,,,,,,
,,,,,,3.979765625,3.0078,space,0.534,0,30,30,49,1,50,image/50.jpg,0,0,,R_5PyR4YVF9PC296x,2,2024-05-14_10h12.59.305,face trait task,2021.2.3,MacIntel,59.88023952,120210,,,,,,,
,,,,,,4.974114583,2.1887,space,0.2866,0,31,31,4,1,5,image/5.jpg,0,0,,R_5PyR4YVF9PC296x,2,2024-05-14_10h12.59.305,face trait task,2021.2.3,MacIntel,59.88023952,120210,,,,,,,
,,,,,,4.024270833,1.7209,space,0.3056,0,32,32,45,1,46,image/46.jpg,0,0,,R_5PyR4YVF9PC296x,2,2024-05-14_10h12.59.305,face trait task,2021.2.3,MacIntel,59.88023952,120210,,,,,,,
,,,,,,3.015234375,2.2718,space,0.2419,0,33,33,28,1,29,image/29.jpg,0,0,,R_5PyR4YVF9PC296x,2,2024-05-14_10h12.59.305,face trait task,2021.2.3,MacIntel,59.88023952,120210,,,,,,,
,,,,,,2.035677083,1.7374,space,0.1681,0,34,34,37,1,38,image/38.jpg,0,0,,R_5PyR4YVF9PC296x,2,2024-05-14_10h12.59.305,face trait task,2021.2.3,MacIntel,59.88023952,120210,,,,,,,
,,,,,,6.997369792,2.9768,space,0.4191,0,35,35,50,1,59,image/fill_img.png,1,7,Please move the slider all the way to the RIGHT to show that you are paying attention.,R_5PyR4YVF9PC296x,2,2024-05-14_10h12.59.305,face trait task,2021.2.3,MacIntel,59.88023952,120210,,,,,,,
,,,,,,1.034348958,3.6984,space,0.2298,0,36,36,16,1,17,image/17.jpg,0,0,,R_5PyR4YVF9PC296x,2,2024-05-14_10h12.59.305,face trait task,2021.2.3,MacIntel,59.88023952,120210,,,,,,,
,,,,,,1,2.3027,space,0.3788,0,37,37,38,1,39,image/39.jpg,0,0,,R_5PyR4YVF9PC296x,2,2024-05-14_10h12.59.305,face trait task,2021.2.3,MacIntel,59.88023952,120210,,,,,,,
,,,,,,3.002083333,1.8401,space,0.5358,0,38,38,15,1,16,image/16.jpg,0,0,,R_5PyR4YVF9PC296x,2,2024-05-14_10h12.59.305,face trait task,2021.2.3,MacIntel,59.88023952,120210,,,,,,,
,,,,,,1.969609375,2.1042,space,0.2229,0,39,39,39,1,40,image/40.jpg,0,0,,R_5PyR4YVF9PC296x,2,2024-05-14_10h12.59.305,face trait task,2021.2.3,MacIntel,59.88023952,120210,,,,,,,
,,,,,,2.014427083,3.1881,space,0.4899,0,40,40,22,1,23,image/23.jpg,0,0,,R_5PyR4YVF9PC296x,2,2024-05-14_10h12.59.305,face trait task,2021.2.3,MacIntel,59.88023952,120210,,,,,,,
,,,,,,2.989192708,4.0492,space,1.0535,0,41,41,1,1,2,image/2.jpg,0,0,,R_5PyR4YVF9PC296x,2,2024-05-14_10h12.59.305,face trait task,2021.2.3,MacIntel,59.88023952,120210,,,,,,,
,,,,,,5.012057292,2.2716,space,0.4858,0,42,42,46,1,47,image/47.jpg,0,0,,R_5PyR4YVF9PC296x,2,2024-05-14_10h12.59.305,face trait task,2021.2.3,MacIntel,59.88023952,120210,,,,,,,
,,,,,,5.98671875,3.481,space,0.2877,0,43,43,10,1,11,image/11.jpg,0,0,,R_5PyR4YVF9PC296x,2,2024-05-14_10h12.59.305,face trait task,2021.2.3,MacIntel,59.88023952,120210,,,,,,,
,,,,,,5.98671875,1.987,space,0.4391,0,44,44,34,1,35,image/35.jpg,0,0,,R_5PyR4YVF9PC296x,2,2024-05-14_10h12.59.305,face trait task,2021.2.3,MacIntel,59.88023952,120210,,,,,,,
,,,,,,2.03984375,2.0702,space,0.6188,0,45,45,30,1,31,image/31.jpg,0,0,,R_5PyR4YVF9PC296x,2,2024-05-14_10h12.59.305,face trait task,2021.2.3,MacIntel,59.88023952,120210,,,,,,,
,,,,,,2.993697917,1.9525,space,0.3004,0,46,46,6,1,7,image/7.jpg,0,0,,R_5PyR4YVF9PC296x,2,2024-05-14_10h12.59.305,face trait task,2021.2.3,MacIntel,59.88023952,120210,,,,,,,
,,,,,,5.041041667,1.8218,space,0.5585,0,47,47,48,1,49,image/49.jpg,0,0,,R_5PyR4YVF9PC296x,2,2024-05-14_10h12.59.305,face trait task,2021.2.3,MacIntel,59.88023952,120210,,,,,,,
,,,,,,4.006015625,1.6425,space,0.4066,0,48,48,36,1,37,image/37.jpg,0,0,,R_5PyR4YVF9PC296x,2,2024-05-14_10h12.59.305,face trait task,2021.2.3,MacIntel,59.88023952,120210,,,,,,,
,,,,,,4.0278125,2.6066,space,0.6237,0,49,49,11,1,12,image/12.jpg,0,0,,R_5PyR4YVF9PC296x,2,2024-05-14_10h12.59.305,face trait task,2021.2.3,MacIntel,59.88023952,120210,,,,,,,
,,,,,,2.951067708,1.6847,space,0.9348,0,50,50,31,1,32,image/32.jpg,0,0,,R_5PyR4YVF9PC296x,2,2024-05-14_10h12.59.305,face trait task,2021.2.3,MacIntel,59.88023952,120210,,,,,,,
,,,,,,5.014869792,1.8355,space,0.3226,0,51,51,3,1,4,image/4.jpg,0,0,,R_5PyR4YVF9PC296x,2,2024-05-14_10h12.59.305,face trait task,2021.2.3,MacIntel,59.88023952,120210,,,,,,,
,,,,,,2.026067708,1.557,space,0.302,0,52,52,13,1,14,image/14.jpg,0,0,,R_5PyR4YVF9PC296x,2,2024-05-14_10h12.59.305,face trait task,2021.2.3,MacIntel,59.88023952,120210,,,,,,,
,,,,,,,,,,,,,,,,,,,,R_5PyR4YVF9PC296x,2,2024-05-14_10h12.59.305,face trait task,2021.2.3,MacIntel,59.88023952,120210,0,0,0,3,1,3,friendly.png
,,,,,competent,4.007265625,8.5603,space,0.7203,0,0,0,21,1,22,image/22.jpg,0,0,,R_5PyR4YVF9PC296x,2,2024-05-14_10h12.59.305,face trait task,2021.2.3,MacIntel,59.88023952,120210,,,,,,,
,,,,,,4.9809375,2.753,space,0.4516,0,1,1,10,1,11,image/11.jpg,0,0,,R_5PyR4YVF9PC296x,2,2024-05-14_10h12.59.305,face trait task,2021.2.3,MacIntel,59.88023952,120210,,,,,,,
,,,,,,2.974192708,1.905,space,0.4565,0,2,2,39,1,40,image/40.jpg,0,0,,R_5PyR4YVF9PC296x,2,2024-05-14_10h12.59.305,face trait task,2021.2.3,MacIntel,59.88023952,120210,,,,,,,
,,,,,,2.993307292,2.8633,space,0.3028,0,3,3,26,1,27,image/27.jpg,0,0,,R_5PyR4YVF9PC296x,2,2024-05-14_10h12.59.305,face trait task,2021.2.3,MacIntel,59.88023952,120210,,,,,,,
,,,,,,2.989973958,2.3569,space,0.3415,0,4,4,25,1,26,image/26.jpg,0,0,,R_5PyR4YVF9PC296x,2,2024-05-14_10h12.59.305,face trait task,2021.2.3,MacIntel,59.88023952,120210,,,,,,,
,,,,,,5.037421875,2.2571,space,0.3565,0,5,5,20,1,21,image/21.jpg,0,0,,R_5PyR4YVF9PC296x,2,2024-05-14_10h12.59.305,face trait task,2021.2.3,MacIntel,59.88023952,120210,,,,,,,
,,,,,,6.014453125,4.7546,space,3.3391,0,6,6,2,1,3,image/3.jpg,0,0,,R_5PyR4YVF9PC296x,2,2024-05-14_10h12.59.305,face trait task,2021.2.3,MacIntel,59.88023952,120210,,,,,,,
,,,,,,6.014453125,1.7908,space,0.5236,0,7,7,46,1,47,image/47.jpg,0,0,,R_5PyR4YVF9PC296x,2,2024-05-14_10h12.59.305,face trait task,2021.2.3,MacIntel,59.88023952,120210,,,,,,,
,,,,,,4.02234375,2.4338,space,0.3315,0,8,8,45,1,46,image/46.jpg,0,0,,R_5PyR4YVF9PC296x,2,2024-05-14_10h12.59.305,face trait task,2021.2.3,MacIntel,59.88023952,120210,,,,,,,
,,,,,,3.014739583,3.2607,space,0.3589,0,9,9,40,1,41,image/41.jpg,0,0,,R_5PyR4YVF9PC296x,2,2024-05-14_10h12.59.305,face trait task,2021.2.3,MacIntel,59.88023952,120210,,,,,,,
,,,,,,5.008463542,1.6722,space,0.3189,0,10,10,33,1,34,image/34.jpg,0,0,,R_5PyR4YVF9PC296x,2,2024-05-14_10h12.59.305,face trait task,2021.2.3,MacIntel,59.88023952,120210,,,,,,,
,,,,,,4.024947917,4.4137,space,0.2069,0,11,11,15,1,16,image/16.jpg,0,0,,R_5PyR4YVF9PC296x,2,2024-05-14_10h12.59.305,face trait task,2021.2.3,MacIntel,59.88023952,120210,,,,,,,
,,,,,,5.026432292,3.1498,space,0.2688,0,12,12,8,1,9,image/9.jpg,0,0,,R_5PyR4YVF9PC296x,2,2024-05-14_10h12.59.305,face trait task,2021.2.3,MacIntel,59.88023952,120210,,,,,,,
,,,,,,5.017942708,2.5876,space,0.3521,0,13,13,23,1,24,image/24.jpg,0,0,,R_5PyR4YVF9PC296x,2,2024-05-14_10h12.59.305,face trait task,2021.2.3,MacIntel,59.88023952,120210,,,,,,,
,,,,,,4.989244792,2.6875,space,0.2916,0,14,14,35,1,36,image/36.jpg,0,0,,R_5PyR4YVF9PC296x,2,2024-05-14_10h12.59.305,face trait task,2021.2.3,MacIntel,59.88023952,120210,,,,,,,
,,,,,,5.97546875,4.104,space,2.3893,0,15,15,0,1,1,image/1.jpg,0,0,,R_5PyR4YVF9PC296x,2,2024-05-14_10h12.59.305,face trait task,2021.2.3,MacIntel,59.88023952,120210,,,,,,,
,,,,,,4.031015625,2.1367,space,0.4239,0,16,16,37,1,38,image/38.jpg,0,0,,R_5PyR4YVF9PC296x,2,2024-05-14_10h12.59.305,face trait task,2021.2.3,MacIntel,59.88023952,120210,,,,,,,
,,,,,,4.031015625,2.2536,space,0.2428,0,17,17,4,1,5,image/5.jpg,0,0,,R_5PyR4YVF9PC296x,2,2024-05-14_10h12.59.305,face trait task,2021.2.3,MacIntel,59.88023952,120210,,,,,,,
,,,,,,2.959166667,2.4713,space,0.3252,0,18,18,31,1,32,image/32.jpg,0,0,,R_5PyR4YVF9PC296x,2,2024-05-14_10h12.59.305,face trait task,2021.2.3,MacIntel,59.88023952,120210,,,,,,,
,,,,,,4.026510417,1.9685,space,0.3083,0,19,19,19,1,20,image/20.jpg,0,0,,R_5PyR4YVF9PC296x,2,2024-05-14_10h12.59.305,face trait task,2021.2.3,MacIntel,59.88023952,120210,,,,,,,
,,,,,,4.02984375,1.6429,space,0.2905,0,20,20,13,1,14,image/14.jpg,0,0,,R_5PyR4YVF9PC296x,2,2024-05-14_10h12.59.305,face trait task,2021.2.3,MacIntel,59.88023952,120210,,,,,,,
,,,,,,7,2.2042,space,0.335,0,21,21,52,1,61,image/fill_img.png,1,7,Please move the slider all the way to the RIGHT to show that you are paying attention.,R_5PyR4YVF9PC296x,2,2024-05-14_10h12.59.305,face trait task,2021.2.3,MacIntel,59.88023952,120210,,,,,,,
,,,,,,5.051380208,1.5832,space,0.2337,0,22,22,24,1,25,image/25.jpg,0,0,,R_5PyR4YVF9PC296x,2,2024-05-14_10h12.59.305,face trait task,2021.2.3,MacIntel,59.88023952,120210,,,,,,,
,,,,,,3.988385417,1.8565,space,0.3356,0,23,23,48,1,49,image/49.jpg,0,0,,R_5PyR4YVF9PC296x,2,2024-05-14_10h12.59.305,face trait task,2021.2.3,MacIntel,59.88023952,120210,,,,,,,
,,,,,,4.964583333,1.7596,space,0.5666,0,24,24,47,1,48,image/48.jpg,0,0,,R_5PyR4YVF9PC296x,2,2024-05-14_10h12.59.305,face trait task,2021.2.3,MacIntel,59.88023952,120210,,,,,,,
,,,,,,6.0325,2.4927,space,0.1892,0,25,25,43,1,44,image/44.jpg,0,0,,R_5PyR4YVF9PC296x,2,2024-05-14_10h12.59.305,face trait task,2021.2.3,MacIntel,59.88023952,120210,,,,,,,
,,,,,,2.987473958,1.8044,space,1.9902,0,26,26,11,1,12,image/12.jpg,0,0,,R_5PyR4YVF9PC296x,2,2024-05-14_10h12.59.305,face trait task,2021.2.3,MacIntel,59.88023952,120210,,,,,,,
,,,,,,6.982552083,3.5822,space,0.3343,0,27,27,50,1,59,image/fill_img.png,1,7,Please move the slider all the way to the RIGHT to show that you are paying attention.,R_5PyR4YVF9PC296x,2,2024-05-14_10h12.59.305,face trait task,2021.2.3,MacIntel,59.88023952,120210,,,,,,,
,,,,,,3.957057292,3.3194,space,0.273,0,28,28,29,1,30,image/30.jpg,0,0,,R_5PyR4YVF9PC296x,2,2024-05-14_10h12.59.305,face trait task,2021.2.3,MacIntel,59.88023952,120210,,,,,,,
,,,,,,5.001041667,2.0917,space,0.2673,0,29,29,22,1,23,image/23.jpg,0,0,,R_5PyR4YVF9PC296x,2,2024-05-14_10h12.59.305,face trait task,2021.2.3,MacIntel,59.88023952,120210,,,,,,,
,,,,,,4.997708333,1.406,space,0.3767,0,30,30,9,1,10,image/10.jpg,0,0,,R_5PyR4YVF9PC296x,2,2024-05-14_10h12.59.305,face trait task,2021.2.3,MacIntel,59.88023952,120210,,,,,,,
,,,,,,3.046015625,1.7367,space,0.3081,0,31,31,42,1,43,image/43.jpg,0,0,,R_5PyR4YVF9PC296x,2,2024-05-14_10h12.59.305,face trait task,2021.2.3,MacIntel,59.88023952,120210,,,,,,,
,,,,,,3.999166667,2.7924,space,0.2696,0,32,32,36,1,37,image/37.jpg,0,0,,R_5PyR4YVF9PC296x,2,2024-05-14_10h12.59.305,face trait task,2021.2.3,MacIntel,59.88023952,120210,,,,,,,
,,,,,,6.013567708,2.2074,space,0.1671,0,33,33,3,1,4,image/4.jpg,0,0,,R_5PyR4YVF9PC296x,2,2024-05-14_10h12.59.305,face trait task,2021.2.3,MacIntel,59.88023952,120210,,,,,,,
,,,,,,3.971979167,2.7634,space,0.2422,0,34,34,1,1,2,image/2.jpg,0,0,,R_5PyR4YVF9PC296x,2,2024-05-14_10h12.59.305,face trait task,2021.2.3,MacIntel,59.88023952,120210,,,,,,,
,,,,,,4.952369792,2.3557,space,0.3717,0,35,35,14,1,15,image/15.jpg,0,0,,R_5PyR4YVF9PC296x,2,2024-05-14_10h12.59.305,face trait task,2021.2.3,MacIntel,59.88023952,120210,,,,,,,
,,,,,,4.987265625,1.9536,space,0.4943,0,36,36,6,1,7,image/7.jpg,0,0,,R_5PyR4YVF9PC296x,2,2024-05-14_10h12.59.305,face trait task,2021.2.3,MacIntel,59.88023952,120210,,,,,,,
,,,,,,3.017942708,2.419,space,0.3708,0,37,37,38,1,39,image/39.jpg,0,0,,R_5PyR4YVF9PC296x,2,2024-05-14_10h12.59.305,face trait task,2021.2.3,MacIntel,59.88023952,120210,,,,,,,
,,,,,,4.029270833,3.2975,space,0.3848,0,38,38,12,1,13,image/13.jpg,0,0,,R_5PyR4YVF9PC296x,2,2024-05-14_10h12.59.305,face trait task,2021.2.3,MacIntel,59.88023952,120210,,,,,,,
,,,,,,3.034609375,1.8537,space,0.3032,0,39,39,32,1,33,image/33.jpg,0,0,,R_5PyR4YVF9PC296x,2,2024-05-14_10h12.59.305,face trait task,2021.2.3,MacIntel,59.88023952,120210,,,,,,,
,,,,,,4.030755208,2.0558,space,0.2963,0,40,40,5,1,6,image/6.jpg,0,0,,R_5PyR4YVF9PC296x,2,2024-05-14_10h12.59.305,face trait task,2021.2.3,MacIntel,59.88023952,120210,,,,,,,
,,,,,,4.025390625,1.6571,space,0.2725,0,41,41,18,1,19,image/19.jpg,0,0,,R_5PyR4YVF9PC296x,2,2024-05-14_10h12.59.305,face trait task,2021.2.3,MacIntel,59.88023952,120210,,,,,,,
,,,,,,5.034609375,1.4895,space,0.2097,0,42,42,17,1,18,image/18.jpg,0,0,,R_5PyR4YVF9PC296x,2,2024-05-14_10h12.59.305,face trait task,2021.2.3,MacIntel,59.88023952,120210,,,,,,,
,,,,,,5.037135417,1.1026,space,0.2673,0,43,43,7,1,8,image/8.jpg,0,0,,R_5PyR4YVF9PC296x,2,2024-05-14_10h12.59.305,face trait task,2021.2.3,MacIntel,59.88023952,120210,,,,,,,
,,,,,,4.975052083,3.0138,space,0.2031,0,44,44,34,1,35,image/35.jpg,0,0,,R_5PyR4YVF9PC296x,2,2024-05-14_10h12.59.305,face trait task,2021.2.3,MacIntel,59.88023952,120210,,,,,,,
,,,,,,3.984088542,1.4872,space,0.2407,0,45,45,41,1,42,image/42.jpg,0,0,,R_5PyR4YVF9PC296x,2,2024-05-14_10h12.59.305,face trait task,2021.2.3,MacIntel,59.88023952,120210,,,,,,,
,,,,,,6.995416667,2.5706,space,0.5289,0,46,46,51,1,57,image/fill_img.png,1,7,Please move the slider all the way to the RIGHT to show that you are paying attention.,R_5PyR4YVF9PC296x,2,2024-05-14_10h12.59.305,face trait task,2021.2.3,MacIntel,59.88023952,120210,,,,,,,
,,,,,,3.005130208,1.9177,space,0.74,0,47,47,30,1,31,image/31.jpg,0,0,,R_5PyR4YVF9PC296x,2,2024-05-14_10h12.59.305,face trait task,2021.2.3,MacIntel,59.88023952,120210,,,,,,,
,,,,,,3.998880208,3.1041,space,0.2429,0,48,48,49,1,50,image/50.jpg,0,0,,R_5PyR4YVF9PC296x,2,2024-05-14_10h12.59.305,face trait task,2021.2.3,MacIntel,59.88023952,120210,,,,,,,
,,,,,,2.970989583,1.6908,space,0.2357,0,49,49,28,1,29,image/29.jpg,0,0,,R_5PyR4YVF9PC296x,2,2024-05-14_10h12.59.305,face trait task,2021.2.3,MacIntel,59.88023952,120210,,,,,,,
,,,,,,4.038671875,2.2748,space,0.237,0,50,50,44,1,45,image/45.jpg,0,0,,R_5PyR4YVF9PC296x,2,2024-05-14_10h12.59.305,face trait task,2021.2.3,MacIntel,59.88023952,120210,,,,,,,
,,,,,,4.977942708,1.5846,space,0.1518,0,51,51,27,1,28,image/28.jpg,0,0,,R_5PyR4YVF9PC296x,2,2024-05-14_10h12.59.305,face trait task,2021.2.3,MacIntel,59.88023952,120210,,,,,,,
,,,,,,4.981979167,1.5529,space,0.2517,0,52,52,16,1,17,image/17.jpg,0,0,,R_5PyR4YVF9PC296x,2,2024-05-14_10h12.59.305,face trait task,2021.2.3,MacIntel,59.88023952,120210,,,,,,,
,,,,,,,,,,,,,,,,,,,,R_5PyR4YVF9PC296x,2,2024-05-14_10h12.59.305,face trait task,2021.2.3,MacIntel,59.88023952,120210,0,1,1,1,1,1,competent.png
,,,,,trustworthy,4.042005208,4.9937,space,0.3305,0,0,0,27,1,28,image/28.jpg,0,0,,R_5PyR4YVF9PC296x,2,2024-05-14_10h12.59.305,face trait task,2021.2.3,MacIntel,59.88023952,120210,,,,,,,
,,,,,,5.003307292,2.6519,space,0.2273,0,1,1,3,1,4,image/4.jpg,0,0,,R_5PyR4YVF9PC296x,2,2024-05-14_10h12.59.305,face trait task,2021.2.3,MacIntel,59.88023952,120210,,,,,,,
,,,,,,2.984270833,1.7713,space,0.9406,0,2,2,31,1,32,image/32.jpg,0,0,,R_5PyR4YVF9PC296x,2,2024-05-14_10h12.59.305,face trait task,2021.2.3,MacIntel,59.88023952,120210,,,,,,,
,,,,,,4.002708333,1.9419,space,0.3869,0,3,3,20,1,21,image/21.jpg,0,0,,R_5PyR4YVF9PC296x,2,2024-05-14_10h12.59.305,face trait task,2021.2.3,MacIntel,59.88023952,120210,,,,,,,
,,,,,,3.015286458,1.8531,space,0.2529,0,4,4,43,1,44,image/44.jpg,0,0,,R_5PyR4YVF9PC296x,2,2024-05-14_10h12.59.305,face trait task,2021.2.3,MacIntel,59.88023952,120210,,,,,,,
,,,,,,1.961067708,3.4553,space,0.4697,0,5,5,28,1,29,image/29.jpg,0,0,,R_5PyR4YVF9PC296x,2,2024-05-14_10h12.59.305,face trait task,2021.2.3,MacIntel,59.88023952,120210,,,,,,,
,,,,,,1.995260417,1.5088,space,0.3258,0,6,6,39,1,40,image/40.jpg,0,0,,R_5PyR4YVF9PC296x,2,2024-05-14_10h12.59.305,face trait task,2021.2.3,MacIntel,59.88023952,120210,,,,,,,
,,,,,,4.035442708,3.0042,space,0.2319,0,7,7,13,1,14,image/14.jpg,0,0,,R_5PyR4YVF9PC296x,2,2024-05-14_10h12.59.305,face trait task,2021.2.3,MacIntel,59.88023952,120210,,,,,,,
,,,,,,4.998229167,1.772,space,0.3529,0,8,8,10,1,11,image/11.jpg,0,0,,R_5PyR4YVF9PC296x,2,2024-05-14_10h12.59.305,face trait task,2021.2.3,MacIntel,59.88023952,120210,,,,,,,
,,,,,,3.96890625,1.9363,space,0.2344,0,9,9,42,1,43,image/43.jpg,0,0,,R_5PyR4YVF9PC296x,2,2024-05-14_10h12.59.305,face trait task,2021.2.3,MacIntel,59.88023952,120210,,,,,,,
,,,,,,4.987109375,1.5071,space,0.2468,0,10,10,23,1,24,image/24.jpg,0,0,,R_5PyR4YVF9PC296x,2,2024-05-14_10h12.59.305,face trait task,2021.2.3,MacIntel,59.88023952,120210,,,,,,,
,,,,,,3.007161458,2.0849,space,0.1363,0,11,11,8,1,9,image/9.jpg,0,0,,R_5PyR4YVF9PC296x,2,2024-05-14_10h12.59.305,face trait task,2021.2.3,MacIntel,59.88023952,120210,,,,,,,
,,,,,,2.005807292,3.1765,space,0.17,0,12,12,48,1,49,image/49.jpg,0,0,,R_5PyR4YVF9PC296x,2,2024-05-14_10h12.59.305,face trait task,2021.2.3,MacIntel,59.88023952,120210,,,,,,,
,,,,,,4.003229167,2.0424,space,0.4516,0,13,13,34,1,35,image/35.jpg,0,0,,R_5PyR4YVF9PC296x,2,2024-05-14_10h12.59.305,face trait task,2021.2.3,MacIntel,59.88023952,120210,,,,,,,
,,,,,,5.017734375,2.3687,space,0.9337,0,14,14,47,1,48,image/48.jpg,0,0,,R_5PyR4YVF9PC296x,2,2024-05-14_10h12.59.305,face trait task,2021.2.3,MacIntel,59.88023952,120210,,,,,,,
,,,,,,5.021067708,2.1028,space,1.0835,0,15,15,45,1,46,image/46.jpg,0,0,,R_5PyR4YVF9PC296x,2,2024-05-14_10h12.59.305,face trait task,2021.2.3,MacIntel,59.88023952,120210,,,,,,,
,,,,,,6.025859375,1.9387,space,0.858,0,16,16,12,1,13,image/13.jpg,0,0,,R_5PyR4YVF9PC296x,2,2024-05-14_10h12.59.305,face trait task,2021.2.3,MacIntel,59.88023952,120210,,,,,,,
,,,,,,2.954869792,2.6689,space,0.6342,0,17,17,41,1,42,image/42.jpg,0,0,,R_5PyR4YVF9PC296x,2,2024-05-14_10h12.59.305,face trait task,2021.2.3,MacIntel,59.88023952,120210,,,,,,,
,,,,,,4.006302083,1.6421,space,0.8167,0,18,18,18,1,19,image/19.jpg,0,0,,R_5PyR4YVF9PC296x,2,2024-05-14_10h12.59.305,face trait task,2021.2.3,MacIntel,59.88023952,120210,,,,,,,
,,,,,,5.046588542,3.2859,space,1.2872,0,19,19,25,1,26,image/26.jpg,0,0,,R_5PyR4YVF9PC296x,2,2024-05-14_10h12.59.305,face trait task,2021.2.3,MacIntel,59.88023952,120210,,,,,,,
,,,,,,3.017604167,1.8011,space,0.7307,0,20,20,32,1,33,image/33.jpg,0,0,,R_5PyR4YVF9PC296x,2,2024-05-14_10h12.59.305,face trait task,2021.2.3,MacIntel,59.88023952,120210,,,,,,,
,,,,,,5.040703125,2.4187,space,0.5465,0,21,21,4,1,5,image/5.jpg,0,0,,R_5PyR4YVF9PC296x,2,2024-05-14_10h12.59.305,face trait task,2021.2.3,MacIntel,59.88023952,120210,,,,,,,
,,,,,,2.014739583,2.0528,space,0.5424,0,22,22,37,1,38,image/38.jpg,0,0,,R_5PyR4YVF9PC296x,2,2024-05-14_10h12.59.305,face trait task,2021.2.3,MacIntel,59.88023952,120210,,,,,,,
,,,,,,7,2.5028,space,0.3415,0,23,23,52,1,61,image/fill_img.png,1,7,Please move the slider all the way to the RIGHT to show that you are paying attention.,R_5PyR4YVF9PC296x,2,2024-05-14_10h12.59.305,face trait task,2021.2.3,MacIntel,59.88023952,120210,,,,,,,
,,,,,,4.980182292,3.053,space,1.3988,0,24,24,19,1,20,image/20.jpg,0,0,,R_5PyR4YVF9PC296x,2,2024-05-14_10h12.59.305,face trait task,2021.2.3,MacIntel,59.88023952,120210,,,,,,,
,,,,,,5.031302083,1.8373,space,0.4522,0,25,25,11,1,12,image/12.jpg,0,0,,R_5PyR4YVF9PC296x,2,2024-05-14_10h12.59.305,face trait task,2021.2.3,MacIntel,59.88023952,120210,,,,,,,
,,,,,,3.988645833,2.9741,space,0.2215,0,26,26,44,1,45,image/45.jpg,0,0,,R_5PyR4YVF9PC296x,2,2024-05-14_10h12.59.305,face trait task,2021.2.3,MacIntel,59.88023952,120210,,,,,,,
,,,,,,5.966901042,2.0534,space,0.3582,0,27,27,2,1,3,image/3.jpg,0,0,,R_5PyR4YVF9PC296x,2,2024-05-14_10h12.59.305,face trait task,2021.2.3,MacIntel,59.88023952,120210,,,,,,,
,,,,,,3.982005208,2.1064,space,0.4163,0,28,28,26,1,27,image/27.jpg,0,0,,R_5PyR4YVF9PC296x,2,2024-05-14_10h12.59.305,face trait task,2021.2.3,MacIntel,59.88023952,120210,,,,,,,
,,,,,,2.95875,1.7205,space,0.3198,0,29,29,36,1,37,image/37.jpg,0,0,,R_5PyR4YVF9PC296x,2,2024-05-14_10h12.59.305,face trait task,2021.2.3,MacIntel,59.88023952,120210,,,,,,,
,,,,,,5.055651042,1.5051,space,0.324,0,30,30,49,1,50,image/50.jpg,0,0,,R_5PyR4YVF9PC296x,2,2024-05-14_10h12.59.305,face trait task,2021.2.3,MacIntel,59.88023952,120210,,,,,,,
,,,,,,3.967682292,3.5474,space,0.4754,0,31,31,29,1,30,image/30.jpg,0,0,,R_5PyR4YVF9PC296x,2,2024-05-14_10h12.59.305,face trait task,2021.2.3,MacIntel,59.88023952,120210,,,,,,,
,,,,,,4.992473958,1.6714,space,0.5021,0,32,32,9,1,10,image/10.jpg,0,0,,R_5PyR4YVF9PC296x,2,2024-05-14_10h12.59.305,face trait task,2021.2.3,MacIntel,59.88023952,120210,,,,,,,
,,,,,,2.030390625,1.951,space,0.4186,0,33,33,40,1,41,image/41.jpg,0,0,,R_5PyR4YVF9PC296x,2,2024-05-14_10h12.59.305,face trait task,2021.2.3,MacIntel,59.88023952,120210,,,,,,,
,,,,,,5.026067708,2.4574,space,0.3678,0,34,34,17,1,18,image/18.jpg,0,0,,R_5PyR4YVF9PC296x,2,2024-05-14_10h12.59.305,face trait task,2021.2.3,MacIntel,59.88023952,120210,,,,,,,
,,,,,,6.986692708,3.2996,space,0.5187,0,35,35,51,1,57,image/fill_img.png,1,7,Please move the slider all the way to the RIGHT to show that you are paying attention.,R_5PyR4YVF9PC296x,2,2024-05-14_10h12.59.305,face trait task,2021.2.3,MacIntel,59.88023952,120210,,,,,,,
,,,,,,2.963151042,2.7861,space,0.4404,0,36,36,5,1,6,image/6.jpg,0,0,,R_5PyR4YVF9PC296x,2,2024-05-14_10h12.59.305,face trait task,2021.2.3,MacIntel,59.88023952,120210,,,,,,,
,,,,,,4.006666667,5.956,space,2.9188,0,37,37,22,1,23,image/23.jpg,0,0,,R_5PyR4YVF9PC296x,2,2024-05-14_10h12.59.305,face trait task,2021.2.3,MacIntel,59.88023952,120210,,,,,,,
,,,,,,4.006666667,2.1239,space,0.2269,0,38,38,16,1,17,image/17.jpg,0,0,,R_5PyR4YVF9PC296x,2,2024-05-14_10h12.59.305,face trait task,2021.2.3,MacIntel,59.88023952,120210,,,,,,,
,,,,,,5.053619792,1.8867,space,0.334,0,39,39,21,1,22,image/22.jpg,0,0,,R_5PyR4YVF9PC296x,2,2024-05-14_10h12.59.305,face trait task,2021.2.3,MacIntel,59.88023952,120210,,,,,,,
,,,,,,6.978463542,3.4541,space,0.2442,0,40,40,50,1,59,image/fill_img.png,1,7,Please move the slider all the way to the RIGHT to show that you are paying attention.,R_5PyR4YVF9PC296x,2,2024-05-14_10h12.59.305,face trait task,2021.2.3,MacIntel,59.88023952,120210,,,,,,,
,,,,,,1.946015625,2.6548,space,0.2714,0,41,41,46,1,47,image/47.jpg,0,0,,R_5PyR4YVF9PC296x,2,2024-05-14_10h12.59.305,face trait task,2021.2.3,MacIntel,59.88023952,120210,,,,,,,
,,,,,,3.983880208,1.4677,space,0.2349,0,42,42,14,1,15,image/15.jpg,0,0,,R_5PyR4YVF9PC296x,2,2024-05-14_10h12.59.305,face trait task,2021.2.3,MacIntel,59.88023952,120210,,,,,,,
,,,,,,3.137239583,2.0892,space,0.2191,0,43,43,7,1,8,image/8.jpg,0,0,,R_5PyR4YVF9PC296x,2,2024-05-14_10h12.59.305,face trait task,2021.2.3,MacIntel,59.88023952,120210,,,,,,,
,,,,,,1.271848958,1.9056,space,0.1681,0,44,44,38,1,39,image/39.jpg,0,0,,R_5PyR4YVF9PC296x,2,2024-05-14_10h12.59.305,face trait task,2021.2.3,MacIntel,59.88023952,120210,,,,,,,
,,,,,,4.983046875,4.1523,space,0.1919,0,45,45,15,1,16,image/16.jpg,0,0,,R_5PyR4YVF9PC296x,2,2024-05-14_10h12.59.305,face trait task,2021.2.3,MacIntel,59.88023952,120210,,,,,,,
,,,,,,4.999427083,2.5559,space,0.4573,0,46,46,1,1,2,image/2.jpg,0,0,,R_5PyR4YVF9PC296x,2,2024-05-14_10h12.59.305,face trait task,2021.2.3,MacIntel,59.88023952,120210,,,,,,,
,,,,,,5.995026042,1.6215,space,0.8349,0,47,47,33,1,34,image/34.jpg,0,0,,R_5PyR4YVF9PC296x,2,2024-05-14_10h12.59.305,face trait task,2021.2.3,MacIntel,59.88023952,120210,,,,,,,
,,,,,,2.010572917,1.9863,space,0.3551,0,48,48,30,1,31,image/31.jpg,0,0,,R_5PyR4YVF9PC296x,2,2024-05-14_10h12.59.305,face trait task,2021.2.3,MacIntel,59.88023952,120210,,,,,,,
,,,,,,5.0109375,2.4675,space,0.2176,0,49,49,24,1,25,image/25.jpg,0,0,,R_5PyR4YVF9PC296x,2,2024-05-14_10h12.59.305,face trait task,2021.2.3,MacIntel,59.88023952,120210,,,,,,,
,,,,,,3.993932292,1.6923,space,0.4661,0,50,50,0,1,1,image/1.jpg,0,0,,R_5PyR4YVF9PC296x,2,2024-05-14_10h12.59.305,face trait task,2021.2.3,MacIntel,59.88023952,120210,,,,,,,
,,,,,,4.959010417,1.9741,space,0.3328,0,51,51,6,1,7,image/7.jpg,0,0,,R_5PyR4YVF9PC296x,2,2024-05-14_10h12.59.305,face trait task,2021.2.3,MacIntel,59.88023952,120210,,,,,,,
,,,,,,5.887890625,3.0217,space,0.3005,0,52,52,35,1,36,image/36.jpg,0,0,,R_5PyR4YVF9PC296x,2,2024-05-14_10h12.59.305,face trait task,2021.2.3,MacIntel,59.88023952,120210,,,,,,,
,,,,,,,,,,,,,,,,,,,,R_5PyR4YVF9PC296x,2,2024-05-14_10h12.59.305,face trait task,2021.2.3,MacIntel,59.88023952,120210,0,2,2,2,1,2,trustworthy.png
,,,,,critical,3.030598958,3.637,space,0.3514,0,0,0,47,1,48,image/48.jpg,0,0,,R_5PyR4YVF9PC296x,2,2024-05-14_10h12.59.305,face trait task,2021.2.3,MacIntel,59.88023952,120210,,,,,,,
,,,,,,1.541875,5.3613,space,0.2728,0,1,1,2,1,3,image/3.jpg,0,0,,R_5PyR4YVF9PC296x,2,2024-05-14_10h12.59.305,face trait task,2021.2.3,MacIntel,59.88023952,120210,,,,,,,
,,,,,,3.978958333,3.1886,space,0.2543,0,2,2,8,1,9,image/9.jpg,0,0,,R_5PyR4YVF9PC296x,2,2024-05-14_10h12.59.305,face trait task,2021.2.3,MacIntel,59.88023952,120210,,,,,,,
,,,,,,1.650572917,2.8324,space,0.2463,0,3,3,6,1,7,image/7.jpg,0,0,,R_5PyR4YVF9PC296x,2,2024-05-14_10h12.59.305,face trait task,2021.2.3,MacIntel,59.88023952,120210,,,,,,,
,,,,,,3.946015625,3.2898,space,0.189,0,4,4,44,1,45,image/45.jpg,0,0,,R_5PyR4YVF9PC296x,2,2024-05-14_10h12.59.305,face trait task,2021.2.3,MacIntel,59.88023952,120210,,,,,,,
,,,,,,2.773229167,2.6016,space,0.2718,0,5,5,34,1,35,image/35.jpg,0,0,,R_5PyR4YVF9PC296x,2,2024-05-14_10h12.59.305,face trait task,2021.2.3,MacIntel,59.88023952,120210,,,,,,,
,,,,,,2.031432292,2.2375,space,0.5059,0,6,6,29,1,30,image/30.jpg,0,0,,R_5PyR4YVF9PC296x,2,2024-05-14_10h12.59.305,face trait task,2021.2.3,MacIntel,59.88023952,120210,,,,,,,
,,,,,,2.015364583,2.3843,space,0.484,0,7,7,49,1,50,image/50.jpg,0,0,,R_5PyR4YVF9PC296x,2,2024-05-14_10h12.59.305,face trait task,2021.2.3,MacIntel,59.88023952,120210,,,,,,,
,,,,,,6.980026042,5.3637,space,0.3934,0,8,8,51,1,57,image/fill_img.png,1,7,Please move the slider all the way to the RIGHT to show that you are paying attention.,R_5PyR4YVF9PC296x,2,2024-05-14_10h12.59.305,face trait task,2021.2.3,MacIntel,59.88023952,120210,,,,,,,
,,,,,,1.99640625,1.9199,space,0.5152,0,9,9,3,1,4,image/4.jpg,0,0,,R_5PyR4YVF9PC296x,2,2024-05-14_10h12.59.305,face trait task,2021.2.3,MacIntel,59.88023952,120210,,,,,,,
,,,,,,4.620364583,2.7869,space,0.3436,0,10,10,19,1,20,image/20.jpg,0,0,,R_5PyR4YVF9PC296x,2,2024-05-14_10h12.59.305,face trait task,2021.2.3,MacIntel,59.88023952,120210,,,,,,,
,,,,,,2.004739583,4.2225,space,1.8921,0,11,11,33,1,34,image/34.jpg,0,0,,R_5PyR4YVF9PC296x,2,2024-05-14_10h12.59.305,face trait task,2021.2.3,MacIntel,59.88023952,120210,,,,,,,
,,,,,,4.016015625,2.138,space,0.4915,0,12,12,31,1,32,image/32.jpg,0,0,,R_5PyR4YVF9PC296x,2,2024-05-14_10h12.59.305,face trait task,2021.2.3,MacIntel,59.88023952,120210,,,,,,,
,,,,,,5.03578125,2.0893,space,0.3896,0,13,13,21,1,22,image/22.jpg,0,0,,R_5PyR4YVF9PC296x,2,2024-05-14_10h12.59.305,face trait task,2021.2.3,MacIntel,59.88023952,120210,,,,,,,
,,,,,,6.96859375,2.1875,space,0.4724,0,14,14,52,1,61,image/fill_img.png,1,7,Please move the slider all the way to the RIGHT to show that you are paying attention.,R_5PyR4YVF9PC296x,2,2024-05-14_10h12.59.305,face trait task,2021.2.3,MacIntel,59.88023952,120210,,,,,,,
,,,,,,6.008255208,1.6369,space,0.4338,0,15,15,26,1,27,image/27.jpg,0,0,,R_5PyR4YVF9PC296x,2,2024-05-14_10h12.59.305,face trait task,2021.2.3,MacIntel,59.88023952,120210,,,,,,,
,,,,,,6.960546875,2.4886,space,0.2577,0,16,16,50,1,59,image/fill_img.png,1,7,Please move the slider all the way to the RIGHT to show that you are paying attention.,R_5PyR4YVF9PC296x,2,2024-05-14_10h12.59.305,face trait task,2021.2.3,MacIntel,59.88023952,120210,,,,,,,
,,,,,,3.046744792,3.4566,space,0.4006,0,17,17,10,1,11,image/11.jpg,0,0,,R_5PyR4YVF9PC296x,2,2024-05-14_10h12.59.305,face trait task,2021.2.3,MacIntel,59.88023952,120210,,,,,,,
,,,,,,4.693984375,1.772,space,0.2607,0,18,18,42,1,43,image/43.jpg,0,0,,R_5PyR4YVF9PC296x,2,2024-05-14_10h12.59.305,face trait task,2021.2.3,MacIntel,59.88023952,120210,,,,,,,
,,,,,,5.096015625,2.5406,space,0.3074,0,19,19,45,1,46,image/46.jpg,0,0,,R_5PyR4YVF9PC296x,2,2024-05-14_10h12.59.305,face trait task,2021.2.3,MacIntel,59.88023952,120210,,,,,,,
,,,,,,3.897526042,6.4976,space,0.5345,0,20,20,46,1,47,image/47.jpg,0,0,,R_5PyR4YVF9PC296x,2,2024-05-14_10h12.59.305,face trait task,2021.2.3,MacIntel,59.88023952,120210,,,,,,,
,,,,,,5.034453125,3.5893,space,0.2847,0,21,21,13,1,14,image/14.jpg,0,0,,R_5PyR4YVF9PC296x,2,2024-05-14_10h12.59.305,face trait task,2021.2.3,MacIntel,59.88023952,120210,,,,,,,
,,,,,,2.92671875,4.0942,space,0.3183,0,22,22,25,1,26,image/26.jpg,0,0,,R_5PyR4YVF9PC296x,2,2024-05-14_10h12.59.305,face trait task,2021.2.3,MacIntel,59.88023952,120210,,,,,,,
,,,,,,2.949609375,2.3735,space,0.6847,0,23,23,0,1,1,image/1.jpg,0,0,,R_5PyR4YVF9PC296x,2,2024-05-14_10h12.59.305,face trait task,2021.2.3,MacIntel,59.88023952,120210,,,,,,,
,,,,,,4.856510417,1.6031,space,0.2519,0,24,24,43,1,44,image/44.jpg,0,0,,R_5PyR4YVF9PC296x,2,2024-05-14_10h12.59.305,face trait task,2021.2.3,MacIntel,59.88023952,120210,,,,,,,
,,,,,,5.95390625,1.7681,space,0.1882,0,25,25,30,1,31,image/31.jpg,0,0,,R_5PyR4YVF9PC296x,2,2024-05-14_10h12.59.305,face trait task,2021.2.3,MacIntel,59.88023952,120210,,,,,,,
,,,,,,4.612890625,2.405,space,0.3185,0,26,26,36,1,37,image/37.jpg,0,0,,R_5PyR4YVF9PC296x,2,2024-05-14_10h12.59.305,face trait task,2021.2.3,MacIntel,59.88023952,120210,,,,,,,
,,,,,,3.951067708,1.6241,space,0.5846,0,27,27,11,1,12,image/12.jpg,0,0,,R_5PyR4YVF9PC296x,2,2024-05-14_10h12.59.305,face trait task,2021.2.3,MacIntel,59.88023952,120210,,,,,,,
,,,,,,5.05078125,1.5373,space,0.2692,0,28,28,37,1,38,image/38.jpg,0,0,,R_5PyR4YVF9PC296x,2,2024-05-14_10h12.59.305,face trait task,2021.2.3,MacIntel,59.88023952,120210,,,,,,,
,,,,,,3.051614583,2.4534,space,0.1853,0,29,29,9,1,10,image/10.jpg,0,0,,R_5PyR4YVF9PC296x,2,2024-05-14_10h12.59.305,face trait task,2021.2.3,MacIntel,59.88023952,120210,,,,,,,
,,,,,,4.021197917,1.8205,space,0.1375,0,30,30,22,1,23,image/23.jpg,0,0,,R_5PyR4YVF9PC296x,2,2024-05-14_10h12.59.305,face trait task,2021.2.3,MacIntel,59.88023952,120210,,,,,,,
,,,,,,6.024505208,3.132,space,0.4408,0,31,31,41,1,42,image/42.jpg,0,0,,R_5PyR4YVF9PC296x,2,2024-05-14_10h12.59.305,face trait task,2021.2.3,MacIntel,59.88023952,120210,,,,,,,
,,,,,,2.003671875,2.0392,space,0.2585,0,32,32,7,1,8,image/8.jpg,0,0,,R_5PyR4YVF9PC296x,2,2024-05-14_10h12.59.305,face trait task,2021.2.3,MacIntel,59.88023952,120210,,,,,,,
,,,,,,2.007005208,1.1414,space,0.553,0,33,33,35,1,36,image/36.jpg,0,0,,R_5PyR4YVF9PC296x,2,2024-05-14_10h12.59.305,face trait task,2021.2.3,MacIntel,59.88023952,120210,,,,,,,
,,,,,,3.05015625,1.5374,space,0.3956,0,34,34,1,1,2,image/2.jpg,0,0,,R_5PyR4YVF9PC296x,2,2024-05-14_10h12.59.305,face trait task,2021.2.3,MacIntel,59.88023952,120210,,,,,,,
,,,,,,4.107604167,1.9541,space,0.3522,0,35,35,48,1,49,image/49.jpg,0,0,,R_5PyR4YVF9PC296x,2,2024-05-14_10h12.59.305,face trait task,2021.2.3,MacIntel,59.88023952,120210,,,,,,,
,,,,,,2.146197917,3.7208,space,0.3304,0,36,36,24,1,25,image/25.jpg,0,0,,R_5PyR4YVF9PC296x,2,2024-05-14_10h12.59.305,face trait task,2021.2.3,MacIntel,59.88023952,120210,,,,,,,
,,,,,,5.556171875,2.0854,space,0.3679,0,37,37,38,1,39,image/39.jpg,0,0,,R_5PyR4YVF9PC296x,2,2024-05-14_10h12.59.305,face trait task,2021.2.3,MacIntel,59.88023952,120210,,,,,,,
,,,,,,6.498671875,1.6205,space,0.4021,0,38,38,40,1,41,image/41.jpg,0,0,,R_5PyR4YVF9PC296x,2,2024-05-14_10h12.59.305,face trait task,2021.2.3,MacIntel,59.88023952,120210,,,,,,,
,,,,,,3.696015625,2.1195,space,0.2594,0,39,39,12,1,13,image/13.jpg,0,0,,R_5PyR4YVF9PC296x,2,2024-05-14_10h12.59.305,face trait task,2021.2.3,MacIntel,59.88023952,120210,,,,,,,
,,,,,,5.115911458,1.7538,space,0.2789,0,40,40,39,1,40,image/40.jpg,0,0,,R_5PyR4YVF9PC296x,2,2024-05-14_10h12.59.305,face trait task,2021.2.3,MacIntel,59.88023952,120210,,,,,,,
,,,,,,4.078177083,2.3898,space,0.2845,0,41,41,23,1,24,image/24.jpg,0,0,,R_5PyR4YVF9PC296x,2,2024-05-14_10h12.59.305,face trait task,2021.2.3,MacIntel,59.88023952,120210,,,,,,,
,,,,,,5.433229167,3.2182,space,1.2996,0,42,42,15,1,16,image/16.jpg,0,0,,R_5PyR4YVF9PC296x,2,2024-05-14_10h12.59.305,face trait task,2021.2.3,MacIntel,59.88023952,120210,,,,,,,
,,,,,,4.908567708,2.7182,space,1.8234,0,43,43,18,1,19,image/19.jpg,0,0,,R_5PyR4YVF9PC296x,2,2024-05-14_10h12.59.305,face trait task,2021.2.3,MacIntel,59.88023952,120210,,,,,,,
,,,,,,2.683151042,1.4538,space,0.3068,0,44,44,14,1,15,image/15.jpg,0,0,,R_5PyR4YVF9PC296x,2,2024-05-14_10h12.59.305,face trait task,2021.2.3,MacIntel,59.88023952,120210,,,,,,,
,,,,,,3.406744792,2.0576,space,0.2825,0,45,45,17,1,18,image/18.jpg,0,0,,R_5PyR4YVF9PC296x,2,2024-05-14_10h12.59.305,face trait task,2021.2.3,MacIntel,59.88023952,120210,,,,,,,
,,,,,,2.882395833,2.2236,space,0.3226,0,46,46,32,1,33,image/33.jpg,0,0,,R_5PyR4YVF9PC296x,2,2024-05-14_10h12.59.305,face trait task,2021.2.3,MacIntel,59.88023952,120210,,,,,,,
,,,,,,5.802760417,2.1378,space,0.3686,0,47,47,16,1,17,image/17.jpg,0,0,,R_5PyR4YVF9PC296x,2,2024-05-14_10h12.59.305,face trait task,2021.2.3,MacIntel,59.88023952,120210,,,,,,,
,,,,,,4.069427083,1.4233,space,0.4221,0,48,48,27,1,28,image/28.jpg,0,0,,R_5PyR4YVF9PC296x,2,2024-05-14_10h12.59.305,face trait task,2021.2.3,MacIntel,59.88023952,120210,,,,,,,
,,,,,,2.883567708,3.2903,space,0.2354,0,49,49,20,1,21,image/21.jpg,0,0,,R_5PyR4YVF9PC296x,2,2024-05-14_10h12.59.305,face trait task,2021.2.3,MacIntel,59.88023952,120210,,,,,,,
,,,,,,3.939817708,3.2702,space,0.35,0,50,50,4,1,5,image/5.jpg,0,0,,R_5PyR4YVF9PC296x,2,2024-05-14_10h12.59.305,face trait task,2021.2.3,MacIntel,59.88023952,120210,,,,,,,
,,,,,,2.895755208,3.9312,space,0.3582,0,51,51,5,1,6,image/6.jpg,0,0,,R_5PyR4YVF9PC296x,2,2024-05-14_10h12.59.305,face trait task,2021.2.3,MacIntel,59.88023952,120210,,,,,,,
,,,,,,2.265364583,1.7908,space,0.3507,0,52,52,28,1,29,image/29.jpg,0,0,,R_5PyR4YVF9PC296x,2,2024-05-14_10h12.59.305,face trait task,2021.2.3,MacIntel,59.88023952,120210,,,,,,,
,,,,,,,,,,,,,,,,,,,,R_5PyR4YVF9PC296x,2,2024-05-14_10h12.59.305,face trait task,2021.2.3,MacIntel,59.88023952,120210,0,3,3,0,1,0,critical.png
