choose_trial,key_resp.keys,key_resp.rt,key_resp_4.keys,key_resp_4.rt,session_trait,slider_face_judge.response,slider_face_judge.rt,key_resp_3.keys,key_resp_3.rt,face_loop.thisRepN,face_loop.thisTrialN,face_loop.thisN,face_loop.thisIndex,face_loop.ran,face_serial,image_name,isCheck,answer,check_question,participant,session,date,expName,psychopyVersion,OS,frameRate,SONAid,session.thisRepN,session.thisTrialN,session.thisN,session.thisIndex,session.ran,session.order,session_serial,slider_judge_img,face_loop.order
"[0,1,2,3,4,5,6,7,8,9,10,11,12,13,14,15,16,17,18,19,20,21,22,23,24,25,26,27,28,29,30,31,32,33,34,35,36,37,38,39,40,41,42,43,44,45,46,47,48,49,50,55,58]",t,9.5932,space,1.5371,critical,3.667355957,1.9414,space,1.2915,0,0,0,39,1,40,image/40.jpg,0,0,,R_5pSuadkN58kbdOq,2,2024-04-16_08h02.55.012,face trait task,2021.2.3,MacIntel,60.24096386,,,,,,,,,,
,,,,,,4.468860677,2.1654,space,0.2172,0,1,1,17,1,18,image/18.jpg,0,0,,R_5pSuadkN58kbdOq,2,2024-04-16_08h02.55.012,face trait task,2021.2.3,MacIntel,60.24096386,,,,,,,,,,
,,,,,,,,,,0,2,2,1,1,2,image/2.jpg,0,0,,R_5pSuadkN58kbdOq,2,2024-04-16_08h02.55.012,face trait task,2021.2.3,MacIntel,60.24096386,,0,0,0,0,1,3,0,critical.png,52
,,,,,,,,,,0,2,2,1,1,2,image/2.jpg,0,0,,R_5pSuadkN58kbdOq,2,2024-04-16_08h02.55.012,face trait task,2021.2.3,MacIntel,60.24096386,,0,0,0,0,1,3,0,critical.png,52
,,,,,,,,,,0,2,2,1,1,2,image/2.jpg,0,0,,R_5pSuadkN58kbdOq,2,2024-04-16_08h02.55.012,face trait task,2021.2.3,MacIntel,60.24096386,,,,,,,,,,
,,,,,,,,,,0,3,3,15,1,16,image/16.jpg,0,0,,R_5pSuadkN58kbdOq,2,2024-04-16_08h02.55.012,face trait task,2021.2.3,MacIntel,60.24096386,,0,0,0,0,1,3,0,critical.png,52
,,,,,,,,,,0,3,3,15,1,16,image/16.jpg,0,0,,R_5pSuadkN58kbdOq,2,2024-04-16_08h02.55.012,face trait task,2021.2.3,MacIntel,60.24096386,,0,0,0,0,1,3,0,critical.png,52
,,,,,,,,,,0,3,3,15,1,16,image/16.jpg,0,0,,R_5pSuadkN58kbdOq,2,2024-04-16_08h02.55.012,face trait task,2021.2.3,MacIntel,60.24096386,,,,,,,,,,
,,,,,,,,,,0,4,4,52,1,59,image/59.jpg,1,3,Please drag the slider to around 3 to indicate that you are paying attention,R_5pSuadkN58kbdOq,2,2024-04-16_08h02.55.012,face trait task,2021.2.3,MacIntel,60.24096386,,0,0,0,0,1,3,0,critical.png,52
,,,,,,,,,,0,4,4,52,1,59,image/59.jpg,1,3,Please drag the slider to around 3 to indicate that you are paying attention,R_5pSuadkN58kbdOq,2,2024-04-16_08h02.55.012,face trait task,2021.2.3,MacIntel,60.24096386,,0,0,0,0,1,3,0,critical.png,52
,,,,,,,,,,0,4,4,52,1,59,image/59.jpg,1,3,Please drag the slider to around 3 to indicate that you are paying attention,R_5pSuadkN58kbdOq,2,2024-04-16_08h02.55.012,face trait task,2021.2.3,MacIntel,60.24096386,,,,,,,,,,
,,,,,,,,,,0,5,5,3,1,4,image/4.jpg,0,0,,R_5pSuadkN58kbdOq,2,2024-04-16_08h02.55.012,face trait task,2021.2.3,MacIntel,60.24096386,,0,0,0,0,1,3,0,critical.png,52
,,,,,,,,,,0,5,5,3,1,4,image/4.jpg,0,0,,R_5pSuadkN58kbdOq,2,2024-04-16_08h02.55.012,face trait task,2021.2.3,MacIntel,60.24096386,,0,0,0,0,1,3,0,critical.png,52
,,,,,,,,,,0,5,5,3,1,4,image/4.jpg,0,0,,R_5pSuadkN58kbdOq,2,2024-04-16_08h02.55.012,face trait task,2021.2.3,MacIntel,60.24096386,,,,,,,,,,
,,,,,,,,,,0,6,6,20,1,21,image/21.jpg,0,0,,R_5pSuadkN58kbdOq,2,2024-04-16_08h02.55.012,face trait task,2021.2.3,MacIntel,60.24096386,,0,0,0,0,1,3,0,critical.png,52
,,,,,,,,,,0,6,6,20,1,21,image/21.jpg,0,0,,R_5pSuadkN58kbdOq,2,2024-04-16_08h02.55.012,face trait task,2021.2.3,MacIntel,60.24096386,,0,0,0,0,1,3,0,critical.png,52
,,,,,,,,,,0,6,6,20,1,21,image/21.jpg,0,0,,R_5pSuadkN58kbdOq,2,2024-04-16_08h02.55.012,face trait task,2021.2.3,MacIntel,60.24096386,,,,,,,,,,
,,,,,,,,,,0,7,7,40,1,41,image/41.jpg,0,0,,R_5pSuadkN58kbdOq,2,2024-04-16_08h02.55.012,face trait task,2021.2.3,MacIntel,60.24096386,,0,0,0,0,1,3,0,critical.png,52
,,,,,,,,,,0,7,7,40,1,41,image/41.jpg,0,0,,R_5pSuadkN58kbdOq,2,2024-04-16_08h02.55.012,face trait task,2021.2.3,MacIntel,60.24096386,,0,0,0,0,1,3,0,critical.png,52
,,,,,,,,,,0,7,7,40,1,41,image/41.jpg,0,0,,R_5pSuadkN58kbdOq,2,2024-04-16_08h02.55.012,face trait task,2021.2.3,MacIntel,60.24096386,,,,,,,,,,
,,,,,,,,,,0,8,8,13,1,14,image/14.jpg,0,0,,R_5pSuadkN58kbdOq,2,2024-04-16_08h02.55.012,face trait task,2021.2.3,MacIntel,60.24096386,,0,0,0,0,1,3,0,critical.png,52
,,,,,,,,,,0,8,8,13,1,14,image/14.jpg,0,0,,R_5pSuadkN58kbdOq,2,2024-04-16_08h02.55.012,face trait task,2021.2.3,MacIntel,60.24096386,,0,0,0,0,1,3,0,critical.png,52
,,,,,,,,,,0,8,8,13,1,14,image/14.jpg,0,0,,R_5pSuadkN58kbdOq,2,2024-04-16_08h02.55.012,face trait task,2021.2.3,MacIntel,60.24096386,,,,,,,,,,
,,,,,,,,,,0,9,9,51,1,56,image/56.jpg,1,2,Please drag the slider to around 2 to indicate that you are paying attention,R_5pSuadkN58kbdOq,2,2024-04-16_08h02.55.012,face trait task,2021.2.3,MacIntel,60.24096386,,0,0,0,0,1,3,0,critical.png,52
,,,,,,,,,,0,9,9,51,1,56,image/56.jpg,1,2,Please drag the slider to around 2 to indicate that you are paying attention,R_5pSuadkN58kbdOq,2,2024-04-16_08h02.55.012,face trait task,2021.2.3,MacIntel,60.24096386,,0,0,0,0,1,3,0,critical.png,52
,,,,,,,,,,0,9,9,51,1,56,image/56.jpg,1,2,Please drag the slider to around 2 to indicate that you are paying attention,R_5pSuadkN58kbdOq,2,2024-04-16_08h02.55.012,face trait task,2021.2.3,MacIntel,60.24096386,,,,,,,,,,
,,,,,,,,,,0,10,10,2,1,3,image/3.jpg,0,0,,R_5pSuadkN58kbdOq,2,2024-04-16_08h02.55.012,face trait task,2021.2.3,MacIntel,60.24096386,,0,0,0,0,1,3,0,critical.png,52
,,,,,,,,,,0,10,10,2,1,3,image/3.jpg,0,0,,R_5pSuadkN58kbdOq,2,2024-04-16_08h02.55.012,face trait task,2021.2.3,MacIntel,60.24096386,,0,0,0,0,1,3,0,critical.png,52
,,,,,,,,,,0,10,10,2,1,3,image/3.jpg,0,0,,R_5pSuadkN58kbdOq,2,2024-04-16_08h02.55.012,face trait task,2021.2.3,MacIntel,60.24096386,,,,,,,,,,
,,,,,,,,,,0,11,11,12,1,13,image/13.jpg,0,0,,R_5pSuadkN58kbdOq,2,2024-04-16_08h02.55.012,face trait task,2021.2.3,MacIntel,60.24096386,,0,0,0,0,1,3,0,critical.png,52
,,,,,,,,,,0,11,11,12,1,13,image/13.jpg,0,0,,R_5pSuadkN58kbdOq,2,2024-04-16_08h02.55.012,face trait task,2021.2.3,MacIntel,60.24096386,,0,0,0,0,1,3,0,critical.png,52
,,,,,,,,,,0,11,11,12,1,13,image/13.jpg,0,0,,R_5pSuadkN58kbdOq,2,2024-04-16_08h02.55.012,face trait task,2021.2.3,MacIntel,60.24096386,,,,,,,,,,
,,,,,,,,,,0,12,12,46,1,47,image/47.jpg,0,0,,R_5pSuadkN58kbdOq,2,2024-04-16_08h02.55.012,face trait task,2021.2.3,MacIntel,60.24096386,,0,0,0,0,1,3,0,critical.png,52
,,,,,,,,,,0,12,12,46,1,47,image/47.jpg,0,0,,R_5pSuadkN58kbdOq,2,2024-04-16_08h02.55.012,face trait task,2021.2.3,MacIntel,60.24096386,,0,0,0,0,1,3,0,critical.png,52
,,,,,,,,,,0,12,12,46,1,47,image/47.jpg,0,0,,R_5pSuadkN58kbdOq,2,2024-04-16_08h02.55.012,face trait task,2021.2.3,MacIntel,60.24096386,,,,,,,,,,
,,,,,,,,,,0,13,13,35,1,36,image/36.jpg,0,0,,R_5pSuadkN58kbdOq,2,2024-04-16_08h02.55.012,face trait task,2021.2.3,MacIntel,60.24096386,,0,0,0,0,1,3,0,critical.png,52
,,,,,,,,,,0,13,13,35,1,36,image/36.jpg,0,0,,R_5pSuadkN58kbdOq,2,2024-04-16_08h02.55.012,face trait task,2021.2.3,MacIntel,60.24096386,,0,0,0,0,1,3,0,critical.png,52
,,,,,,,,,,0,13,13,35,1,36,image/36.jpg,0,0,,R_5pSuadkN58kbdOq,2,2024-04-16_08h02.55.012,face trait task,2021.2.3,MacIntel,60.24096386,,,,,,,,,,
,,,,,,,,,,0,14,14,24,1,25,image/25.jpg,0,0,,R_5pSuadkN58kbdOq,2,2024-04-16_08h02.55.012,face trait task,2021.2.3,MacIntel,60.24096386,,0,0,0,0,1,3,0,critical.png,52
,,,,,,,,,,0,14,14,24,1,25,image/25.jpg,0,0,,R_5pSuadkN58kbdOq,2,2024-04-16_08h02.55.012,face trait task,2021.2.3,MacIntel,60.24096386,,0,0,0,0,1,3,0,critical.png,52
,,,,,,,,,,0,14,14,24,1,25,image/25.jpg,0,0,,R_5pSuadkN58kbdOq,2,2024-04-16_08h02.55.012,face trait task,2021.2.3,MacIntel,60.24096386,,,,,,,,,,
,,,,,,,,,,0,15,15,11,1,12,image/12.jpg,0,0,,R_5pSuadkN58kbdOq,2,2024-04-16_08h02.55.012,face trait task,2021.2.3,MacIntel,60.24096386,,0,0,0,0,1,3,0,critical.png,52
,,,,,,,,,,0,15,15,11,1,12,image/12.jpg,0,0,,R_5pSuadkN58kbdOq,2,2024-04-16_08h02.55.012,face trait task,2021.2.3,MacIntel,60.24096386,,0,0,0,0,1,3,0,critical.png,52
,,,,,,,,,,0,15,15,11,1,12,image/12.jpg,0,0,,R_5pSuadkN58kbdOq,2,2024-04-16_08h02.55.012,face trait task,2021.2.3,MacIntel,60.24096386,,,,,,,,,,
,,,,,,,,,,0,16,16,23,1,24,image/24.jpg,0,0,,R_5pSuadkN58kbdOq,2,2024-04-16_08h02.55.012,face trait task,2021.2.3,MacIntel,60.24096386,,0,0,0,0,1,3,0,critical.png,52
,,,,,,,,,,0,16,16,23,1,24,image/24.jpg,0,0,,R_5pSuadkN58kbdOq,2,2024-04-16_08h02.55.012,face trait task,2021.2.3,MacIntel,60.24096386,,0,0,0,0,1,3,0,critical.png,52
,,,,,,,,,,0,16,16,23,1,24,image/24.jpg,0,0,,R_5pSuadkN58kbdOq,2,2024-04-16_08h02.55.012,face trait task,2021.2.3,MacIntel,60.24096386,,,,,,,,,,
,,,,,,,,,,0,17,17,16,1,17,image/17.jpg,0,0,,R_5pSuadkN58kbdOq,2,2024-04-16_08h02.55.012,face trait task,2021.2.3,MacIntel,60.24096386,,0,0,0,0,1,3,0,critical.png,52
,,,,,,,,,,0,17,17,16,1,17,image/17.jpg,0,0,,R_5pSuadkN58kbdOq,2,2024-04-16_08h02.55.012,face trait task,2021.2.3,MacIntel,60.24096386,,0,0,0,0,1,3,0,critical.png,52
,,,,,,,,,,0,17,17,16,1,17,image/17.jpg,0,0,,R_5pSuadkN58kbdOq,2,2024-04-16_08h02.55.012,face trait task,2021.2.3,MacIntel,60.24096386,,,,,,,,,,
,,,,,,,,,,0,18,18,50,1,51,image/51.jpg,1,5,Please drag the slider to around 5 to indicate that you are paying attention,R_5pSuadkN58kbdOq,2,2024-04-16_08h02.55.012,face trait task,2021.2.3,MacIntel,60.24096386,,0,0,0,0,1,3,0,critical.png,52
,,,,,,,,,,0,18,18,50,1,51,image/51.jpg,1,5,Please drag the slider to around 5 to indicate that you are paying attention,R_5pSuadkN58kbdOq,2,2024-04-16_08h02.55.012,face trait task,2021.2.3,MacIntel,60.24096386,,0,0,0,0,1,3,0,critical.png,52
,,,,,,,,,,0,18,18,50,1,51,image/51.jpg,1,5,Please drag the slider to around 5 to indicate that you are paying attention,R_5pSuadkN58kbdOq,2,2024-04-16_08h02.55.012,face trait task,2021.2.3,MacIntel,60.24096386,,,,,,,,,,
,,,,,,,,,,0,19,19,32,1,33,image/33.jpg,0,0,,R_5pSuadkN58kbdOq,2,2024-04-16_08h02.55.012,face trait task,2021.2.3,MacIntel,60.24096386,,0,0,0,0,1,3,0,critical.png,52
,,,,,,,,,,0,19,19,32,1,33,image/33.jpg,0,0,,R_5pSuadkN58kbdOq,2,2024-04-16_08h02.55.012,face trait task,2021.2.3,MacIntel,60.24096386,,0,0,0,0,1,3,0,critical.png,52
,,,,,,,,,,0,19,19,32,1,33,image/33.jpg,0,0,,R_5pSuadkN58kbdOq,2,2024-04-16_08h02.55.012,face trait task,2021.2.3,MacIntel,60.24096386,,,,,,,,,,
,,,,,,,,,,0,20,20,34,1,35,image/35.jpg,0,0,,R_5pSuadkN58kbdOq,2,2024-04-16_08h02.55.012,face trait task,2021.2.3,MacIntel,60.24096386,,0,0,0,0,1,3,0,critical.png,52
,,,,,,,,,,0,20,20,34,1,35,image/35.jpg,0,0,,R_5pSuadkN58kbdOq,2,2024-04-16_08h02.55.012,face trait task,2021.2.3,MacIntel,60.24096386,,0,0,0,0,1,3,0,critical.png,52
,,,,,,,,,,0,20,20,34,1,35,image/35.jpg,0,0,,R_5pSuadkN58kbdOq,2,2024-04-16_08h02.55.012,face trait task,2021.2.3,MacIntel,60.24096386,,,,,,,,,,
,,,,,,,,,,0,21,21,6,1,7,image/7.jpg,0,0,,R_5pSuadkN58kbdOq,2,2024-04-16_08h02.55.012,face trait task,2021.2.3,MacIntel,60.24096386,,0,0,0,0,1,3,0,critical.png,52
,,,,,,,,,,0,21,21,6,1,7,image/7.jpg,0,0,,R_5pSuadkN58kbdOq,2,2024-04-16_08h02.55.012,face trait task,2021.2.3,MacIntel,60.24096386,,0,0,0,0,1,3,0,critical.png,52
,,,,,,,,,,0,21,21,6,1,7,image/7.jpg,0,0,,R_5pSuadkN58kbdOq,2,2024-04-16_08h02.55.012,face trait task,2021.2.3,MacIntel,60.24096386,,,,,,,,,,
,,,,,,,,,,0,22,22,41,1,42,image/42.jpg,0,0,,R_5pSuadkN58kbdOq,2,2024-04-16_08h02.55.012,face trait task,2021.2.3,MacIntel,60.24096386,,0,0,0,0,1,3,0,critical.png,52
,,,,,,,,,,0,22,22,41,1,42,image/42.jpg,0,0,,R_5pSuadkN58kbdOq,2,2024-04-16_08h02.55.012,face trait task,2021.2.3,MacIntel,60.24096386,,0,0,0,0,1,3,0,critical.png,52
,,,,,,,,,,0,22,22,41,1,42,image/42.jpg,0,0,,R_5pSuadkN58kbdOq,2,2024-04-16_08h02.55.012,face trait task,2021.2.3,MacIntel,60.24096386,,,,,,,,,,
,,,,,,,,,,0,23,23,47,1,48,image/48.jpg,0,0,,R_5pSuadkN58kbdOq,2,2024-04-16_08h02.55.012,face trait task,2021.2.3,MacIntel,60.24096386,,0,0,0,0,1,3,0,critical.png,52
,,,,,,,,,,0,23,23,47,1,48,image/48.jpg,0,0,,R_5pSuadkN58kbdOq,2,2024-04-16_08h02.55.012,face trait task,2021.2.3,MacIntel,60.24096386,,0,0,0,0,1,3,0,critical.png,52
,,,,,,,,,,0,23,23,47,1,48,image/48.jpg,0,0,,R_5pSuadkN58kbdOq,2,2024-04-16_08h02.55.012,face trait task,2021.2.3,MacIntel,60.24096386,,,,,,,,,,
,,,,,,,,,,0,24,24,0,1,1,image/1.jpg,0,0,,R_5pSuadkN58kbdOq,2,2024-04-16_08h02.55.012,face trait task,2021.2.3,MacIntel,60.24096386,,0,0,0,0,1,3,0,critical.png,52
,,,,,,,,,,0,24,24,0,1,1,image/1.jpg,0,0,,R_5pSuadkN58kbdOq,2,2024-04-16_08h02.55.012,face trait task,2021.2.3,MacIntel,60.24096386,,0,0,0,0,1,3,0,critical.png,52
,,,,,,,,,,0,24,24,0,1,1,image/1.jpg,0,0,,R_5pSuadkN58kbdOq,2,2024-04-16_08h02.55.012,face trait task,2021.2.3,MacIntel,60.24096386,,,,,,,,,,
,,,,,,,,,,0,25,25,27,1,28,image/28.jpg,0,0,,R_5pSuadkN58kbdOq,2,2024-04-16_08h02.55.012,face trait task,2021.2.3,MacIntel,60.24096386,,0,0,0,0,1,3,0,critical.png,52
,,,,,,,,,,0,25,25,27,1,28,image/28.jpg,0,0,,R_5pSuadkN58kbdOq,2,2024-04-16_08h02.55.012,face trait task,2021.2.3,MacIntel,60.24096386,,0,0,0,0,1,3,0,critical.png,52
,,,,,,,,,,0,25,25,27,1,28,image/28.jpg,0,0,,R_5pSuadkN58kbdOq,2,2024-04-16_08h02.55.012,face trait task,2021.2.3,MacIntel,60.24096386,,,,,,,,,,
,,,,,,,,,,0,26,26,4,1,5,image/5.jpg,0,0,,R_5pSuadkN58kbdOq,2,2024-04-16_08h02.55.012,face trait task,2021.2.3,MacIntel,60.24096386,,0,0,0,0,1,3,0,critical.png,52
,,,,,,,,,,0,26,26,4,1,5,image/5.jpg,0,0,,R_5pSuadkN58kbdOq,2,2024-04-16_08h02.55.012,face trait task,2021.2.3,MacIntel,60.24096386,,0,0,0,0,1,3,0,critical.png,52
,,,,,,,,,,0,26,26,4,1,5,image/5.jpg,0,0,,R_5pSuadkN58kbdOq,2,2024-04-16_08h02.55.012,face trait task,2021.2.3,MacIntel,60.24096386,,,,,,,,,,
,,,,,,,,,,0,27,27,26,1,27,image/27.jpg,0,0,,R_5pSuadkN58kbdOq,2,2024-04-16_08h02.55.012,face trait task,2021.2.3,MacIntel,60.24096386,,0,0,0,0,1,3,0,critical.png,52
,,,,,,,,,,0,27,27,26,1,27,image/27.jpg,0,0,,R_5pSuadkN58kbdOq,2,2024-04-16_08h02.55.012,face trait task,2021.2.3,MacIntel,60.24096386,,0,0,0,0,1,3,0,critical.png,52
,,,,,,,,,,0,27,27,26,1,27,image/27.jpg,0,0,,R_5pSuadkN58kbdOq,2,2024-04-16_08h02.55.012,face trait task,2021.2.3,MacIntel,60.24096386,,,,,,,,,,
,,,,,,,,,,0,28,28,8,1,9,image/9.jpg,0,0,,R_5pSuadkN58kbdOq,2,2024-04-16_08h02.55.012,face trait task,2021.2.3,MacIntel,60.24096386,,0,0,0,0,1,3,0,critical.png,52
,,,,,,,,,,0,28,28,8,1,9,image/9.jpg,0,0,,R_5pSuadkN58kbdOq,2,2024-04-16_08h02.55.012,face trait task,2021.2.3,MacIntel,60.24096386,,0,0,0,0,1,3,0,critical.png,52
,,,,,,,,,,0,28,28,8,1,9,image/9.jpg,0,0,,R_5pSuadkN58kbdOq,2,2024-04-16_08h02.55.012,face trait task,2021.2.3,MacIntel,60.24096386,,,,,,,,,,
,,,,,,,,,,0,29,29,9,1,10,image/10.jpg,0,0,,R_5pSuadkN58kbdOq,2,2024-04-16_08h02.55.012,face trait task,2021.2.3,MacIntel,60.24096386,,0,0,0,0,1,3,0,critical.png,52
,,,,,,,,,,0,29,29,9,1,10,image/10.jpg,0,0,,R_5pSuadkN58kbdOq,2,2024-04-16_08h02.55.012,face trait task,2021.2.3,MacIntel,60.24096386,,0,0,0,0,1,3,0,critical.png,52
,,,,,,,,,,0,29,29,9,1,10,image/10.jpg,0,0,,R_5pSuadkN58kbdOq,2,2024-04-16_08h02.55.012,face trait task,2021.2.3,MacIntel,60.24096386,,,,,,,,,,
,,,,,,,,,,0,30,30,44,1,45,image/45.jpg,0,0,,R_5pSuadkN58kbdOq,2,2024-04-16_08h02.55.012,face trait task,2021.2.3,MacIntel,60.24096386,,0,0,0,0,1,3,0,critical.png,52
,,,,,,,,,,0,30,30,44,1,45,image/45.jpg,0,0,,R_5pSuadkN58kbdOq,2,2024-04-16_08h02.55.012,face trait task,2021.2.3,MacIntel,60.24096386,,0,0,0,0,1,3,0,critical.png,52
,,,,,,,,,,0,30,30,44,1,45,image/45.jpg,0,0,,R_5pSuadkN58kbdOq,2,2024-04-16_08h02.55.012,face trait task,2021.2.3,MacIntel,60.24096386,,,,,,,,,,
,,,,,,,,,,0,31,31,7,1,8,image/8.jpg,0,0,,R_5pSuadkN58kbdOq,2,2024-04-16_08h02.55.012,face trait task,2021.2.3,MacIntel,60.24096386,,0,0,0,0,1,3,0,critical.png,52
,,,,,,,,,,0,31,31,7,1,8,image/8.jpg,0,0,,R_5pSuadkN58kbdOq,2,2024-04-16_08h02.55.012,face trait task,2021.2.3,MacIntel,60.24096386,,0,0,0,0,1,3,0,critical.png,52
,,,,,,,,,,0,31,31,7,1,8,image/8.jpg,0,0,,R_5pSuadkN58kbdOq,2,2024-04-16_08h02.55.012,face trait task,2021.2.3,MacIntel,60.24096386,,,,,,,,,,
,,,,,,,,,,0,32,32,33,1,34,image/34.jpg,0,0,,R_5pSuadkN58kbdOq,2,2024-04-16_08h02.55.012,face trait task,2021.2.3,MacIntel,60.24096386,,0,0,0,0,1,3,0,critical.png,52
,,,,,,,,,,0,32,32,33,1,34,image/34.jpg,0,0,,R_5pSuadkN58kbdOq,2,2024-04-16_08h02.55.012,face trait task,2021.2.3,MacIntel,60.24096386,,0,0,0,0,1,3,0,critical.png,52
,,,,,,,,,,0,32,32,33,1,34,image/34.jpg,0,0,,R_5pSuadkN58kbdOq,2,2024-04-16_08h02.55.012,face trait task,2021.2.3,MacIntel,60.24096386,,,,,,,,,,
,,,,,,,,,,0,33,33,28,1,29,image/29.jpg,0,0,,R_5pSuadkN58kbdOq,2,2024-04-16_08h02.55.012,face trait task,2021.2.3,MacIntel,60.24096386,,0,0,0,0,1,3,0,critical.png,52
,,,,,,,,,,0,33,33,28,1,29,image/29.jpg,0,0,,R_5pSuadkN58kbdOq,2,2024-04-16_08h02.55.012,face trait task,2021.2.3,MacIntel,60.24096386,,0,0,0,0,1,3,0,critical.png,52
,,,,,,,,,,0,33,33,28,1,29,image/29.jpg,0,0,,R_5pSuadkN58kbdOq,2,2024-04-16_08h02.55.012,face trait task,2021.2.3,MacIntel,60.24096386,,,,,,,,,,
,,,,,,,,,,0,34,34,37,1,38,image/38.jpg,0,0,,R_5pSuadkN58kbdOq,2,2024-04-16_08h02.55.012,face trait task,2021.2.3,MacIntel,60.24096386,,0,0,0,0,1,3,0,critical.png,52
,,,,,,,,,,0,34,34,37,1,38,image/38.jpg,0,0,,R_5pSuadkN58kbdOq,2,2024-04-16_08h02.55.012,face trait task,2021.2.3,MacIntel,60.24096386,,0,0,0,0,1,3,0,critical.png,52
,,,,,,,,,,0,34,34,37,1,38,image/38.jpg,0,0,,R_5pSuadkN58kbdOq,2,2024-04-16_08h02.55.012,face trait task,2021.2.3,MacIntel,60.24096386,,,,,,,,,,
,,,,,,,,,,0,35,35,31,1,32,image/32.jpg,0,0,,R_5pSuadkN58kbdOq,2,2024-04-16_08h02.55.012,face trait task,2021.2.3,MacIntel,60.24096386,,0,0,0,0,1,3,0,critical.png,52
,,,,,,,,,,0,35,35,31,1,32,image/32.jpg,0,0,,R_5pSuadkN58kbdOq,2,2024-04-16_08h02.55.012,face trait task,2021.2.3,MacIntel,60.24096386,,0,0,0,0,1,3,0,critical.png,52
,,,,,,,,,,0,35,35,31,1,32,image/32.jpg,0,0,,R_5pSuadkN58kbdOq,2,2024-04-16_08h02.55.012,face trait task,2021.2.3,MacIntel,60.24096386,,,,,,,,,,
,,,,,,,,,,0,36,36,45,1,46,image/46.jpg,0,0,,R_5pSuadkN58kbdOq,2,2024-04-16_08h02.55.012,face trait task,2021.2.3,MacIntel,60.24096386,,0,0,0,0,1,3,0,critical.png,52
,,,,,,,,,,0,36,36,45,1,46,image/46.jpg,0,0,,R_5pSuadkN58kbdOq,2,2024-04-16_08h02.55.012,face trait task,2021.2.3,MacIntel,60.24096386,,0,0,0,0,1,3,0,critical.png,52
,,,,,,,,,,0,36,36,45,1,46,image/46.jpg,0,0,,R_5pSuadkN58kbdOq,2,2024-04-16_08h02.55.012,face trait task,2021.2.3,MacIntel,60.24096386,,,,,,,,,,
,,,,,,,,,,0,37,37,25,1,26,image/26.jpg,0,0,,R_5pSuadkN58kbdOq,2,2024-04-16_08h02.55.012,face trait task,2021.2.3,MacIntel,60.24096386,,0,0,0,0,1,3,0,critical.png,52
,,,,,,,,,,0,37,37,25,1,26,image/26.jpg,0,0,,R_5pSuadkN58kbdOq,2,2024-04-16_08h02.55.012,face trait task,2021.2.3,MacIntel,60.24096386,,0,0,0,0,1,3,0,critical.png,52
,,,,,,,,,,0,37,37,25,1,26,image/26.jpg,0,0,,R_5pSuadkN58kbdOq,2,2024-04-16_08h02.55.012,face trait task,2021.2.3,MacIntel,60.24096386,,,,,,,,,,
,,,,,,,,,,0,38,38,48,1,49,image/49.jpg,0,0,,R_5pSuadkN58kbdOq,2,2024-04-16_08h02.55.012,face trait task,2021.2.3,MacIntel,60.24096386,,0,0,0,0,1,3,0,critical.png,52
,,,,,,,,,,0,38,38,48,1,49,image/49.jpg,0,0,,R_5pSuadkN58kbdOq,2,2024-04-16_08h02.55.012,face trait task,2021.2.3,MacIntel,60.24096386,,0,0,0,0,1,3,0,critical.png,52
,,,,,,,,,,0,38,38,48,1,49,image/49.jpg,0,0,,R_5pSuadkN58kbdOq,2,2024-04-16_08h02.55.012,face trait task,2021.2.3,MacIntel,60.24096386,,,,,,,,,,
,,,,,,,,,,0,39,39,14,1,15,image/15.jpg,0,0,,R_5pSuadkN58kbdOq,2,2024-04-16_08h02.55.012,face trait task,2021.2.3,MacIntel,60.24096386,,0,0,0,0,1,3,0,critical.png,52
,,,,,,,,,,0,39,39,14,1,15,image/15.jpg,0,0,,R_5pSuadkN58kbdOq,2,2024-04-16_08h02.55.012,face trait task,2021.2.3,MacIntel,60.24096386,,0,0,0,0,1,3,0,critical.png,52
,,,,,,,,,,0,39,39,14,1,15,image/15.jpg,0,0,,R_5pSuadkN58kbdOq,2,2024-04-16_08h02.55.012,face trait task,2021.2.3,MacIntel,60.24096386,,,,,,,,,,
,,,,,,,,,,0,40,40,18,1,19,image/19.jpg,0,0,,R_5pSuadkN58kbdOq,2,2024-04-16_08h02.55.012,face trait task,2021.2.3,MacIntel,60.24096386,,0,0,0,0,1,3,0,critical.png,52
,,,,,,,,,,0,40,40,18,1,19,image/19.jpg,0,0,,R_5pSuadkN58kbdOq,2,2024-04-16_08h02.55.012,face trait task,2021.2.3,MacIntel,60.24096386,,0,0,0,0,1,3,0,critical.png,52
,,,,,,,,,,0,40,40,18,1,19,image/19.jpg,0,0,,R_5pSuadkN58kbdOq,2,2024-04-16_08h02.55.012,face trait task,2021.2.3,MacIntel,60.24096386,,,,,,,,,,
,,,,,,,,,,0,41,41,49,1,50,image/50.jpg,0,0,,R_5pSuadkN58kbdOq,2,2024-04-16_08h02.55.012,face trait task,2021.2.3,MacIntel,60.24096386,,0,0,0,0,1,3,0,critical.png,52
,,,,,,,,,,0,41,41,49,1,50,image/50.jpg,0,0,,R_5pSuadkN58kbdOq,2,2024-04-16_08h02.55.012,face trait task,2021.2.3,MacIntel,60.24096386,,0,0,0,0,1,3,0,critical.png,52
,,,,,,,,,,0,41,41,49,1,50,image/50.jpg,0,0,,R_5pSuadkN58kbdOq,2,2024-04-16_08h02.55.012,face trait task,2021.2.3,MacIntel,60.24096386,,,,,,,,,,
,,,,,,,,,,0,42,42,19,1,20,image/20.jpg,0,0,,R_5pSuadkN58kbdOq,2,2024-04-16_08h02.55.012,face trait task,2021.2.3,MacIntel,60.24096386,,0,0,0,0,1,3,0,critical.png,52
,,,,,,,,,,0,42,42,19,1,20,image/20.jpg,0,0,,R_5pSuadkN58kbdOq,2,2024-04-16_08h02.55.012,face trait task,2021.2.3,MacIntel,60.24096386,,0,0,0,0,1,3,0,critical.png,52
,,,,,,,,,,0,42,42,19,1,20,image/20.jpg,0,0,,R_5pSuadkN58kbdOq,2,2024-04-16_08h02.55.012,face trait task,2021.2.3,MacIntel,60.24096386,,,,,,,,,,
,,,,,,,,,,0,43,43,22,1,23,image/23.jpg,0,0,,R_5pSuadkN58kbdOq,2,2024-04-16_08h02.55.012,face trait task,2021.2.3,MacIntel,60.24096386,,0,0,0,0,1,3,0,critical.png,52
,,,,,,,,,,0,43,43,22,1,23,image/23.jpg,0,0,,R_5pSuadkN58kbdOq,2,2024-04-16_08h02.55.012,face trait task,2021.2.3,MacIntel,60.24096386,,0,0,0,0,1,3,0,critical.png,52
,,,,,,,,,,0,43,43,22,1,23,image/23.jpg,0,0,,R_5pSuadkN58kbdOq,2,2024-04-16_08h02.55.012,face trait task,2021.2.3,MacIntel,60.24096386,,,,,,,,,,
,,,,,,,,,,0,44,44,29,1,30,image/30.jpg,0,0,,R_5pSuadkN58kbdOq,2,2024-04-16_08h02.55.012,face trait task,2021.2.3,MacIntel,60.24096386,,0,0,0,0,1,3,0,critical.png,52
,,,,,,,,,,0,44,44,29,1,30,image/30.jpg,0,0,,R_5pSuadkN58kbdOq,2,2024-04-16_08h02.55.012,face trait task,2021.2.3,MacIntel,60.24096386,,0,0,0,0,1,3,0,critical.png,52
,,,,,,,,,,0,44,44,29,1,30,image/30.jpg,0,0,,R_5pSuadkN58kbdOq,2,2024-04-16_08h02.55.012,face trait task,2021.2.3,MacIntel,60.24096386,,,,,,,,,,
,,,,,,,,,,0,45,45,43,1,44,image/44.jpg,0,0,,R_5pSuadkN58kbdOq,2,2024-04-16_08h02.55.012,face trait task,2021.2.3,MacIntel,60.24096386,,0,0,0,0,1,3,0,critical.png,52
,,,,,,,,,,0,45,45,43,1,44,image/44.jpg,0,0,,R_5pSuadkN58kbdOq,2,2024-04-16_08h02.55.012,face trait task,2021.2.3,MacIntel,60.24096386,,0,0,0,0,1,3,0,critical.png,52
,,,,,,,,,,0,45,45,43,1,44,image/44.jpg,0,0,,R_5pSuadkN58kbdOq,2,2024-04-16_08h02.55.012,face trait task,2021.2.3,MacIntel,60.24096386,,,,,,,,,,
,,,,,,,,,,0,46,46,42,1,43,image/43.jpg,0,0,,R_5pSuadkN58kbdOq,2,2024-04-16_08h02.55.012,face trait task,2021.2.3,MacIntel,60.24096386,,0,0,0,0,1,3,0,critical.png,52
,,,,,,,,,,0,46,46,42,1,43,image/43.jpg,0,0,,R_5pSuadkN58kbdOq,2,2024-04-16_08h02.55.012,face trait task,2021.2.3,MacIntel,60.24096386,,0,0,0,0,1,3,0,critical.png,52
,,,,,,,,,,0,46,46,42,1,43,image/43.jpg,0,0,,R_5pSuadkN58kbdOq,2,2024-04-16_08h02.55.012,face trait task,2021.2.3,MacIntel,60.24096386,,,,,,,,,,
,,,,,,,,,,0,47,47,30,1,31,image/31.jpg,0,0,,R_5pSuadkN58kbdOq,2,2024-04-16_08h02.55.012,face trait task,2021.2.3,MacIntel,60.24096386,,0,0,0,0,1,3,0,critical.png,52
,,,,,,,,,,0,47,47,30,1,31,image/31.jpg,0,0,,R_5pSuadkN58kbdOq,2,2024-04-16_08h02.55.012,face trait task,2021.2.3,MacIntel,60.24096386,,0,0,0,0,1,3,0,critical.png,52
,,,,,,,,,,0,47,47,30,1,31,image/31.jpg,0,0,,R_5pSuadkN58kbdOq,2,2024-04-16_08h02.55.012,face trait task,2021.2.3,MacIntel,60.24096386,,,,,,,,,,
,,,,,,,,,,0,48,48,38,1,39,image/39.jpg,0,0,,R_5pSuadkN58kbdOq,2,2024-04-16_08h02.55.012,face trait task,2021.2.3,MacIntel,60.24096386,,0,0,0,0,1,3,0,critical.png,52
,,,,,,,,,,0,48,48,38,1,39,image/39.jpg,0,0,,R_5pSuadkN58kbdOq,2,2024-04-16_08h02.55.012,face trait task,2021.2.3,MacIntel,60.24096386,,0,0,0,0,1,3,0,critical.png,52
,,,,,,,,,,0,48,48,38,1,39,image/39.jpg,0,0,,R_5pSuadkN58kbdOq,2,2024-04-16_08h02.55.012,face trait task,2021.2.3,MacIntel,60.24096386,,,,,,,,,,
,,,,,,,,,,0,49,49,36,1,37,image/37.jpg,0,0,,R_5pSuadkN58kbdOq,2,2024-04-16_08h02.55.012,face trait task,2021.2.3,MacIntel,60.24096386,,0,0,0,0,1,3,0,critical.png,52
,,,,,,,,,,0,49,49,36,1,37,image/37.jpg,0,0,,R_5pSuadkN58kbdOq,2,2024-04-16_08h02.55.012,face trait task,2021.2.3,MacIntel,60.24096386,,0,0,0,0,1,3,0,critical.png,52
,,,,,,,,,,0,49,49,36,1,37,image/37.jpg,0,0,,R_5pSuadkN58kbdOq,2,2024-04-16_08h02.55.012,face trait task,2021.2.3,MacIntel,60.24096386,,,,,,,,,,
,,,,,,,,,,0,50,50,10,1,11,image/11.jpg,0,0,,R_5pSuadkN58kbdOq,2,2024-04-16_08h02.55.012,face trait task,2021.2.3,MacIntel,60.24096386,,0,0,0,0,1,3,0,critical.png,52
,,,,,,,,,,0,50,50,10,1,11,image/11.jpg,0,0,,R_5pSuadkN58kbdOq,2,2024-04-16_08h02.55.012,face trait task,2021.2.3,MacIntel,60.24096386,,0,0,0,0,1,3,0,critical.png,52
,,,,,,,,,,0,50,50,10,1,11,image/11.jpg,0,0,,R_5pSuadkN58kbdOq,2,2024-04-16_08h02.55.012,face trait task,2021.2.3,MacIntel,60.24096386,,,,,,,,,,
,,,,,,,,,,0,51,51,5,1,6,image/6.jpg,0,0,,R_5pSuadkN58kbdOq,2,2024-04-16_08h02.55.012,face trait task,2021.2.3,MacIntel,60.24096386,,0,0,0,0,1,3,0,critical.png,52
,,,,,,,,,,0,51,51,5,1,6,image/6.jpg,0,0,,R_5pSuadkN58kbdOq,2,2024-04-16_08h02.55.012,face trait task,2021.2.3,MacIntel,60.24096386,,0,0,0,0,1,3,0,critical.png,52
,,,,,,,,,,0,51,51,5,1,6,image/6.jpg,0,0,,R_5pSuadkN58kbdOq,2,2024-04-16_08h02.55.012,face trait task,2021.2.3,MacIntel,60.24096386,,,,,,,,,,
,,,,,,,,,,0,52,52,21,1,22,image/22.jpg,0,0,,R_5pSuadkN58kbdOq,2,2024-04-16_08h02.55.012,face trait task,2021.2.3,MacIntel,60.24096386,,0,0,0,0,1,3,0,critical.png,52
,,,,,,,,,,0,52,52,21,1,22,image/22.jpg,0,0,,R_5pSuadkN58kbdOq,2,2024-04-16_08h02.55.012,face trait task,2021.2.3,MacIntel,60.24096386,,0,0,0,0,1,3,0,critical.png,52
,,,,,,,,,,0,52,52,21,1,22,image/22.jpg,0,0,,R_5pSuadkN58kbdOq,2,2024-04-16_08h02.55.012,face trait task,2021.2.3,MacIntel,60.24096386,,,,,,,,,,
,,,,,,,,,,,,,,,,,,,,R_5pSuadkN58kbdOq,2,2024-04-16_08h02.55.012,face trait task,2021.2.3,MacIntel,60.24096386,,0,0,0,0,1,,0,critical.png,
,,,,,competent,2.987180583,2.5578,space,0.3012,0,0,0,52,1,59,image/59.jpg,1,3,Please drag the slider to around 3 to indicate that you are paying attention,R_5pSuadkN58kbdOq,2,2024-04-16_08h02.55.012,face trait task,2021.2.3,MacIntel,60.24096386,,,,,,,,,,
,,,,,,3.274013672,1.7641,space,0.1534,0,1,1,3,1,4,image/4.jpg,0,0,,R_5pSuadkN58kbdOq,2,2024-04-16_08h02.55.012,face trait task,2021.2.3,MacIntel,60.24096386,,,,,,,,,,
,,,,,,,,,,0,2,2,33,1,34,image/34.jpg,0,0,,R_5pSuadkN58kbdOq,2,2024-04-16_08h02.55.012,face trait task,2021.2.3,MacIntel,60.24096386,,0,1,1,1,1,3,1,competent.png,52
,,,,,,,,,,0,2,2,33,1,34,image/34.jpg,0,0,,R_5pSuadkN58kbdOq,2,2024-04-16_08h02.55.012,face trait task,2021.2.3,MacIntel,60.24096386,,0,1,1,1,1,3,1,competent.png,52
,,,,,,,,,,0,2,2,33,1,34,image/34.jpg,0,0,,R_5pSuadkN58kbdOq,2,2024-04-16_08h02.55.012,face trait task,2021.2.3,MacIntel,60.24096386,,,,,,,,,,
,,,,,,,,,,0,3,3,31,1,32,image/32.jpg,0,0,,R_5pSuadkN58kbdOq,2,2024-04-16_08h02.55.012,face trait task,2021.2.3,MacIntel,60.24096386,,0,1,1,1,1,3,1,competent.png,52
,,,,,,,,,,0,3,3,31,1,32,image/32.jpg,0,0,,R_5pSuadkN58kbdOq,2,2024-04-16_08h02.55.012,face trait task,2021.2.3,MacIntel,60.24096386,,0,1,1,1,1,3,1,competent.png,52
,,,,,,,,,,0,3,3,31,1,32,image/32.jpg,0,0,,R_5pSuadkN58kbdOq,2,2024-04-16_08h02.55.012,face trait task,2021.2.3,MacIntel,60.24096386,,,,,,,,,,
,,,,,,,,,,0,4,4,38,1,39,image/39.jpg,0,0,,R_5pSuadkN58kbdOq,2,2024-04-16_08h02.55.012,face trait task,2021.2.3,MacIntel,60.24096386,,0,1,1,1,1,3,1,competent.png,52
,,,,,,,,,,0,4,4,38,1,39,image/39.jpg,0,0,,R_5pSuadkN58kbdOq,2,2024-04-16_08h02.55.012,face trait task,2021.2.3,MacIntel,60.24096386,,0,1,1,1,1,3,1,competent.png,52
,,,,,,,,,,0,4,4,38,1,39,image/39.jpg,0,0,,R_5pSuadkN58kbdOq,2,2024-04-16_08h02.55.012,face trait task,2021.2.3,MacIntel,60.24096386,,,,,,,,,,
,,,,,,,,,,0,5,5,21,1,22,image/22.jpg,0,0,,R_5pSuadkN58kbdOq,2,2024-04-16_08h02.55.012,face trait task,2021.2.3,MacIntel,60.24096386,,0,1,1,1,1,3,1,competent.png,52
,,,,,,,,,,0,5,5,21,1,22,image/22.jpg,0,0,,R_5pSuadkN58kbdOq,2,2024-04-16_08h02.55.012,face trait task,2021.2.3,MacIntel,60.24096386,,0,1,1,1,1,3,1,competent.png,52
,,,,,,,,,,0,5,5,21,1,22,image/22.jpg,0,0,,R_5pSuadkN58kbdOq,2,2024-04-16_08h02.55.012,face trait task,2021.2.3,MacIntel,60.24096386,,,,,,,,,,
,,,,,,,,,,0,6,6,45,1,46,image/46.jpg,0,0,,R_5pSuadkN58kbdOq,2,2024-04-16_08h02.55.012,face trait task,2021.2.3,MacIntel,60.24096386,,0,1,1,1,1,3,1,competent.png,52
,,,,,,,,,,0,6,6,45,1,46,image/46.jpg,0,0,,R_5pSuadkN58kbdOq,2,2024-04-16_08h02.55.012,face trait task,2021.2.3,MacIntel,60.24096386,,0,1,1,1,1,3,1,competent.png,52
,,,,,,,,,,0,6,6,45,1,46,image/46.jpg,0,0,,R_5pSuadkN58kbdOq,2,2024-04-16_08h02.55.012,face trait task,2021.2.3,MacIntel,60.24096386,,,,,,,,,,
,,,,,,,,,,0,7,7,28,1,29,image/29.jpg,0,0,,R_5pSuadkN58kbdOq,2,2024-04-16_08h02.55.012,face trait task,2021.2.3,MacIntel,60.24096386,,0,1,1,1,1,3,1,competent.png,52
,,,,,,,,,,0,7,7,28,1,29,image/29.jpg,0,0,,R_5pSuadkN58kbdOq,2,2024-04-16_08h02.55.012,face trait task,2021.2.3,MacIntel,60.24096386,,0,1,1,1,1,3,1,competent.png,52
,,,,,,,,,,0,7,7,28,1,29,image/29.jpg,0,0,,R_5pSuadkN58kbdOq,2,2024-04-16_08h02.55.012,face trait task,2021.2.3,MacIntel,60.24096386,,,,,,,,,,
,,,,,,,,,,0,8,8,6,1,7,image/7.jpg,0,0,,R_5pSuadkN58kbdOq,2,2024-04-16_08h02.55.012,face trait task,2021.2.3,MacIntel,60.24096386,,0,1,1,1,1,3,1,competent.png,52
,,,,,,,,,,0,8,8,6,1,7,image/7.jpg,0,0,,R_5pSuadkN58kbdOq,2,2024-04-16_08h02.55.012,face trait task,2021.2.3,MacIntel,60.24096386,,0,1,1,1,1,3,1,competent.png,52
,,,,,,,,,,0,8,8,6,1,7,image/7.jpg,0,0,,R_5pSuadkN58kbdOq,2,2024-04-16_08h02.55.012,face trait task,2021.2.3,MacIntel,60.24096386,,,,,,,,,,
,,,,,,,,,,0,9,9,48,1,49,image/49.jpg,0,0,,R_5pSuadkN58kbdOq,2,2024-04-16_08h02.55.012,face trait task,2021.2.3,MacIntel,60.24096386,,0,1,1,1,1,3,1,competent.png,52
,,,,,,,,,,0,9,9,48,1,49,image/49.jpg,0,0,,R_5pSuadkN58kbdOq,2,2024-04-16_08h02.55.012,face trait task,2021.2.3,MacIntel,60.24096386,,0,1,1,1,1,3,1,competent.png,52
,,,,,,,,,,0,9,9,48,1,49,image/49.jpg,0,0,,R_5pSuadkN58kbdOq,2,2024-04-16_08h02.55.012,face trait task,2021.2.3,MacIntel,60.24096386,,,,,,,,,,
,,,,,,,,,,0,10,10,4,1,5,image/5.jpg,0,0,,R_5pSuadkN58kbdOq,2,2024-04-16_08h02.55.012,face trait task,2021.2.3,MacIntel,60.24096386,,0,1,1,1,1,3,1,competent.png,52
,,,,,,,,,,0,10,10,4,1,5,image/5.jpg,0,0,,R_5pSuadkN58kbdOq,2,2024-04-16_08h02.55.012,face trait task,2021.2.3,MacIntel,60.24096386,,0,1,1,1,1,3,1,competent.png,52
,,,,,,,,,,0,10,10,4,1,5,image/5.jpg,0,0,,R_5pSuadkN58kbdOq,2,2024-04-16_08h02.55.012,face trait task,2021.2.3,MacIntel,60.24096386,,,,,,,,,,
,,,,,,,,,,0,11,11,42,1,43,image/43.jpg,0,0,,R_5pSuadkN58kbdOq,2,2024-04-16_08h02.55.012,face trait task,2021.2.3,MacIntel,60.24096386,,0,1,1,1,1,3,1,competent.png,52
,,,,,,,,,,0,11,11,42,1,43,image/43.jpg,0,0,,R_5pSuadkN58kbdOq,2,2024-04-16_08h02.55.012,face trait task,2021.2.3,MacIntel,60.24096386,,0,1,1,1,1,3,1,competent.png,52
,,,,,,,,,,0,11,11,42,1,43,image/43.jpg,0,0,,R_5pSuadkN58kbdOq,2,2024-04-16_08h02.55.012,face trait task,2021.2.3,MacIntel,60.24096386,,,,,,,,,,
,,,,,,,,,,0,12,12,50,1,51,image/51.jpg,1,5,Please drag the slider to around 5 to indicate that you are paying attention,R_5pSuadkN58kbdOq,2,2024-04-16_08h02.55.012,face trait task,2021.2.3,MacIntel,60.24096386,,0,1,1,1,1,3,1,competent.png,52
,,,,,,,,,,0,12,12,50,1,51,image/51.jpg,1,5,Please drag the slider to around 5 to indicate that you are paying attention,R_5pSuadkN58kbdOq,2,2024-04-16_08h02.55.012,face trait task,2021.2.3,MacIntel,60.24096386,,0,1,1,1,1,3,1,competent.png,52
,,,,,,,,,,0,12,12,50,1,51,image/51.jpg,1,5,Please drag the slider to around 5 to indicate that you are paying attention,R_5pSuadkN58kbdOq,2,2024-04-16_08h02.55.012,face trait task,2021.2.3,MacIntel,60.24096386,,,,,,,,,,
,,,,,,,,,,0,13,13,9,1,10,image/10.jpg,0,0,,R_5pSuadkN58kbdOq,2,2024-04-16_08h02.55.012,face trait task,2021.2.3,MacIntel,60.24096386,,0,1,1,1,1,3,1,competent.png,52
,,,,,,,,,,0,13,13,9,1,10,image/10.jpg,0,0,,R_5pSuadkN58kbdOq,2,2024-04-16_08h02.55.012,face trait task,2021.2.3,MacIntel,60.24096386,,0,1,1,1,1,3,1,competent.png,52
,,,,,,,,,,0,13,13,9,1,10,image/10.jpg,0,0,,R_5pSuadkN58kbdOq,2,2024-04-16_08h02.55.012,face trait task,2021.2.3,MacIntel,60.24096386,,,,,,,,,,
,,,,,,,,,,0,14,14,27,1,28,image/28.jpg,0,0,,R_5pSuadkN58kbdOq,2,2024-04-16_08h02.55.012,face trait task,2021.2.3,MacIntel,60.24096386,,0,1,1,1,1,3,1,competent.png,52
,,,,,,,,,,0,14,14,27,1,28,image/28.jpg,0,0,,R_5pSuadkN58kbdOq,2,2024-04-16_08h02.55.012,face trait task,2021.2.3,MacIntel,60.24096386,,0,1,1,1,1,3,1,competent.png,52
,,,,,,,,,,0,14,14,27,1,28,image/28.jpg,0,0,,R_5pSuadkN58kbdOq,2,2024-04-16_08h02.55.012,face trait task,2021.2.3,MacIntel,60.24096386,,,,,,,,,,
,,,,,,,,,,0,15,15,49,1,50,image/50.jpg,0,0,,R_5pSuadkN58kbdOq,2,2024-04-16_08h02.55.012,face trait task,2021.2.3,MacIntel,60.24096386,,0,1,1,1,1,3,1,competent.png,52
,,,,,,,,,,0,15,15,49,1,50,image/50.jpg,0,0,,R_5pSuadkN58kbdOq,2,2024-04-16_08h02.55.012,face trait task,2021.2.3,MacIntel,60.24096386,,0,1,1,1,1,3,1,competent.png,52
,,,,,,,,,,0,15,15,49,1,50,image/50.jpg,0,0,,R_5pSuadkN58kbdOq,2,2024-04-16_08h02.55.012,face trait task,2021.2.3,MacIntel,60.24096386,,,,,,,,,,
,,,,,,,,,,0,16,16,13,1,14,image/14.jpg,0,0,,R_5pSuadkN58kbdOq,2,2024-04-16_08h02.55.012,face trait task,2021.2.3,MacIntel,60.24096386,,0,1,1,1,1,3,1,competent.png,52
,,,,,,,,,,0,16,16,13,1,14,image/14.jpg,0,0,,R_5pSuadkN58kbdOq,2,2024-04-16_08h02.55.012,face trait task,2021.2.3,MacIntel,60.24096386,,0,1,1,1,1,3,1,competent.png,52
,,,,,,,,,,0,16,16,13,1,14,image/14.jpg,0,0,,R_5pSuadkN58kbdOq,2,2024-04-16_08h02.55.012,face trait task,2021.2.3,MacIntel,60.24096386,,,,,,,,,,
,,,,,,,,,,0,17,17,0,1,1,image/1.jpg,0,0,,R_5pSuadkN58kbdOq,2,2024-04-16_08h02.55.012,face trait task,2021.2.3,MacIntel,60.24096386,,0,1,1,1,1,3,1,competent.png,52
,,,,,,,,,,0,17,17,0,1,1,image/1.jpg,0,0,,R_5pSuadkN58kbdOq,2,2024-04-16_08h02.55.012,face trait task,2021.2.3,MacIntel,60.24096386,,0,1,1,1,1,3,1,competent.png,52
,,,,,,,,,,0,17,17,0,1,1,image/1.jpg,0,0,,R_5pSuadkN58kbdOq,2,2024-04-16_08h02.55.012,face trait task,2021.2.3,MacIntel,60.24096386,,,,,,,,,,
,,,,,,,,,,0,18,18,18,1,19,image/19.jpg,0,0,,R_5pSuadkN58kbdOq,2,2024-04-16_08h02.55.012,face trait task,2021.2.3,MacIntel,60.24096386,,0,1,1,1,1,3,1,competent.png,52
,,,,,,,,,,0,18,18,18,1,19,image/19.jpg,0,0,,R_5pSuadkN58kbdOq,2,2024-04-16_08h02.55.012,face trait task,2021.2.3,MacIntel,60.24096386,,0,1,1,1,1,3,1,competent.png,52
,,,,,,,,,,0,18,18,18,1,19,image/19.jpg,0,0,,R_5pSuadkN58kbdOq,2,2024-04-16_08h02.55.012,face trait task,2021.2.3,MacIntel,60.24096386,,,,,,,,,,
,,,,,,,,,,0,19,19,46,1,47,image/47.jpg,0,0,,R_5pSuadkN58kbdOq,2,2024-04-16_08h02.55.012,face trait task,2021.2.3,MacIntel,60.24096386,,0,1,1,1,1,3,1,competent.png,52
,,,,,,,,,,0,19,19,46,1,47,image/47.jpg,0,0,,R_5pSuadkN58kbdOq,2,2024-04-16_08h02.55.012,face trait task,2021.2.3,MacIntel,60.24096386,,0,1,1,1,1,3,1,competent.png,52
,,,,,,,,,,0,19,19,46,1,47,image/47.jpg,0,0,,R_5pSuadkN58kbdOq,2,2024-04-16_08h02.55.012,face trait task,2021.2.3,MacIntel,60.24096386,,,,,,,,,,
,,,,,,,,,,0,20,20,20,1,21,image/21.jpg,0,0,,R_5pSuadkN58kbdOq,2,2024-04-16_08h02.55.012,face trait task,2021.2.3,MacIntel,60.24096386,,0,1,1,1,1,3,1,competent.png,52
,,,,,,,,,,0,20,20,20,1,21,image/21.jpg,0,0,,R_5pSuadkN58kbdOq,2,2024-04-16_08h02.55.012,face trait task,2021.2.3,MacIntel,60.24096386,,0,1,1,1,1,3,1,competent.png,52
,,,,,,,,,,0,20,20,20,1,21,image/21.jpg,0,0,,R_5pSuadkN58kbdOq,2,2024-04-16_08h02.55.012,face trait task,2021.2.3,MacIntel,60.24096386,,,,,,,,,,
,,,,,,,,,,0,21,21,14,1,15,image/15.jpg,0,0,,R_5pSuadkN58kbdOq,2,2024-04-16_08h02.55.012,face trait task,2021.2.3,MacIntel,60.24096386,,0,1,1,1,1,3,1,competent.png,52
,,,,,,,,,,0,21,21,14,1,15,image/15.jpg,0,0,,R_5pSuadkN58kbdOq,2,2024-04-16_08h02.55.012,face trait task,2021.2.3,MacIntel,60.24096386,,0,1,1,1,1,3,1,competent.png,52
,,,,,,,,,,0,21,21,14,1,15,image/15.jpg,0,0,,R_5pSuadkN58kbdOq,2,2024-04-16_08h02.55.012,face trait task,2021.2.3,MacIntel,60.24096386,,,,,,,,,,
,,,,,,,,,,0,22,22,10,1,11,image/11.jpg,0,0,,R_5pSuadkN58kbdOq,2,2024-04-16_08h02.55.012,face trait task,2021.2.3,MacIntel,60.24096386,,0,1,1,1,1,3,1,competent.png,52
,,,,,,,,,,0,22,22,10,1,11,image/11.jpg,0,0,,R_5pSuadkN58kbdOq,2,2024-04-16_08h02.55.012,face trait task,2021.2.3,MacIntel,60.24096386,,0,1,1,1,1,3,1,competent.png,52
,,,,,,,,,,0,22,22,10,1,11,image/11.jpg,0,0,,R_5pSuadkN58kbdOq,2,2024-04-16_08h02.55.012,face trait task,2021.2.3,MacIntel,60.24096386,,,,,,,,,,
,,,,,,,,,,0,23,23,39,1,40,image/40.jpg,0,0,,R_5pSuadkN58kbdOq,2,2024-04-16_08h02.55.012,face trait task,2021.2.3,MacIntel,60.24096386,,0,1,1,1,1,3,1,competent.png,52
,,,,,,,,,,0,23,23,39,1,40,image/40.jpg,0,0,,R_5pSuadkN58kbdOq,2,2024-04-16_08h02.55.012,face trait task,2021.2.3,MacIntel,60.24096386,,0,1,1,1,1,3,1,competent.png,52
,,,,,,,,,,0,23,23,39,1,40,image/40.jpg,0,0,,R_5pSuadkN58kbdOq,2,2024-04-16_08h02.55.012,face trait task,2021.2.3,MacIntel,60.24096386,,,,,,,,,,
,,,,,,,,,,0,24,24,8,1,9,image/9.jpg,0,0,,R_5pSuadkN58kbdOq,2,2024-04-16_08h02.55.012,face trait task,2021.2.3,MacIntel,60.24096386,,0,1,1,1,1,3,1,competent.png,52
,,,,,,,,,,0,24,24,8,1,9,image/9.jpg,0,0,,R_5pSuadkN58kbdOq,2,2024-04-16_08h02.55.012,face trait task,2021.2.3,MacIntel,60.24096386,,0,1,1,1,1,3,1,competent.png,52
,,,,,,,,,,0,24,24,8,1,9,image/9.jpg,0,0,,R_5pSuadkN58kbdOq,2,2024-04-16_08h02.55.012,face trait task,2021.2.3,MacIntel,60.24096386,,,,,,,,,,
,,,,,,,,,,0,25,25,5,1,6,image/6.jpg,0,0,,R_5pSuadkN58kbdOq,2,2024-04-16_08h02.55.012,face trait task,2021.2.3,MacIntel,60.24096386,,0,1,1,1,1,3,1,competent.png,52
,,,,,,,,,,0,25,25,5,1,6,image/6.jpg,0,0,,R_5pSuadkN58kbdOq,2,2024-04-16_08h02.55.012,face trait task,2021.2.3,MacIntel,60.24096386,,0,1,1,1,1,3,1,competent.png,52
,,,,,,,,,,0,25,25,5,1,6,image/6.jpg,0,0,,R_5pSuadkN58kbdOq,2,2024-04-16_08h02.55.012,face trait task,2021.2.3,MacIntel,60.24096386,,,,,,,,,,
,,,,,,,,,,0,26,26,24,1,25,image/25.jpg,0,0,,R_5pSuadkN58kbdOq,2,2024-04-16_08h02.55.012,face trait task,2021.2.3,MacIntel,60.24096386,,0,1,1,1,1,3,1,competent.png,52
,,,,,,,,,,0,26,26,24,1,25,image/25.jpg,0,0,,R_5pSuadkN58kbdOq,2,2024-04-16_08h02.55.012,face trait task,2021.2.3,MacIntel,60.24096386,,0,1,1,1,1,3,1,competent.png,52
,,,,,,,,,,0,26,26,24,1,25,image/25.jpg,0,0,,R_5pSuadkN58kbdOq,2,2024-04-16_08h02.55.012,face trait task,2021.2.3,MacIntel,60.24096386,,,,,,,,,,
,,,,,,,,,,0,27,27,51,1,56,image/56.jpg,1,2,Please drag the slider to around 2 to indicate that you are paying attention,R_5pSuadkN58kbdOq,2,2024-04-16_08h02.55.012,face trait task,2021.2.3,MacIntel,60.24096386,,0,1,1,1,1,3,1,competent.png,52
,,,,,,,,,,0,27,27,51,1,56,image/56.jpg,1,2,Please drag the slider to around 2 to indicate that you are paying attention,R_5pSuadkN58kbdOq,2,2024-04-16_08h02.55.012,face trait task,2021.2.3,MacIntel,60.24096386,,0,1,1,1,1,3,1,competent.png,52
,,,,,,,,,,0,27,27,51,1,56,image/56.jpg,1,2,Please drag the slider to around 2 to indicate that you are paying attention,R_5pSuadkN58kbdOq,2,2024-04-16_08h02.55.012,face trait task,2021.2.3,MacIntel,60.24096386,,,,,,,,,,
,,,,,,,,,,0,28,28,36,1,37,image/37.jpg,0,0,,R_5pSuadkN58kbdOq,2,2024-04-16_08h02.55.012,face trait task,2021.2.3,MacIntel,60.24096386,,0,1,1,1,1,3,1,competent.png,52
,,,,,,,,,,0,28,28,36,1,37,image/37.jpg,0,0,,R_5pSuadkN58kbdOq,2,2024-04-16_08h02.55.012,face trait task,2021.2.3,MacIntel,60.24096386,,0,1,1,1,1,3,1,competent.png,52
,,,,,,,,,,0,28,28,36,1,37,image/37.jpg,0,0,,R_5pSuadkN58kbdOq,2,2024-04-16_08h02.55.012,face trait task,2021.2.3,MacIntel,60.24096386,,,,,,,,,,
,,,,,,,,,,0,29,29,2,1,3,image/3.jpg,0,0,,R_5pSuadkN58kbdOq,2,2024-04-16_08h02.55.012,face trait task,2021.2.3,MacIntel,60.24096386,,0,1,1,1,1,3,1,competent.png,52
,,,,,,,,,,0,29,29,2,1,3,image/3.jpg,0,0,,R_5pSuadkN58kbdOq,2,2024-04-16_08h02.55.012,face trait task,2021.2.3,MacIntel,60.24096386,,0,1,1,1,1,3,1,competent.png,52
,,,,,,,,,,0,29,29,2,1,3,image/3.jpg,0,0,,R_5pSuadkN58kbdOq,2,2024-04-16_08h02.55.012,face trait task,2021.2.3,MacIntel,60.24096386,,,,,,,,,,
,,,,,,,,,,0,30,30,19,1,20,image/20.jpg,0,0,,R_5pSuadkN58kbdOq,2,2024-04-16_08h02.55.012,face trait task,2021.2.3,MacIntel,60.24096386,,0,1,1,1,1,3,1,competent.png,52
,,,,,,,,,,0,30,30,19,1,20,image/20.jpg,0,0,,R_5pSuadkN58kbdOq,2,2024-04-16_08h02.55.012,face trait task,2021.2.3,MacIntel,60.24096386,,0,1,1,1,1,3,1,competent.png,52
,,,,,,,,,,0,30,30,19,1,20,image/20.jpg,0,0,,R_5pSuadkN58kbdOq,2,2024-04-16_08h02.55.012,face trait task,2021.2.3,MacIntel,60.24096386,,,,,,,,,,
,,,,,,,,,,0,31,31,16,1,17,image/17.jpg,0,0,,R_5pSuadkN58kbdOq,2,2024-04-16_08h02.55.012,face trait task,2021.2.3,MacIntel,60.24096386,,0,1,1,1,1,3,1,competent.png,52
,,,,,,,,,,0,31,31,16,1,17,image/17.jpg,0,0,,R_5pSuadkN58kbdOq,2,2024-04-16_08h02.55.012,face trait task,2021.2.3,MacIntel,60.24096386,,0,1,1,1,1,3,1,competent.png,52
,,,,,,,,,,0,31,31,16,1,17,image/17.jpg,0,0,,R_5pSuadkN58kbdOq,2,2024-04-16_08h02.55.012,face trait task,2021.2.3,MacIntel,60.24096386,,,,,,,,,,
,,,,,,,,,,0,32,32,41,1,42,image/42.jpg,0,0,,R_5pSuadkN58kbdOq,2,2024-04-16_08h02.55.012,face trait task,2021.2.3,MacIntel,60.24096386,,0,1,1,1,1,3,1,competent.png,52
,,,,,,,,,,0,32,32,41,1,42,image/42.jpg,0,0,,R_5pSuadkN58kbdOq,2,2024-04-16_08h02.55.012,face trait task,2021.2.3,MacIntel,60.24096386,,0,1,1,1,1,3,1,competent.png,52
,,,,,,,,,,0,32,32,41,1,42,image/42.jpg,0,0,,R_5pSuadkN58kbdOq,2,2024-04-16_08h02.55.012,face trait task,2021.2.3,MacIntel,60.24096386,,,,,,,,,,
,,,,,,,,,,0,33,33,1,1,2,image/2.jpg,0,0,,R_5pSuadkN58kbdOq,2,2024-04-16_08h02.55.012,face trait task,2021.2.3,MacIntel,60.24096386,,0,1,1,1,1,3,1,competent.png,52
,,,,,,,,,,0,33,33,1,1,2,image/2.jpg,0,0,,R_5pSuadkN58kbdOq,2,2024-04-16_08h02.55.012,face trait task,2021.2.3,MacIntel,60.24096386,,0,1,1,1,1,3,1,competent.png,52
,,,,,,,,,,0,33,33,1,1,2,image/2.jpg,0,0,,R_5pSuadkN58kbdOq,2,2024-04-16_08h02.55.012,face trait task,2021.2.3,MacIntel,60.24096386,,,,,,,,,,
,,,,,,,,,,0,34,34,35,1,36,image/36.jpg,0,0,,R_5pSuadkN58kbdOq,2,2024-04-16_08h02.55.012,face trait task,2021.2.3,MacIntel,60.24096386,,0,1,1,1,1,3,1,competent.png,52
,,,,,,,,,,0,34,34,35,1,36,image/36.jpg,0,0,,R_5pSuadkN58kbdOq,2,2024-04-16_08h02.55.012,face trait task,2021.2.3,MacIntel,60.24096386,,0,1,1,1,1,3,1,competent.png,52
,,,,,,,,,,0,34,34,35,1,36,image/36.jpg,0,0,,R_5pSuadkN58kbdOq,2,2024-04-16_08h02.55.012,face trait task,2021.2.3,MacIntel,60.24096386,,,,,,,,,,
,,,,,,,,,,0,35,35,40,1,41,image/41.jpg,0,0,,R_5pSuadkN58kbdOq,2,2024-04-16_08h02.55.012,face trait task,2021.2.3,MacIntel,60.24096386,,0,1,1,1,1,3,1,competent.png,52
,,,,,,,,,,0,35,35,40,1,41,image/41.jpg,0,0,,R_5pSuadkN58kbdOq,2,2024-04-16_08h02.55.012,face trait task,2021.2.3,MacIntel,60.24096386,,0,1,1,1,1,3,1,competent.png,52
,,,,,,,,,,0,35,35,40,1,41,image/41.jpg,0,0,,R_5pSuadkN58kbdOq,2,2024-04-16_08h02.55.012,face trait task,2021.2.3,MacIntel,60.24096386,,,,,,,,,,
,,,,,,,,,,0,36,36,26,1,27,image/27.jpg,0,0,,R_5pSuadkN58kbdOq,2,2024-04-16_08h02.55.012,face trait task,2021.2.3,MacIntel,60.24096386,,0,1,1,1,1,3,1,competent.png,52
,,,,,,,,,,0,36,36,26,1,27,image/27.jpg,0,0,,R_5pSuadkN58kbdOq,2,2024-04-16_08h02.55.012,face trait task,2021.2.3,MacIntel,60.24096386,,0,1,1,1,1,3,1,competent.png,52
,,,,,,,,,,0,36,36,26,1,27,image/27.jpg,0,0,,R_5pSuadkN58kbdOq,2,2024-04-16_08h02.55.012,face trait task,2021.2.3,MacIntel,60.24096386,,,,,,,,,,
,,,,,,,,,,0,37,37,44,1,45,image/45.jpg,0,0,,R_5pSuadkN58kbdOq,2,2024-04-16_08h02.55.012,face trait task,2021.2.3,MacIntel,60.24096386,,0,1,1,1,1,3,1,competent.png,52
,,,,,,,,,,0,37,37,44,1,45,image/45.jpg,0,0,,R_5pSuadkN58kbdOq,2,2024-04-16_08h02.55.012,face trait task,2021.2.3,MacIntel,60.24096386,,0,1,1,1,1,3,1,competent.png,52
,,,,,,,,,,0,37,37,44,1,45,image/45.jpg,0,0,,R_5pSuadkN58kbdOq,2,2024-04-16_08h02.55.012,face trait task,2021.2.3,MacIntel,60.24096386,,,,,,,,,,
,,,,,,,,,,0,38,38,47,1,48,image/48.jpg,0,0,,R_5pSuadkN58kbdOq,2,2024-04-16_08h02.55.012,face trait task,2021.2.3,MacIntel,60.24096386,,0,1,1,1,1,3,1,competent.png,52
,,,,,,,,,,0,38,38,47,1,48,image/48.jpg,0,0,,R_5pSuadkN58kbdOq,2,2024-04-16_08h02.55.012,face trait task,2021.2.3,MacIntel,60.24096386,,0,1,1,1,1,3,1,competent.png,52
,,,,,,,,,,0,38,38,47,1,48,image/48.jpg,0,0,,R_5pSuadkN58kbdOq,2,2024-04-16_08h02.55.012,face trait task,2021.2.3,MacIntel,60.24096386,,,,,,,,,,
,,,,,,,,,,0,39,39,30,1,31,image/31.jpg,0,0,,R_5pSuadkN58kbdOq,2,2024-04-16_08h02.55.012,face trait task,2021.2.3,MacIntel,60.24096386,,0,1,1,1,1,3,1,competent.png,52
,,,,,,,,,,0,39,39,30,1,31,image/31.jpg,0,0,,R_5pSuadkN58kbdOq,2,2024-04-16_08h02.55.012,face trait task,2021.2.3,MacIntel,60.24096386,,0,1,1,1,1,3,1,competent.png,52
,,,,,,,,,,0,39,39,30,1,31,image/31.jpg,0,0,,R_5pSuadkN58kbdOq,2,2024-04-16_08h02.55.012,face trait task,2021.2.3,MacIntel,60.24096386,,,,,,,,,,
,,,,,,,,,,0,40,40,22,1,23,image/23.jpg,0,0,,R_5pSuadkN58kbdOq,2,2024-04-16_08h02.55.012,face trait task,2021.2.3,MacIntel,60.24096386,,0,1,1,1,1,3,1,competent.png,52
,,,,,,,,,,0,40,40,22,1,23,image/23.jpg,0,0,,R_5pSuadkN58kbdOq,2,2024-04-16_08h02.55.012,face trait task,2021.2.3,MacIntel,60.24096386,,0,1,1,1,1,3,1,competent.png,52
,,,,,,,,,,0,40,40,22,1,23,image/23.jpg,0,0,,R_5pSuadkN58kbdOq,2,2024-04-16_08h02.55.012,face trait task,2021.2.3,MacIntel,60.24096386,,,,,,,,,,
,,,,,,,,,,0,41,41,43,1,44,image/44.jpg,0,0,,R_5pSuadkN58kbdOq,2,2024-04-16_08h02.55.012,face trait task,2021.2.3,MacIntel,60.24096386,,0,1,1,1,1,3,1,competent.png,52
,,,,,,,,,,0,41,41,43,1,44,image/44.jpg,0,0,,R_5pSuadkN58kbdOq,2,2024-04-16_08h02.55.012,face trait task,2021.2.3,MacIntel,60.24096386,,0,1,1,1,1,3,1,competent.png,52
,,,,,,,,,,0,41,41,43,1,44,image/44.jpg,0,0,,R_5pSuadkN58kbdOq,2,2024-04-16_08h02.55.012,face trait task,2021.2.3,MacIntel,60.24096386,,,,,,,,,,
,,,,,,,,,,0,42,42,34,1,35,image/35.jpg,0,0,,R_5pSuadkN58kbdOq,2,2024-04-16_08h02.55.012,face trait task,2021.2.3,MacIntel,60.24096386,,0,1,1,1,1,3,1,competent.png,52
,,,,,,,,,,0,42,42,34,1,35,image/35.jpg,0,0,,R_5pSuadkN58kbdOq,2,2024-04-16_08h02.55.012,face trait task,2021.2.3,MacIntel,60.24096386,,0,1,1,1,1,3,1,competent.png,52
,,,,,,,,,,0,42,42,34,1,35,image/35.jpg,0,0,,R_5pSuadkN58kbdOq,2,2024-04-16_08h02.55.012,face trait task,2021.2.3,MacIntel,60.24096386,,,,,,,,,,
,,,,,,,,,,0,43,43,23,1,24,image/24.jpg,0,0,,R_5pSuadkN58kbdOq,2,2024-04-16_08h02.55.012,face trait task,2021.2.3,MacIntel,60.24096386,,0,1,1,1,1,3,1,competent.png,52
,,,,,,,,,,0,43,43,23,1,24,image/24.jpg,0,0,,R_5pSuadkN58kbdOq,2,2024-04-16_08h02.55.012,face trait task,2021.2.3,MacIntel,60.24096386,,0,1,1,1,1,3,1,competent.png,52
,,,,,,,,,,0,43,43,23,1,24,image/24.jpg,0,0,,R_5pSuadkN58kbdOq,2,2024-04-16_08h02.55.012,face trait task,2021.2.3,MacIntel,60.24096386,,,,,,,,,,
,,,,,,,,,,0,44,44,15,1,16,image/16.jpg,0,0,,R_5pSuadkN58kbdOq,2,2024-04-16_08h02.55.012,face trait task,2021.2.3,MacIntel,60.24096386,,0,1,1,1,1,3,1,competent.png,52
,,,,,,,,,,0,44,44,15,1,16,image/16.jpg,0,0,,R_5pSuadkN58kbdOq,2,2024-04-16_08h02.55.012,face trait task,2021.2.3,MacIntel,60.24096386,,0,1,1,1,1,3,1,competent.png,52
,,,,,,,,,,0,44,44,15,1,16,image/16.jpg,0,0,,R_5pSuadkN58kbdOq,2,2024-04-16_08h02.55.012,face trait task,2021.2.3,MacIntel,60.24096386,,,,,,,,,,
,,,,,,,,,,0,45,45,37,1,38,image/38.jpg,0,0,,R_5pSuadkN58kbdOq,2,2024-04-16_08h02.55.012,face trait task,2021.2.3,MacIntel,60.24096386,,0,1,1,1,1,3,1,competent.png,52
,,,,,,,,,,0,45,45,37,1,38,image/38.jpg,0,0,,R_5pSuadkN58kbdOq,2,2024-04-16_08h02.55.012,face trait task,2021.2.3,MacIntel,60.24096386,,0,1,1,1,1,3,1,competent.png,52
,,,,,,,,,,0,45,45,37,1,38,image/38.jpg,0,0,,R_5pSuadkN58kbdOq,2,2024-04-16_08h02.55.012,face trait task,2021.2.3,MacIntel,60.24096386,,,,,,,,,,
,,,,,,,,,,0,46,46,32,1,33,image/33.jpg,0,0,,R_5pSuadkN58kbdOq,2,2024-04-16_08h02.55.012,face trait task,2021.2.3,MacIntel,60.24096386,,0,1,1,1,1,3,1,competent.png,52
,,,,,,,,,,0,46,46,32,1,33,image/33.jpg,0,0,,R_5pSuadkN58kbdOq,2,2024-04-16_08h02.55.012,face trait task,2021.2.3,MacIntel,60.24096386,,0,1,1,1,1,3,1,competent.png,52
,,,,,,,,,,0,46,46,32,1,33,image/33.jpg,0,0,,R_5pSuadkN58kbdOq,2,2024-04-16_08h02.55.012,face trait task,2021.2.3,MacIntel,60.24096386,,,,,,,,,,
,,,,,,,,,,0,47,47,17,1,18,image/18.jpg,0,0,,R_5pSuadkN58kbdOq,2,2024-04-16_08h02.55.012,face trait task,2021.2.3,MacIntel,60.24096386,,0,1,1,1,1,3,1,competent.png,52
,,,,,,,,,,0,47,47,17,1,18,image/18.jpg,0,0,,R_5pSuadkN58kbdOq,2,2024-04-16_08h02.55.012,face trait task,2021.2.3,MacIntel,60.24096386,,0,1,1,1,1,3,1,competent.png,52
,,,,,,,,,,0,47,47,17,1,18,image/18.jpg,0,0,,R_5pSuadkN58kbdOq,2,2024-04-16_08h02.55.012,face trait task,2021.2.3,MacIntel,60.24096386,,,,,,,,,,
,,,,,,,,,,0,48,48,12,1,13,image/13.jpg,0,0,,R_5pSuadkN58kbdOq,2,2024-04-16_08h02.55.012,face trait task,2021.2.3,MacIntel,60.24096386,,0,1,1,1,1,3,1,competent.png,52
,,,,,,,,,,0,48,48,12,1,13,image/13.jpg,0,0,,R_5pSuadkN58kbdOq,2,2024-04-16_08h02.55.012,face trait task,2021.2.3,MacIntel,60.24096386,,0,1,1,1,1,3,1,competent.png,52
,,,,,,,,,,0,48,48,12,1,13,image/13.jpg,0,0,,R_5pSuadkN58kbdOq,2,2024-04-16_08h02.55.012,face trait task,2021.2.3,MacIntel,60.24096386,,,,,,,,,,
,,,,,,,,,,0,49,49,25,1,26,image/26.jpg,0,0,,R_5pSuadkN58kbdOq,2,2024-04-16_08h02.55.012,face trait task,2021.2.3,MacIntel,60.24096386,,0,1,1,1,1,3,1,competent.png,52
,,,,,,,,,,0,49,49,25,1,26,image/26.jpg,0,0,,R_5pSuadkN58kbdOq,2,2024-04-16_08h02.55.012,face trait task,2021.2.3,MacIntel,60.24096386,,0,1,1,1,1,3,1,competent.png,52
,,,,,,,,,,0,49,49,25,1,26,image/26.jpg,0,0,,R_5pSuadkN58kbdOq,2,2024-04-16_08h02.55.012,face trait task,2021.2.3,MacIntel,60.24096386,,,,,,,,,,
,,,,,,,,,,0,50,50,7,1,8,image/8.jpg,0,0,,R_5pSuadkN58kbdOq,2,2024-04-16_08h02.55.012,face trait task,2021.2.3,MacIntel,60.24096386,,0,1,1,1,1,3,1,competent.png,52
,,,,,,,,,,0,50,50,7,1,8,image/8.jpg,0,0,,R_5pSuadkN58kbdOq,2,2024-04-16_08h02.55.012,face trait task,2021.2.3,MacIntel,60.24096386,,0,1,1,1,1,3,1,competent.png,52
,,,,,,,,,,0,50,50,7,1,8,image/8.jpg,0,0,,R_5pSuadkN58kbdOq,2,2024-04-16_08h02.55.012,face trait task,2021.2.3,MacIntel,60.24096386,,,,,,,,,,
,,,,,,,,,,0,51,51,29,1,30,image/30.jpg,0,0,,R_5pSuadkN58kbdOq,2,2024-04-16_08h02.55.012,face trait task,2021.2.3,MacIntel,60.24096386,,0,1,1,1,1,3,1,competent.png,52
,,,,,,,,,,0,51,51,29,1,30,image/30.jpg,0,0,,R_5pSuadkN58kbdOq,2,2024-04-16_08h02.55.012,face trait task,2021.2.3,MacIntel,60.24096386,,0,1,1,1,1,3,1,competent.png,52
,,,,,,,,,,0,51,51,29,1,30,image/30.jpg,0,0,,R_5pSuadkN58kbdOq,2,2024-04-16_08h02.55.012,face trait task,2021.2.3,MacIntel,60.24096386,,,,,,,,,,
,,,,,,,,,,0,52,52,11,1,12,image/12.jpg,0,0,,R_5pSuadkN58kbdOq,2,2024-04-16_08h02.55.012,face trait task,2021.2.3,MacIntel,60.24096386,,0,1,1,1,1,3,1,competent.png,52
,,,,,,,,,,0,52,52,11,1,12,image/12.jpg,0,0,,R_5pSuadkN58kbdOq,2,2024-04-16_08h02.55.012,face trait task,2021.2.3,MacIntel,60.24096386,,0,1,1,1,1,3,1,competent.png,52
,,,,,,,,,,0,52,52,11,1,12,image/12.jpg,0,0,,R_5pSuadkN58kbdOq,2,2024-04-16_08h02.55.012,face trait task,2021.2.3,MacIntel,60.24096386,,,,,,,,,,
,,,,,,,,,,,,,,,,,,,,R_5pSuadkN58kbdOq,2,2024-04-16_08h02.55.012,face trait task,2021.2.3,MacIntel,60.24096386,,0,1,1,1,1,,1,competent.png,
,,,,,trustworthy,3.460694987,1.4246,space,0.3364,0,0,0,12,1,13,image/13.jpg,0,0,,R_5pSuadkN58kbdOq,2,2024-04-16_08h02.55.012,face trait task,2021.2.3,MacIntel,60.24096386,,,,,,,,,,
,,,,,,3.634406738,1.465,space,0.2577,0,1,1,1,1,2,image/2.jpg,0,0,,R_5pSuadkN58kbdOq,2,2024-04-16_08h02.55.012,face trait task,2021.2.3,MacIntel,60.24096386,,,,,,,,,,
,,,,,,,,,,0,2,2,51,1,56,image/56.jpg,1,2,Please drag the slider to around 2 to indicate that you are paying attention,R_5pSuadkN58kbdOq,2,2024-04-16_08h02.55.012,face trait task,2021.2.3,MacIntel,60.24096386,,0,2,2,2,1,3,2,trustworthy.png,52
,,,,,,,,,,0,2,2,51,1,56,image/56.jpg,1,2,Please drag the slider to around 2 to indicate that you are paying attention,R_5pSuadkN58kbdOq,2,2024-04-16_08h02.55.012,face trait task,2021.2.3,MacIntel,60.24096386,,0,2,2,2,1,3,2,trustworthy.png,52
,,,,,,,,,,0,2,2,51,1,56,image/56.jpg,1,2,Please drag the slider to around 2 to indicate that you are paying attention,R_5pSuadkN58kbdOq,2,2024-04-16_08h02.55.012,face trait task,2021.2.3,MacIntel,60.24096386,,,,,,,,,,
,,,,,,,,,,0,3,3,42,1,43,image/43.jpg,0,0,,R_5pSuadkN58kbdOq,2,2024-04-16_08h02.55.012,face trait task,2021.2.3,MacIntel,60.24096386,,0,2,2,2,1,3,2,trustworthy.png,52
,,,,,,,,,,0,3,3,42,1,43,image/43.jpg,0,0,,R_5pSuadkN58kbdOq,2,2024-04-16_08h02.55.012,face trait task,2021.2.3,MacIntel,60.24096386,,0,2,2,2,1,3,2,trustworthy.png,52
,,,,,,,,,,0,3,3,42,1,43,image/43.jpg,0,0,,R_5pSuadkN58kbdOq,2,2024-04-16_08h02.55.012,face trait task,2021.2.3,MacIntel,60.24096386,,,,,,,,,,
,,,,,,,,,,0,4,4,0,1,1,image/1.jpg,0,0,,R_5pSuadkN58kbdOq,2,2024-04-16_08h02.55.012,face trait task,2021.2.3,MacIntel,60.24096386,,0,2,2,2,1,3,2,trustworthy.png,52
,,,,,,,,,,0,4,4,0,1,1,image/1.jpg,0,0,,R_5pSuadkN58kbdOq,2,2024-04-16_08h02.55.012,face trait task,2021.2.3,MacIntel,60.24096386,,0,2,2,2,1,3,2,trustworthy.png,52
,,,,,,,,,,0,4,4,0,1,1,image/1.jpg,0,0,,R_5pSuadkN58kbdOq,2,2024-04-16_08h02.55.012,face trait task,2021.2.3,MacIntel,60.24096386,,,,,,,,,,
,,,,,,,,,,0,5,5,10,1,11,image/11.jpg,0,0,,R_5pSuadkN58kbdOq,2,2024-04-16_08h02.55.012,face trait task,2021.2.3,MacIntel,60.24096386,,0,2,2,2,1,3,2,trustworthy.png,52
,,,,,,,,,,0,5,5,10,1,11,image/11.jpg,0,0,,R_5pSuadkN58kbdOq,2,2024-04-16_08h02.55.012,face trait task,2021.2.3,MacIntel,60.24096386,,0,2,2,2,1,3,2,trustworthy.png,52
,,,,,,,,,,0,5,5,10,1,11,image/11.jpg,0,0,,R_5pSuadkN58kbdOq,2,2024-04-16_08h02.55.012,face trait task,2021.2.3,MacIntel,60.24096386,,,,,,,,,,
,,,,,,,,,,0,6,6,5,1,6,image/6.jpg,0,0,,R_5pSuadkN58kbdOq,2,2024-04-16_08h02.55.012,face trait task,2021.2.3,MacIntel,60.24096386,,0,2,2,2,1,3,2,trustworthy.png,52
,,,,,,,,,,0,6,6,5,1,6,image/6.jpg,0,0,,R_5pSuadkN58kbdOq,2,2024-04-16_08h02.55.012,face trait task,2021.2.3,MacIntel,60.24096386,,0,2,2,2,1,3,2,trustworthy.png,52
,,,,,,,,,,0,6,6,5,1,6,image/6.jpg,0,0,,R_5pSuadkN58kbdOq,2,2024-04-16_08h02.55.012,face trait task,2021.2.3,MacIntel,60.24096386,,,,,,,,,,
,,,,,,,,,,0,7,7,23,1,24,image/24.jpg,0,0,,R_5pSuadkN58kbdOq,2,2024-04-16_08h02.55.012,face trait task,2021.2.3,MacIntel,60.24096386,,0,2,2,2,1,3,2,trustworthy.png,52
,,,,,,,,,,0,7,7,23,1,24,image/24.jpg,0,0,,R_5pSuadkN58kbdOq,2,2024-04-16_08h02.55.012,face trait task,2021.2.3,MacIntel,60.24096386,,0,2,2,2,1,3,2,trustworthy.png,52
,,,,,,,,,,0,7,7,23,1,24,image/24.jpg,0,0,,R_5pSuadkN58kbdOq,2,2024-04-16_08h02.55.012,face trait task,2021.2.3,MacIntel,60.24096386,,,,,,,,,,
,,,,,,,,,,0,8,8,35,1,36,image/36.jpg,0,0,,R_5pSuadkN58kbdOq,2,2024-04-16_08h02.55.012,face trait task,2021.2.3,MacIntel,60.24096386,,0,2,2,2,1,3,2,trustworthy.png,52
,,,,,,,,,,0,8,8,35,1,36,image/36.jpg,0,0,,R_5pSuadkN58kbdOq,2,2024-04-16_08h02.55.012,face trait task,2021.2.3,MacIntel,60.24096386,,0,2,2,2,1,3,2,trustworthy.png,52
,,,,,,,,,,0,8,8,35,1,36,image/36.jpg,0,0,,R_5pSuadkN58kbdOq,2,2024-04-16_08h02.55.012,face trait task,2021.2.3,MacIntel,60.24096386,,,,,,,,,,
,,,,,,,,,,0,9,9,28,1,29,image/29.jpg,0,0,,R_5pSuadkN58kbdOq,2,2024-04-16_08h02.55.012,face trait task,2021.2.3,MacIntel,60.24096386,,0,2,2,2,1,3,2,trustworthy.png,52
,,,,,,,,,,0,9,9,28,1,29,image/29.jpg,0,0,,R_5pSuadkN58kbdOq,2,2024-04-16_08h02.55.012,face trait task,2021.2.3,MacIntel,60.24096386,,0,2,2,2,1,3,2,trustworthy.png,52
,,,,,,,,,,0,9,9,28,1,29,image/29.jpg,0,0,,R_5pSuadkN58kbdOq,2,2024-04-16_08h02.55.012,face trait task,2021.2.3,MacIntel,60.24096386,,,,,,,,,,
,,,,,,,,,,0,10,10,32,1,33,image/33.jpg,0,0,,R_5pSuadkN58kbdOq,2,2024-04-16_08h02.55.012,face trait task,2021.2.3,MacIntel,60.24096386,,0,2,2,2,1,3,2,trustworthy.png,52
,,,,,,,,,,0,10,10,32,1,33,image/33.jpg,0,0,,R_5pSuadkN58kbdOq,2,2024-04-16_08h02.55.012,face trait task,2021.2.3,MacIntel,60.24096386,,0,2,2,2,1,3,2,trustworthy.png,52
,,,,,,,,,,0,10,10,32,1,33,image/33.jpg,0,0,,R_5pSuadkN58kbdOq,2,2024-04-16_08h02.55.012,face trait task,2021.2.3,MacIntel,60.24096386,,,,,,,,,,
,,,,,,,,,,0,11,11,3,1,4,image/4.jpg,0,0,,R_5pSuadkN58kbdOq,2,2024-04-16_08h02.55.012,face trait task,2021.2.3,MacIntel,60.24096386,,0,2,2,2,1,3,2,trustworthy.png,52
,,,,,,,,,,0,11,11,3,1,4,image/4.jpg,0,0,,R_5pSuadkN58kbdOq,2,2024-04-16_08h02.55.012,face trait task,2021.2.3,MacIntel,60.24096386,,0,2,2,2,1,3,2,trustworthy.png,52
,,,,,,,,,,0,11,11,3,1,4,image/4.jpg,0,0,,R_5pSuadkN58kbdOq,2,2024-04-16_08h02.55.012,face trait task,2021.2.3,MacIntel,60.24096386,,,,,,,,,,
,,,,,,,,,,0,12,12,21,1,22,image/22.jpg,0,0,,R_5pSuadkN58kbdOq,2,2024-04-16_08h02.55.012,face trait task,2021.2.3,MacIntel,60.24096386,,0,2,2,2,1,3,2,trustworthy.png,52
,,,,,,,,,,0,12,12,21,1,22,image/22.jpg,0,0,,R_5pSuadkN58kbdOq,2,2024-04-16_08h02.55.012,face trait task,2021.2.3,MacIntel,60.24096386,,0,2,2,2,1,3,2,trustworthy.png,52
,,,,,,,,,,0,12,12,21,1,22,image/22.jpg,0,0,,R_5pSuadkN58kbdOq,2,2024-04-16_08h02.55.012,face trait task,2021.2.3,MacIntel,60.24096386,,,,,,,,,,
,,,,,,,,,,0,13,13,9,1,10,image/10.jpg,0,0,,R_5pSuadkN58kbdOq,2,2024-04-16_08h02.55.012,face trait task,2021.2.3,MacIntel,60.24096386,,0,2,2,2,1,3,2,trustworthy.png,52
,,,,,,,,,,0,13,13,9,1,10,image/10.jpg,0,0,,R_5pSuadkN58kbdOq,2,2024-04-16_08h02.55.012,face trait task,2021.2.3,MacIntel,60.24096386,,0,2,2,2,1,3,2,trustworthy.png,52
,,,,,,,,,,0,13,13,9,1,10,image/10.jpg,0,0,,R_5pSuadkN58kbdOq,2,2024-04-16_08h02.55.012,face trait task,2021.2.3,MacIntel,60.24096386,,,,,,,,,,
,,,,,,,,,,0,14,14,8,1,9,image/9.jpg,0,0,,R_5pSuadkN58kbdOq,2,2024-04-16_08h02.55.012,face trait task,2021.2.3,MacIntel,60.24096386,,0,2,2,2,1,3,2,trustworthy.png,52
,,,,,,,,,,0,14,14,8,1,9,image/9.jpg,0,0,,R_5pSuadkN58kbdOq,2,2024-04-16_08h02.55.012,face trait task,2021.2.3,MacIntel,60.24096386,,0,2,2,2,1,3,2,trustworthy.png,52
,,,,,,,,,,0,14,14,8,1,9,image/9.jpg,0,0,,R_5pSuadkN58kbdOq,2,2024-04-16_08h02.55.012,face trait task,2021.2.3,MacIntel,60.24096386,,,,,,,,,,
,,,,,,,,,,0,15,15,33,1,34,image/34.jpg,0,0,,R_5pSuadkN58kbdOq,2,2024-04-16_08h02.55.012,face trait task,2021.2.3,MacIntel,60.24096386,,0,2,2,2,1,3,2,trustworthy.png,52
,,,,,,,,,,0,15,15,33,1,34,image/34.jpg,0,0,,R_5pSuadkN58kbdOq,2,2024-04-16_08h02.55.012,face trait task,2021.2.3,MacIntel,60.24096386,,0,2,2,2,1,3,2,trustworthy.png,52
,,,,,,,,,,0,15,15,33,1,34,image/34.jpg,0,0,,R_5pSuadkN58kbdOq,2,2024-04-16_08h02.55.012,face trait task,2021.2.3,MacIntel,60.24096386,,,,,,,,,,
,,,,,,,,,,0,16,16,52,1,59,image/59.jpg,1,3,Please drag the slider to around 3 to indicate that you are paying attention,R_5pSuadkN58kbdOq,2,2024-04-16_08h02.55.012,face trait task,2021.2.3,MacIntel,60.24096386,,0,2,2,2,1,3,2,trustworthy.png,52
,,,,,,,,,,0,16,16,52,1,59,image/59.jpg,1,3,Please drag the slider to around 3 to indicate that you are paying attention,R_5pSuadkN58kbdOq,2,2024-04-16_08h02.55.012,face trait task,2021.2.3,MacIntel,60.24096386,,0,2,2,2,1,3,2,trustworthy.png,52
,,,,,,,,,,0,16,16,52,1,59,image/59.jpg,1,3,Please drag the slider to around 3 to indicate that you are paying attention,R_5pSuadkN58kbdOq,2,2024-04-16_08h02.55.012,face trait task,2021.2.3,MacIntel,60.24096386,,,,,,,,,,
,,,,,,,,,,0,17,17,49,1,50,image/50.jpg,0,0,,R_5pSuadkN58kbdOq,2,2024-04-16_08h02.55.012,face trait task,2021.2.3,MacIntel,60.24096386,,0,2,2,2,1,3,2,trustworthy.png,52
,,,,,,,,,,0,17,17,49,1,50,image/50.jpg,0,0,,R_5pSuadkN58kbdOq,2,2024-04-16_08h02.55.012,face trait task,2021.2.3,MacIntel,60.24096386,,0,2,2,2,1,3,2,trustworthy.png,52
,,,,,,,,,,0,17,17,49,1,50,image/50.jpg,0,0,,R_5pSuadkN58kbdOq,2,2024-04-16_08h02.55.012,face trait task,2021.2.3,MacIntel,60.24096386,,,,,,,,,,
,,,,,,,,,,0,18,18,39,1,40,image/40.jpg,0,0,,R_5pSuadkN58kbdOq,2,2024-04-16_08h02.55.012,face trait task,2021.2.3,MacIntel,60.24096386,,0,2,2,2,1,3,2,trustworthy.png,52
,,,,,,,,,,0,18,18,39,1,40,image/40.jpg,0,0,,R_5pSuadkN58kbdOq,2,2024-04-16_08h02.55.012,face trait task,2021.2.3,MacIntel,60.24096386,,0,2,2,2,1,3,2,trustworthy.png,52
,,,,,,,,,,0,18,18,39,1,40,image/40.jpg,0,0,,R_5pSuadkN58kbdOq,2,2024-04-16_08h02.55.012,face trait task,2021.2.3,MacIntel,60.24096386,,,,,,,,,,
,,,,,,,,,,0,19,19,16,1,17,image/17.jpg,0,0,,R_5pSuadkN58kbdOq,2,2024-04-16_08h02.55.012,face trait task,2021.2.3,MacIntel,60.24096386,,0,2,2,2,1,3,2,trustworthy.png,52
,,,,,,,,,,0,19,19,16,1,17,image/17.jpg,0,0,,R_5pSuadkN58kbdOq,2,2024-04-16_08h02.55.012,face trait task,2021.2.3,MacIntel,60.24096386,,0,2,2,2,1,3,2,trustworthy.png,52
,,,,,,,,,,0,19,19,16,1,17,image/17.jpg,0,0,,R_5pSuadkN58kbdOq,2,2024-04-16_08h02.55.012,face trait task,2021.2.3,MacIntel,60.24096386,,,,,,,,,,
,,,,,,,,,,0,20,20,17,1,18,image/18.jpg,0,0,,R_5pSuadkN58kbdOq,2,2024-04-16_08h02.55.012,face trait task,2021.2.3,MacIntel,60.24096386,,0,2,2,2,1,3,2,trustworthy.png,52
,,,,,,,,,,0,20,20,17,1,18,image/18.jpg,0,0,,R_5pSuadkN58kbdOq,2,2024-04-16_08h02.55.012,face trait task,2021.2.3,MacIntel,60.24096386,,0,2,2,2,1,3,2,trustworthy.png,52
,,,,,,,,,,0,20,20,17,1,18,image/18.jpg,0,0,,R_5pSuadkN58kbdOq,2,2024-04-16_08h02.55.012,face trait task,2021.2.3,MacIntel,60.24096386,,,,,,,,,,
,,,,,,,,,,0,21,21,48,1,49,image/49.jpg,0,0,,R_5pSuadkN58kbdOq,2,2024-04-16_08h02.55.012,face trait task,2021.2.3,MacIntel,60.24096386,,0,2,2,2,1,3,2,trustworthy.png,52
,,,,,,,,,,0,21,21,48,1,49,image/49.jpg,0,0,,R_5pSuadkN58kbdOq,2,2024-04-16_08h02.55.012,face trait task,2021.2.3,MacIntel,60.24096386,,0,2,2,2,1,3,2,trustworthy.png,52
,,,,,,,,,,0,21,21,48,1,49,image/49.jpg,0,0,,R_5pSuadkN58kbdOq,2,2024-04-16_08h02.55.012,face trait task,2021.2.3,MacIntel,60.24096386,,,,,,,,,,
,,,,,,,,,,0,22,22,15,1,16,image/16.jpg,0,0,,R_5pSuadkN58kbdOq,2,2024-04-16_08h02.55.012,face trait task,2021.2.3,MacIntel,60.24096386,,0,2,2,2,1,3,2,trustworthy.png,52
,,,,,,,,,,0,22,22,15,1,16,image/16.jpg,0,0,,R_5pSuadkN58kbdOq,2,2024-04-16_08h02.55.012,face trait task,2021.2.3,MacIntel,60.24096386,,0,2,2,2,1,3,2,trustworthy.png,52
,,,,,,,,,,0,22,22,15,1,16,image/16.jpg,0,0,,R_5pSuadkN58kbdOq,2,2024-04-16_08h02.55.012,face trait task,2021.2.3,MacIntel,60.24096386,,,,,,,,,,
,,,,,,,,,,0,23,23,43,1,44,image/44.jpg,0,0,,R_5pSuadkN58kbdOq,2,2024-04-16_08h02.55.012,face trait task,2021.2.3,MacIntel,60.24096386,,0,2,2,2,1,3,2,trustworthy.png,52
,,,,,,,,,,0,23,23,43,1,44,image/44.jpg,0,0,,R_5pSuadkN58kbdOq,2,2024-04-16_08h02.55.012,face trait task,2021.2.3,MacIntel,60.24096386,,0,2,2,2,1,3,2,trustworthy.png,52
,,,,,,,,,,0,23,23,43,1,44,image/44.jpg,0,0,,R_5pSuadkN58kbdOq,2,2024-04-16_08h02.55.012,face trait task,2021.2.3,MacIntel,60.24096386,,,,,,,,,,
,,,,,,,,,,0,24,24,41,1,42,image/42.jpg,0,0,,R_5pSuadkN58kbdOq,2,2024-04-16_08h02.55.012,face trait task,2021.2.3,MacIntel,60.24096386,,0,2,2,2,1,3,2,trustworthy.png,52
,,,,,,,,,,0,24,24,41,1,42,image/42.jpg,0,0,,R_5pSuadkN58kbdOq,2,2024-04-16_08h02.55.012,face trait task,2021.2.3,MacIntel,60.24096386,,0,2,2,2,1,3,2,trustworthy.png,52
,,,,,,,,,,0,24,24,41,1,42,image/42.jpg,0,0,,R_5pSuadkN58kbdOq,2,2024-04-16_08h02.55.012,face trait task,2021.2.3,MacIntel,60.24096386,,,,,,,,,,
,,,,,,,,,,0,25,25,34,1,35,image/35.jpg,0,0,,R_5pSuadkN58kbdOq,2,2024-04-16_08h02.55.012,face trait task,2021.2.3,MacIntel,60.24096386,,0,2,2,2,1,3,2,trustworthy.png,52
,,,,,,,,,,0,25,25,34,1,35,image/35.jpg,0,0,,R_5pSuadkN58kbdOq,2,2024-04-16_08h02.55.012,face trait task,2021.2.3,MacIntel,60.24096386,,0,2,2,2,1,3,2,trustworthy.png,52
,,,,,,,,,,0,25,25,34,1,35,image/35.jpg,0,0,,R_5pSuadkN58kbdOq,2,2024-04-16_08h02.55.012,face trait task,2021.2.3,MacIntel,60.24096386,,,,,,,,,,
,,,,,,,,,,0,26,26,6,1,7,image/7.jpg,0,0,,R_5pSuadkN58kbdOq,2,2024-04-16_08h02.55.012,face trait task,2021.2.3,MacIntel,60.24096386,,0,2,2,2,1,3,2,trustworthy.png,52
,,,,,,,,,,0,26,26,6,1,7,image/7.jpg,0,0,,R_5pSuadkN58kbdOq,2,2024-04-16_08h02.55.012,face trait task,2021.2.3,MacIntel,60.24096386,,0,2,2,2,1,3,2,trustworthy.png,52
,,,,,,,,,,0,26,26,6,1,7,image/7.jpg,0,0,,R_5pSuadkN58kbdOq,2,2024-04-16_08h02.55.012,face trait task,2021.2.3,MacIntel,60.24096386,,,,,,,,,,
,,,,,,,,,,0,27,27,19,1,20,image/20.jpg,0,0,,R_5pSuadkN58kbdOq,2,2024-04-16_08h02.55.012,face trait task,2021.2.3,MacIntel,60.24096386,,0,2,2,2,1,3,2,trustworthy.png,52
,,,,,,,,,,0,27,27,19,1,20,image/20.jpg,0,0,,R_5pSuadkN58kbdOq,2,2024-04-16_08h02.55.012,face trait task,2021.2.3,MacIntel,60.24096386,,0,2,2,2,1,3,2,trustworthy.png,52
,,,,,,,,,,0,27,27,19,1,20,image/20.jpg,0,0,,R_5pSuadkN58kbdOq,2,2024-04-16_08h02.55.012,face trait task,2021.2.3,MacIntel,60.24096386,,,,,,,,,,
,,,,,,,,,,0,28,28,31,1,32,image/32.jpg,0,0,,R_5pSuadkN58kbdOq,2,2024-04-16_08h02.55.012,face trait task,2021.2.3,MacIntel,60.24096386,,0,2,2,2,1,3,2,trustworthy.png,52
,,,,,,,,,,0,28,28,31,1,32,image/32.jpg,0,0,,R_5pSuadkN58kbdOq,2,2024-04-16_08h02.55.012,face trait task,2021.2.3,MacIntel,60.24096386,,0,2,2,2,1,3,2,trustworthy.png,52
,,,,,,,,,,0,28,28,31,1,32,image/32.jpg,0,0,,R_5pSuadkN58kbdOq,2,2024-04-16_08h02.55.012,face trait task,2021.2.3,MacIntel,60.24096386,,,,,,,,,,
,,,,,,,,,,0,29,29,14,1,15,image/15.jpg,0,0,,R_5pSuadkN58kbdOq,2,2024-04-16_08h02.55.012,face trait task,2021.2.3,MacIntel,60.24096386,,0,2,2,2,1,3,2,trustworthy.png,52
,,,,,,,,,,0,29,29,14,1,15,image/15.jpg,0,0,,R_5pSuadkN58kbdOq,2,2024-04-16_08h02.55.012,face trait task,2021.2.3,MacIntel,60.24096386,,0,2,2,2,1,3,2,trustworthy.png,52
,,,,,,,,,,0,29,29,14,1,15,image/15.jpg,0,0,,R_5pSuadkN58kbdOq,2,2024-04-16_08h02.55.012,face trait task,2021.2.3,MacIntel,60.24096386,,,,,,,,,,
,,,,,,,,,,0,30,30,26,1,27,image/27.jpg,0,0,,R_5pSuadkN58kbdOq,2,2024-04-16_08h02.55.012,face trait task,2021.2.3,MacIntel,60.24096386,,0,2,2,2,1,3,2,trustworthy.png,52
,,,,,,,,,,0,30,30,26,1,27,image/27.jpg,0,0,,R_5pSuadkN58kbdOq,2,2024-04-16_08h02.55.012,face trait task,2021.2.3,MacIntel,60.24096386,,0,2,2,2,1,3,2,trustworthy.png,52
,,,,,,,,,,0,30,30,26,1,27,image/27.jpg,0,0,,R_5pSuadkN58kbdOq,2,2024-04-16_08h02.55.012,face trait task,2021.2.3,MacIntel,60.24096386,,,,,,,,,,
,,,,,,,,,,0,31,31,50,1,51,image/51.jpg,1,5,Please drag the slider to around 5 to indicate that you are paying attention,R_5pSuadkN58kbdOq,2,2024-04-16_08h02.55.012,face trait task,2021.2.3,MacIntel,60.24096386,,0,2,2,2,1,3,2,trustworthy.png,52
,,,,,,,,,,0,31,31,50,1,51,image/51.jpg,1,5,Please drag the slider to around 5 to indicate that you are paying attention,R_5pSuadkN58kbdOq,2,2024-04-16_08h02.55.012,face trait task,2021.2.3,MacIntel,60.24096386,,0,2,2,2,1,3,2,trustworthy.png,52
,,,,,,,,,,0,31,31,50,1,51,image/51.jpg,1,5,Please drag the slider to around 5 to indicate that you are paying attention,R_5pSuadkN58kbdOq,2,2024-04-16_08h02.55.012,face trait task,2021.2.3,MacIntel,60.24096386,,,,,,,,,,
,,,,,,,,,,0,32,32,11,1,12,image/12.jpg,0,0,,R_5pSuadkN58kbdOq,2,2024-04-16_08h02.55.012,face trait task,2021.2.3,MacIntel,60.24096386,,0,2,2,2,1,3,2,trustworthy.png,52
,,,,,,,,,,0,32,32,11,1,12,image/12.jpg,0,0,,R_5pSuadkN58kbdOq,2,2024-04-16_08h02.55.012,face trait task,2021.2.3,MacIntel,60.24096386,,0,2,2,2,1,3,2,trustworthy.png,52
,,,,,,,,,,0,32,32,11,1,12,image/12.jpg,0,0,,R_5pSuadkN58kbdOq,2,2024-04-16_08h02.55.012,face trait task,2021.2.3,MacIntel,60.24096386,,,,,,,,,,
,,,,,,,,,,0,33,33,24,1,25,image/25.jpg,0,0,,R_5pSuadkN58kbdOq,2,2024-04-16_08h02.55.012,face trait task,2021.2.3,MacIntel,60.24096386,,0,2,2,2,1,3,2,trustworthy.png,52
,,,,,,,,,,0,33,33,24,1,25,image/25.jpg,0,0,,R_5pSuadkN58kbdOq,2,2024-04-16_08h02.55.012,face trait task,2021.2.3,MacIntel,60.24096386,,0,2,2,2,1,3,2,trustworthy.png,52
,,,,,,,,,,0,33,33,24,1,25,image/25.jpg,0,0,,R_5pSuadkN58kbdOq,2,2024-04-16_08h02.55.012,face trait task,2021.2.3,MacIntel,60.24096386,,,,,,,,,,
,,,,,,,,,,0,34,34,47,1,48,image/48.jpg,0,0,,R_5pSuadkN58kbdOq,2,2024-04-16_08h02.55.012,face trait task,2021.2.3,MacIntel,60.24096386,,0,2,2,2,1,3,2,trustworthy.png,52
,,,,,,,,,,0,34,34,47,1,48,image/48.jpg,0,0,,R_5pSuadkN58kbdOq,2,2024-04-16_08h02.55.012,face trait task,2021.2.3,MacIntel,60.24096386,,0,2,2,2,1,3,2,trustworthy.png,52
,,,,,,,,,,0,34,34,47,1,48,image/48.jpg,0,0,,R_5pSuadkN58kbdOq,2,2024-04-16_08h02.55.012,face trait task,2021.2.3,MacIntel,60.24096386,,,,,,,,,,
,,,,,,,,,,0,35,35,44,1,45,image/45.jpg,0,0,,R_5pSuadkN58kbdOq,2,2024-04-16_08h02.55.012,face trait task,2021.2.3,MacIntel,60.24096386,,0,2,2,2,1,3,2,trustworthy.png,52
,,,,,,,,,,0,35,35,44,1,45,image/45.jpg,0,0,,R_5pSuadkN58kbdOq,2,2024-04-16_08h02.55.012,face trait task,2021.2.3,MacIntel,60.24096386,,0,2,2,2,1,3,2,trustworthy.png,52
,,,,,,,,,,0,35,35,44,1,45,image/45.jpg,0,0,,R_5pSuadkN58kbdOq,2,2024-04-16_08h02.55.012,face trait task,2021.2.3,MacIntel,60.24096386,,,,,,,,,,
,,,,,,,,,,0,36,36,29,1,30,image/30.jpg,0,0,,R_5pSuadkN58kbdOq,2,2024-04-16_08h02.55.012,face trait task,2021.2.3,MacIntel,60.24096386,,0,2,2,2,1,3,2,trustworthy.png,52
,,,,,,,,,,0,36,36,29,1,30,image/30.jpg,0,0,,R_5pSuadkN58kbdOq,2,2024-04-16_08h02.55.012,face trait task,2021.2.3,MacIntel,60.24096386,,0,2,2,2,1,3,2,trustworthy.png,52
,,,,,,,,,,0,36,36,29,1,30,image/30.jpg,0,0,,R_5pSuadkN58kbdOq,2,2024-04-16_08h02.55.012,face trait task,2021.2.3,MacIntel,60.24096386,,,,,,,,,,
,,,,,,,,,,0,37,37,7,1,8,image/8.jpg,0,0,,R_5pSuadkN58kbdOq,2,2024-04-16_08h02.55.012,face trait task,2021.2.3,MacIntel,60.24096386,,0,2,2,2,1,3,2,trustworthy.png,52
,,,,,,,,,,0,37,37,7,1,8,image/8.jpg,0,0,,R_5pSuadkN58kbdOq,2,2024-04-16_08h02.55.012,face trait task,2021.2.3,MacIntel,60.24096386,,0,2,2,2,1,3,2,trustworthy.png,52
,,,,,,,,,,0,37,37,7,1,8,image/8.jpg,0,0,,R_5pSuadkN58kbdOq,2,2024-04-16_08h02.55.012,face trait task,2021.2.3,MacIntel,60.24096386,,,,,,,,,,
,,,,,,,,,,0,38,38,27,1,28,image/28.jpg,0,0,,R_5pSuadkN58kbdOq,2,2024-04-16_08h02.55.012,face trait task,2021.2.3,MacIntel,60.24096386,,0,2,2,2,1,3,2,trustworthy.png,52
,,,,,,,,,,0,38,38,27,1,28,image/28.jpg,0,0,,R_5pSuadkN58kbdOq,2,2024-04-16_08h02.55.012,face trait task,2021.2.3,MacIntel,60.24096386,,0,2,2,2,1,3,2,trustworthy.png,52
,,,,,,,,,,0,38,38,27,1,28,image/28.jpg,0,0,,R_5pSuadkN58kbdOq,2,2024-04-16_08h02.55.012,face trait task,2021.2.3,MacIntel,60.24096386,,,,,,,,,,
,,,,,,,,,,0,39,39,45,1,46,image/46.jpg,0,0,,R_5pSuadkN58kbdOq,2,2024-04-16_08h02.55.012,face trait task,2021.2.3,MacIntel,60.24096386,,0,2,2,2,1,3,2,trustworthy.png,52
,,,,,,,,,,0,39,39,45,1,46,image/46.jpg,0,0,,R_5pSuadkN58kbdOq,2,2024-04-16_08h02.55.012,face trait task,2021.2.3,MacIntel,60.24096386,,0,2,2,2,1,3,2,trustworthy.png,52
,,,,,,,,,,0,39,39,45,1,46,image/46.jpg,0,0,,R_5pSuadkN58kbdOq,2,2024-04-16_08h02.55.012,face trait task,2021.2.3,MacIntel,60.24096386,,,,,,,,,,
,,,,,,,,,,0,40,40,22,1,23,image/23.jpg,0,0,,R_5pSuadkN58kbdOq,2,2024-04-16_08h02.55.012,face trait task,2021.2.3,MacIntel,60.24096386,,0,2,2,2,1,3,2,trustworthy.png,52
,,,,,,,,,,0,40,40,22,1,23,image/23.jpg,0,0,,R_5pSuadkN58kbdOq,2,2024-04-16_08h02.55.012,face trait task,2021.2.3,MacIntel,60.24096386,,0,2,2,2,1,3,2,trustworthy.png,52
,,,,,,,,,,0,40,40,22,1,23,image/23.jpg,0,0,,R_5pSuadkN58kbdOq,2,2024-04-16_08h02.55.012,face trait task,2021.2.3,MacIntel,60.24096386,,,,,,,,,,
,,,,,,,,,,0,41,41,2,1,3,image/3.jpg,0,0,,R_5pSuadkN58kbdOq,2,2024-04-16_08h02.55.012,face trait task,2021.2.3,MacIntel,60.24096386,,0,2,2,2,1,3,2,trustworthy.png,52
,,,,,,,,,,0,41,41,2,1,3,image/3.jpg,0,0,,R_5pSuadkN58kbdOq,2,2024-04-16_08h02.55.012,face trait task,2021.2.3,MacIntel,60.24096386,,0,2,2,2,1,3,2,trustworthy.png,52
,,,,,,,,,,0,41,41,2,1,3,image/3.jpg,0,0,,R_5pSuadkN58kbdOq,2,2024-04-16_08h02.55.012,face trait task,2021.2.3,MacIntel,60.24096386,,,,,,,,,,
,,,,,,,,,,0,42,42,36,1,37,image/37.jpg,0,0,,R_5pSuadkN58kbdOq,2,2024-04-16_08h02.55.012,face trait task,2021.2.3,MacIntel,60.24096386,,0,2,2,2,1,3,2,trustworthy.png,52
,,,,,,,,,,0,42,42,36,1,37,image/37.jpg,0,0,,R_5pSuadkN58kbdOq,2,2024-04-16_08h02.55.012,face trait task,2021.2.3,MacIntel,60.24096386,,0,2,2,2,1,3,2,trustworthy.png,52
,,,,,,,,,,0,42,42,36,1,37,image/37.jpg,0,0,,R_5pSuadkN58kbdOq,2,2024-04-16_08h02.55.012,face trait task,2021.2.3,MacIntel,60.24096386,,,,,,,,,,
,,,,,,,,,,0,43,43,38,1,39,image/39.jpg,0,0,,R_5pSuadkN58kbdOq,2,2024-04-16_08h02.55.012,face trait task,2021.2.3,MacIntel,60.24096386,,0,2,2,2,1,3,2,trustworthy.png,52
,,,,,,,,,,0,43,43,38,1,39,image/39.jpg,0,0,,R_5pSuadkN58kbdOq,2,2024-04-16_08h02.55.012,face trait task,2021.2.3,MacIntel,60.24096386,,0,2,2,2,1,3,2,trustworthy.png,52
,,,,,,,,,,0,43,43,38,1,39,image/39.jpg,0,0,,R_5pSuadkN58kbdOq,2,2024-04-16_08h02.55.012,face trait task,2021.2.3,MacIntel,60.24096386,,,,,,,,,,
,,,,,,,,,,0,44,44,37,1,38,image/38.jpg,0,0,,R_5pSuadkN58kbdOq,2,2024-04-16_08h02.55.012,face trait task,2021.2.3,MacIntel,60.24096386,,0,2,2,2,1,3,2,trustworthy.png,52
,,,,,,,,,,0,44,44,37,1,38,image/38.jpg,0,0,,R_5pSuadkN58kbdOq,2,2024-04-16_08h02.55.012,face trait task,2021.2.3,MacIntel,60.24096386,,0,2,2,2,1,3,2,trustworthy.png,52
,,,,,,,,,,0,44,44,37,1,38,image/38.jpg,0,0,,R_5pSuadkN58kbdOq,2,2024-04-16_08h02.55.012,face trait task,2021.2.3,MacIntel,60.24096386,,,,,,,,,,
,,,,,,,,,,0,45,45,40,1,41,image/41.jpg,0,0,,R_5pSuadkN58kbdOq,2,2024-04-16_08h02.55.012,face trait task,2021.2.3,MacIntel,60.24096386,,0,2,2,2,1,3,2,trustworthy.png,52
,,,,,,,,,,0,45,45,40,1,41,image/41.jpg,0,0,,R_5pSuadkN58kbdOq,2,2024-04-16_08h02.55.012,face trait task,2021.2.3,MacIntel,60.24096386,,0,2,2,2,1,3,2,trustworthy.png,52
,,,,,,,,,,0,45,45,40,1,41,image/41.jpg,0,0,,R_5pSuadkN58kbdOq,2,2024-04-16_08h02.55.012,face trait task,2021.2.3,MacIntel,60.24096386,,,,,,,,,,
,,,,,,,,,,0,46,46,4,1,5,image/5.jpg,0,0,,R_5pSuadkN58kbdOq,2,2024-04-16_08h02.55.012,face trait task,2021.2.3,MacIntel,60.24096386,,0,2,2,2,1,3,2,trustworthy.png,52
,,,,,,,,,,0,46,46,4,1,5,image/5.jpg,0,0,,R_5pSuadkN58kbdOq,2,2024-04-16_08h02.55.012,face trait task,2021.2.3,MacIntel,60.24096386,,0,2,2,2,1,3,2,trustworthy.png,52
,,,,,,,,,,0,46,46,4,1,5,image/5.jpg,0,0,,R_5pSuadkN58kbdOq,2,2024-04-16_08h02.55.012,face trait task,2021.2.3,MacIntel,60.24096386,,,,,,,,,,
,,,,,,,,,,0,47,47,25,1,26,image/26.jpg,0,0,,R_5pSuadkN58kbdOq,2,2024-04-16_08h02.55.012,face trait task,2021.2.3,MacIntel,60.24096386,,0,2,2,2,1,3,2,trustworthy.png,52
,,,,,,,,,,0,47,47,25,1,26,image/26.jpg,0,0,,R_5pSuadkN58kbdOq,2,2024-04-16_08h02.55.012,face trait task,2021.2.3,MacIntel,60.24096386,,0,2,2,2,1,3,2,trustworthy.png,52
,,,,,,,,,,0,47,47,25,1,26,image/26.jpg,0,0,,R_5pSuadkN58kbdOq,2,2024-04-16_08h02.55.012,face trait task,2021.2.3,MacIntel,60.24096386,,,,,,,,,,
,,,,,,,,,,0,48,48,18,1,19,image/19.jpg,0,0,,R_5pSuadkN58kbdOq,2,2024-04-16_08h02.55.012,face trait task,2021.2.3,MacIntel,60.24096386,,0,2,2,2,1,3,2,trustworthy.png,52
,,,,,,,,,,0,48,48,18,1,19,image/19.jpg,0,0,,R_5pSuadkN58kbdOq,2,2024-04-16_08h02.55.012,face trait task,2021.2.3,MacIntel,60.24096386,,0,2,2,2,1,3,2,trustworthy.png,52
,,,,,,,,,,0,48,48,18,1,19,image/19.jpg,0,0,,R_5pSuadkN58kbdOq,2,2024-04-16_08h02.55.012,face trait task,2021.2.3,MacIntel,60.24096386,,,,,,,,,,
,,,,,,,,,,0,49,49,13,1,14,image/14.jpg,0,0,,R_5pSuadkN58kbdOq,2,2024-04-16_08h02.55.012,face trait task,2021.2.3,MacIntel,60.24096386,,0,2,2,2,1,3,2,trustworthy.png,52
,,,,,,,,,,0,49,49,13,1,14,image/14.jpg,0,0,,R_5pSuadkN58kbdOq,2,2024-04-16_08h02.55.012,face trait task,2021.2.3,MacIntel,60.24096386,,0,2,2,2,1,3,2,trustworthy.png,52
,,,,,,,,,,0,49,49,13,1,14,image/14.jpg,0,0,,R_5pSuadkN58kbdOq,2,2024-04-16_08h02.55.012,face trait task,2021.2.3,MacIntel,60.24096386,,,,,,,,,,
,,,,,,,,,,0,50,50,20,1,21,image/21.jpg,0,0,,R_5pSuadkN58kbdOq,2,2024-04-16_08h02.55.012,face trait task,2021.2.3,MacIntel,60.24096386,,0,2,2,2,1,3,2,trustworthy.png,52
,,,,,,,,,,0,50,50,20,1,21,image/21.jpg,0,0,,R_5pSuadkN58kbdOq,2,2024-04-16_08h02.55.012,face trait task,2021.2.3,MacIntel,60.24096386,,0,2,2,2,1,3,2,trustworthy.png,52
,,,,,,,,,,0,50,50,20,1,21,image/21.jpg,0,0,,R_5pSuadkN58kbdOq,2,2024-04-16_08h02.55.012,face trait task,2021.2.3,MacIntel,60.24096386,,,,,,,,,,
,,,,,,,,,,0,51,51,46,1,47,image/47.jpg,0,0,,R_5pSuadkN58kbdOq,2,2024-04-16_08h02.55.012,face trait task,2021.2.3,MacIntel,60.24096386,,0,2,2,2,1,3,2,trustworthy.png,52
,,,,,,,,,,0,51,51,46,1,47,image/47.jpg,0,0,,R_5pSuadkN58kbdOq,2,2024-04-16_08h02.55.012,face trait task,2021.2.3,MacIntel,60.24096386,,0,2,2,2,1,3,2,trustworthy.png,52
,,,,,,,,,,0,51,51,46,1,47,image/47.jpg,0,0,,R_5pSuadkN58kbdOq,2,2024-04-16_08h02.55.012,face trait task,2021.2.3,MacIntel,60.24096386,,,,,,,,,,
,,,,,,,,,,0,52,52,30,1,31,image/31.jpg,0,0,,R_5pSuadkN58kbdOq,2,2024-04-16_08h02.55.012,face trait task,2021.2.3,MacIntel,60.24096386,,0,2,2,2,1,3,2,trustworthy.png,52
,,,,,,,,,,0,52,52,30,1,31,image/31.jpg,0,0,,R_5pSuadkN58kbdOq,2,2024-04-16_08h02.55.012,face trait task,2021.2.3,MacIntel,60.24096386,,0,2,2,2,1,3,2,trustworthy.png,52
,,,,,,,,,,0,52,52,30,1,31,image/31.jpg,0,0,,R_5pSuadkN58kbdOq,2,2024-04-16_08h02.55.012,face trait task,2021.2.3,MacIntel,60.24096386,,,,,,,,,,
,,,,,,,,,,,,,,,,,,,,R_5pSuadkN58kbdOq,2,2024-04-16_08h02.55.012,face trait task,2021.2.3,MacIntel,60.24096386,,0,2,2,2,1,,2,trustworthy.png,
,,,,,friendly,3.823230794,1.715,space,0.1047,0,0,0,49,1,50,image/50.jpg,0,0,,R_5pSuadkN58kbdOq,2,2024-04-16_08h02.55.012,face trait task,2021.2.3,MacIntel,60.24096386,,,,,,,,,,
,,,,,,4.191553548,1.3482,space,0.2666,0,1,1,13,1,14,image/14.jpg,0,0,,R_5pSuadkN58kbdOq,2,2024-04-16_08h02.55.012,face trait task,2021.2.3,MacIntel,60.24096386,,,,,,,,,,
,,,,,,,,,,0,2,2,45,1,46,image/46.jpg,0,0,,R_5pSuadkN58kbdOq,2,2024-04-16_08h02.55.012,face trait task,2021.2.3,MacIntel,60.24096386,,0,3,3,3,1,3,3,friendly.png,52
,,,,,,,,,,0,2,2,45,1,46,image/46.jpg,0,0,,R_5pSuadkN58kbdOq,2,2024-04-16_08h02.55.012,face trait task,2021.2.3,MacIntel,60.24096386,,0,3,3,3,1,3,3,friendly.png,52
,,,,,,,,,,0,2,2,45,1,46,image/46.jpg,0,0,,R_5pSuadkN58kbdOq,2,2024-04-16_08h02.55.012,face trait task,2021.2.3,MacIntel,60.24096386,,,,,,,,,,
,,,,,,,,,,0,3,3,17,1,18,image/18.jpg,0,0,,R_5pSuadkN58kbdOq,2,2024-04-16_08h02.55.012,face trait task,2021.2.3,MacIntel,60.24096386,,0,3,3,3,1,3,3,friendly.png,52
,,,,,,,,,,0,3,3,17,1,18,image/18.jpg,0,0,,R_5pSuadkN58kbdOq,2,2024-04-16_08h02.55.012,face trait task,2021.2.3,MacIntel,60.24096386,,0,3,3,3,1,3,3,friendly.png,52
,,,,,,,,,,0,3,3,17,1,18,image/18.jpg,0,0,,R_5pSuadkN58kbdOq,2,2024-04-16_08h02.55.012,face trait task,2021.2.3,MacIntel,60.24096386,,,,,,,,,,
,,,,,,,,,,0,4,4,15,1,16,image/16.jpg,0,0,,R_5pSuadkN58kbdOq,2,2024-04-16_08h02.55.012,face trait task,2021.2.3,MacIntel,60.24096386,,0,3,3,3,1,3,3,friendly.png,52
,,,,,,,,,,0,4,4,15,1,16,image/16.jpg,0,0,,R_5pSuadkN58kbdOq,2,2024-04-16_08h02.55.012,face trait task,2021.2.3,MacIntel,60.24096386,,0,3,3,3,1,3,3,friendly.png,52
,,,,,,,,,,0,4,4,15,1,16,image/16.jpg,0,0,,R_5pSuadkN58kbdOq,2,2024-04-16_08h02.55.012,face trait task,2021.2.3,MacIntel,60.24096386,,,,,,,,,,
,,,,,,,,,,0,5,5,43,1,44,image/44.jpg,0,0,,R_5pSuadkN58kbdOq,2,2024-04-16_08h02.55.012,face trait task,2021.2.3,MacIntel,60.24096386,,0,3,3,3,1,3,3,friendly.png,52
,,,,,,,,,,0,5,5,43,1,44,image/44.jpg,0,0,,R_5pSuadkN58kbdOq,2,2024-04-16_08h02.55.012,face trait task,2021.2.3,MacIntel,60.24096386,,0,3,3,3,1,3,3,friendly.png,52
,,,,,,,,,,0,5,5,43,1,44,image/44.jpg,0,0,,R_5pSuadkN58kbdOq,2,2024-04-16_08h02.55.012,face trait task,2021.2.3,MacIntel,60.24096386,,,,,,,,,,
,,,,,,,,,,0,6,6,16,1,17,image/17.jpg,0,0,,R_5pSuadkN58kbdOq,2,2024-04-16_08h02.55.012,face trait task,2021.2.3,MacIntel,60.24096386,,0,3,3,3,1,3,3,friendly.png,52
,,,,,,,,,,0,6,6,16,1,17,image/17.jpg,0,0,,R_5pSuadkN58kbdOq,2,2024-04-16_08h02.55.012,face trait task,2021.2.3,MacIntel,60.24096386,,0,3,3,3,1,3,3,friendly.png,52
,,,,,,,,,,0,6,6,16,1,17,image/17.jpg,0,0,,R_5pSuadkN58kbdOq,2,2024-04-16_08h02.55.012,face trait task,2021.2.3,MacIntel,60.24096386,,,,,,,,,,
,,,,,,,,,,0,7,7,44,1,45,image/45.jpg,0,0,,R_5pSuadkN58kbdOq,2,2024-04-16_08h02.55.012,face trait task,2021.2.3,MacIntel,60.24096386,,0,3,3,3,1,3,3,friendly.png,52
,,,,,,,,,,0,7,7,44,1,45,image/45.jpg,0,0,,R_5pSuadkN58kbdOq,2,2024-04-16_08h02.55.012,face trait task,2021.2.3,MacIntel,60.24096386,,0,3,3,3,1,3,3,friendly.png,52
,,,,,,,,,,0,7,7,44,1,45,image/45.jpg,0,0,,R_5pSuadkN58kbdOq,2,2024-04-16_08h02.55.012,face trait task,2021.2.3,MacIntel,60.24096386,,,,,,,,,,
,,,,,,,,,,0,8,8,51,1,56,image/56.jpg,1,2,Please drag the slider to around 2 to indicate that you are paying attention,R_5pSuadkN58kbdOq,2,2024-04-16_08h02.55.012,face trait task,2021.2.3,MacIntel,60.24096386,,0,3,3,3,1,3,3,friendly.png,52
,,,,,,,,,,0,8,8,51,1,56,image/56.jpg,1,2,Please drag the slider to around 2 to indicate that you are paying attention,R_5pSuadkN58kbdOq,2,2024-04-16_08h02.55.012,face trait task,2021.2.3,MacIntel,60.24096386,,0,3,3,3,1,3,3,friendly.png,52
,,,,,,,,,,0,8,8,51,1,56,image/56.jpg,1,2,Please drag the slider to around 2 to indicate that you are paying attention,R_5pSuadkN58kbdOq,2,2024-04-16_08h02.55.012,face trait task,2021.2.3,MacIntel,60.24096386,,,,,,,,,,
,,,,,,,,,,0,9,9,5,1,6,image/6.jpg,0,0,,R_5pSuadkN58kbdOq,2,2024-04-16_08h02.55.012,face trait task,2021.2.3,MacIntel,60.24096386,,0,3,3,3,1,3,3,friendly.png,52
,,,,,,,,,,0,9,9,5,1,6,image/6.jpg,0,0,,R_5pSuadkN58kbdOq,2,2024-04-16_08h02.55.012,face trait task,2021.2.3,MacIntel,60.24096386,,0,3,3,3,1,3,3,friendly.png,52
,,,,,,,,,,0,9,9,5,1,6,image/6.jpg,0,0,,R_5pSuadkN58kbdOq,2,2024-04-16_08h02.55.012,face trait task,2021.2.3,MacIntel,60.24096386,,,,,,,,,,
,,,,,,,,,,0,10,10,39,1,40,image/40.jpg,0,0,,R_5pSuadkN58kbdOq,2,2024-04-16_08h02.55.012,face trait task,2021.2.3,MacIntel,60.24096386,,0,3,3,3,1,3,3,friendly.png,52
,,,,,,,,,,0,10,10,39,1,40,image/40.jpg,0,0,,R_5pSuadkN58kbdOq,2,2024-04-16_08h02.55.012,face trait task,2021.2.3,MacIntel,60.24096386,,0,3,3,3,1,3,3,friendly.png,52
,,,,,,,,,,0,10,10,39,1,40,image/40.jpg,0,0,,R_5pSuadkN58kbdOq,2,2024-04-16_08h02.55.012,face trait task,2021.2.3,MacIntel,60.24096386,,,,,,,,,,
,,,,,,,,,,0,11,11,42,1,43,image/43.jpg,0,0,,R_5pSuadkN58kbdOq,2,2024-04-16_08h02.55.012,face trait task,2021.2.3,MacIntel,60.24096386,,0,3,3,3,1,3,3,friendly.png,52
,,,,,,,,,,0,11,11,42,1,43,image/43.jpg,0,0,,R_5pSuadkN58kbdOq,2,2024-04-16_08h02.55.012,face trait task,2021.2.3,MacIntel,60.24096386,,0,3,3,3,1,3,3,friendly.png,52
,,,,,,,,,,0,11,11,42,1,43,image/43.jpg,0,0,,R_5pSuadkN58kbdOq,2,2024-04-16_08h02.55.012,face trait task,2021.2.3,MacIntel,60.24096386,,,,,,,,,,
,,,,,,,,,,0,12,12,33,1,34,image/34.jpg,0,0,,R_5pSuadkN58kbdOq,2,2024-04-16_08h02.55.012,face trait task,2021.2.3,MacIntel,60.24096386,,0,3,3,3,1,3,3,friendly.png,52
,,,,,,,,,,0,12,12,33,1,34,image/34.jpg,0,0,,R_5pSuadkN58kbdOq,2,2024-04-16_08h02.55.012,face trait task,2021.2.3,MacIntel,60.24096386,,0,3,3,3,1,3,3,friendly.png,52
,,,,,,,,,,0,12,12,33,1,34,image/34.jpg,0,0,,R_5pSuadkN58kbdOq,2,2024-04-16_08h02.55.012,face trait task,2021.2.3,MacIntel,60.24096386,,,,,,,,,,
,,,,,,,,,,0,13,13,37,1,38,image/38.jpg,0,0,,R_5pSuadkN58kbdOq,2,2024-04-16_08h02.55.012,face trait task,2021.2.3,MacIntel,60.24096386,,0,3,3,3,1,3,3,friendly.png,52
,,,,,,,,,,0,13,13,37,1,38,image/38.jpg,0,0,,R_5pSuadkN58kbdOq,2,2024-04-16_08h02.55.012,face trait task,2021.2.3,MacIntel,60.24096386,,0,3,3,3,1,3,3,friendly.png,52
,,,,,,,,,,0,13,13,37,1,38,image/38.jpg,0,0,,R_5pSuadkN58kbdOq,2,2024-04-16_08h02.55.012,face trait task,2021.2.3,MacIntel,60.24096386,,,,,,,,,,
,,,,,,,,,,0,14,14,23,1,24,image/24.jpg,0,0,,R_5pSuadkN58kbdOq,2,2024-04-16_08h02.55.012,face trait task,2021.2.3,MacIntel,60.24096386,,0,3,3,3,1,3,3,friendly.png,52
,,,,,,,,,,0,14,14,23,1,24,image/24.jpg,0,0,,R_5pSuadkN58kbdOq,2,2024-04-16_08h02.55.012,face trait task,2021.2.3,MacIntel,60.24096386,,0,3,3,3,1,3,3,friendly.png,52
,,,,,,,,,,0,14,14,23,1,24,image/24.jpg,0,0,,R_5pSuadkN58kbdOq,2,2024-04-16_08h02.55.012,face trait task,2021.2.3,MacIntel,60.24096386,,,,,,,,,,
,,,,,,,,,,0,15,15,12,1,13,image/13.jpg,0,0,,R_5pSuadkN58kbdOq,2,2024-04-16_08h02.55.012,face trait task,2021.2.3,MacIntel,60.24096386,,0,3,3,3,1,3,3,friendly.png,52
,,,,,,,,,,0,15,15,12,1,13,image/13.jpg,0,0,,R_5pSuadkN58kbdOq,2,2024-04-16_08h02.55.012,face trait task,2021.2.3,MacIntel,60.24096386,,0,3,3,3,1,3,3,friendly.png,52
,,,,,,,,,,0,15,15,12,1,13,image/13.jpg,0,0,,R_5pSuadkN58kbdOq,2,2024-04-16_08h02.55.012,face trait task,2021.2.3,MacIntel,60.24096386,,,,,,,,,,
,,,,,,,,,,0,16,16,52,1,59,image/59.jpg,1,3,Please drag the slider to around 3 to indicate that you are paying attention,R_5pSuadkN58kbdOq,2,2024-04-16_08h02.55.012,face trait task,2021.2.3,MacIntel,60.24096386,,0,3,3,3,1,3,3,friendly.png,52
,,,,,,,,,,0,16,16,52,1,59,image/59.jpg,1,3,Please drag the slider to around 3 to indicate that you are paying attention,R_5pSuadkN58kbdOq,2,2024-04-16_08h02.55.012,face trait task,2021.2.3,MacIntel,60.24096386,,0,3,3,3,1,3,3,friendly.png,52
,,,,,,,,,,0,16,16,52,1,59,image/59.jpg,1,3,Please drag the slider to around 3 to indicate that you are paying attention,R_5pSuadkN58kbdOq,2,2024-04-16_08h02.55.012,face trait task,2021.2.3,MacIntel,60.24096386,,,,,,,,,,
,,,,,,,,,,0,17,17,14,1,15,image/15.jpg,0,0,,R_5pSuadkN58kbdOq,2,2024-04-16_08h02.55.012,face trait task,2021.2.3,MacIntel,60.24096386,,0,3,3,3,1,3,3,friendly.png,52
,,,,,,,,,,0,17,17,14,1,15,image/15.jpg,0,0,,R_5pSuadkN58kbdOq,2,2024-04-16_08h02.55.012,face trait task,2021.2.3,MacIntel,60.24096386,,0,3,3,3,1,3,3,friendly.png,52
,,,,,,,,,,0,17,17,14,1,15,image/15.jpg,0,0,,R_5pSuadkN58kbdOq,2,2024-04-16_08h02.55.012,face trait task,2021.2.3,MacIntel,60.24096386,,,,,,,,,,
,,,,,,,,,,0,18,18,30,1,31,image/31.jpg,0,0,,R_5pSuadkN58kbdOq,2,2024-04-16_08h02.55.012,face trait task,2021.2.3,MacIntel,60.24096386,,0,3,3,3,1,3,3,friendly.png,52
,,,,,,,,,,0,18,18,30,1,31,image/31.jpg,0,0,,R_5pSuadkN58kbdOq,2,2024-04-16_08h02.55.012,face trait task,2021.2.3,MacIntel,60.24096386,,0,3,3,3,1,3,3,friendly.png,52
,,,,,,,,,,0,18,18,30,1,31,image/31.jpg,0,0,,R_5pSuadkN58kbdOq,2,2024-04-16_08h02.55.012,face trait task,2021.2.3,MacIntel,60.24096386,,,,,,,,,,
,,,,,,,,,,0,19,19,40,1,41,image/41.jpg,0,0,,R_5pSuadkN58kbdOq,2,2024-04-16_08h02.55.012,face trait task,2021.2.3,MacIntel,60.24096386,,0,3,3,3,1,3,3,friendly.png,52
,,,,,,,,,,0,19,19,40,1,41,image/41.jpg,0,0,,R_5pSuadkN58kbdOq,2,2024-04-16_08h02.55.012,face trait task,2021.2.3,MacIntel,60.24096386,,0,3,3,3,1,3,3,friendly.png,52
,,,,,,,,,,0,19,19,40,1,41,image/41.jpg,0,0,,R_5pSuadkN58kbdOq,2,2024-04-16_08h02.55.012,face trait task,2021.2.3,MacIntel,60.24096386,,,,,,,,,,
,,,,,,,,,,0,20,20,47,1,48,image/48.jpg,0,0,,R_5pSuadkN58kbdOq,2,2024-04-16_08h02.55.012,face trait task,2021.2.3,MacIntel,60.24096386,,0,3,3,3,1,3,3,friendly.png,52
,,,,,,,,,,0,20,20,47,1,48,image/48.jpg,0,0,,R_5pSuadkN58kbdOq,2,2024-04-16_08h02.55.012,face trait task,2021.2.3,MacIntel,60.24096386,,0,3,3,3,1,3,3,friendly.png,52
,,,,,,,,,,0,20,20,47,1,48,image/48.jpg,0,0,,R_5pSuadkN58kbdOq,2,2024-04-16_08h02.55.012,face trait task,2021.2.3,MacIntel,60.24096386,,,,,,,,,,
,,,,,,,,,,0,21,21,32,1,33,image/33.jpg,0,0,,R_5pSuadkN58kbdOq,2,2024-04-16_08h02.55.012,face trait task,2021.2.3,MacIntel,60.24096386,,0,3,3,3,1,3,3,friendly.png,52
,,,,,,,,,,0,21,21,32,1,33,image/33.jpg,0,0,,R_5pSuadkN58kbdOq,2,2024-04-16_08h02.55.012,face trait task,2021.2.3,MacIntel,60.24096386,,0,3,3,3,1,3,3,friendly.png,52
,,,,,,,,,,0,21,21,32,1,33,image/33.jpg,0,0,,R_5pSuadkN58kbdOq,2,2024-04-16_08h02.55.012,face trait task,2021.2.3,MacIntel,60.24096386,,,,,,,,,,
,,,,,,,,,,0,22,22,3,1,4,image/4.jpg,0,0,,R_5pSuadkN58kbdOq,2,2024-04-16_08h02.55.012,face trait task,2021.2.3,MacIntel,60.24096386,,0,3,3,3,1,3,3,friendly.png,52
,,,,,,,,,,0,22,22,3,1,4,image/4.jpg,0,0,,R_5pSuadkN58kbdOq,2,2024-04-16_08h02.55.012,face trait task,2021.2.3,MacIntel,60.24096386,,0,3,3,3,1,3,3,friendly.png,52
,,,,,,,,,,0,22,22,3,1,4,image/4.jpg,0,0,,R_5pSuadkN58kbdOq,2,2024-04-16_08h02.55.012,face trait task,2021.2.3,MacIntel,60.24096386,,,,,,,,,,
,,,,,,,,,,0,23,23,35,1,36,image/36.jpg,0,0,,R_5pSuadkN58kbdOq,2,2024-04-16_08h02.55.012,face trait task,2021.2.3,MacIntel,60.24096386,,0,3,3,3,1,3,3,friendly.png,52
,,,,,,,,,,0,23,23,35,1,36,image/36.jpg,0,0,,R_5pSuadkN58kbdOq,2,2024-04-16_08h02.55.012,face trait task,2021.2.3,MacIntel,60.24096386,,0,3,3,3,1,3,3,friendly.png,52
,,,,,,,,,,0,23,23,35,1,36,image/36.jpg,0,0,,R_5pSuadkN58kbdOq,2,2024-04-16_08h02.55.012,face trait task,2021.2.3,MacIntel,60.24096386,,,,,,,,,,
,,,,,,,,,,0,24,24,28,1,29,image/29.jpg,0,0,,R_5pSuadkN58kbdOq,2,2024-04-16_08h02.55.012,face trait task,2021.2.3,MacIntel,60.24096386,,0,3,3,3,1,3,3,friendly.png,52
,,,,,,,,,,0,24,24,28,1,29,image/29.jpg,0,0,,R_5pSuadkN58kbdOq,2,2024-04-16_08h02.55.012,face trait task,2021.2.3,MacIntel,60.24096386,,0,3,3,3,1,3,3,friendly.png,52
,,,,,,,,,,0,24,24,28,1,29,image/29.jpg,0,0,,R_5pSuadkN58kbdOq,2,2024-04-16_08h02.55.012,face trait task,2021.2.3,MacIntel,60.24096386,,,,,,,,,,
,,,,,,,,,,0,25,25,41,1,42,image/42.jpg,0,0,,R_5pSuadkN58kbdOq,2,2024-04-16_08h02.55.012,face trait task,2021.2.3,MacIntel,60.24096386,,0,3,3,3,1,3,3,friendly.png,52
,,,,,,,,,,0,25,25,41,1,42,image/42.jpg,0,0,,R_5pSuadkN58kbdOq,2,2024-04-16_08h02.55.012,face trait task,2021.2.3,MacIntel,60.24096386,,0,3,3,3,1,3,3,friendly.png,52
,,,,,,,,,,0,25,25,41,1,42,image/42.jpg,0,0,,R_5pSuadkN58kbdOq,2,2024-04-16_08h02.55.012,face trait task,2021.2.3,MacIntel,60.24096386,,,,,,,,,,
,,,,,,,,,,0,26,26,7,1,8,image/8.jpg,0,0,,R_5pSuadkN58kbdOq,2,2024-04-16_08h02.55.012,face trait task,2021.2.3,MacIntel,60.24096386,,0,3,3,3,1,3,3,friendly.png,52
,,,,,,,,,,0,26,26,7,1,8,image/8.jpg,0,0,,R_5pSuadkN58kbdOq,2,2024-04-16_08h02.55.012,face trait task,2021.2.3,MacIntel,60.24096386,,0,3,3,3,1,3,3,friendly.png,52
,,,,,,,,,,0,26,26,7,1,8,image/8.jpg,0,0,,R_5pSuadkN58kbdOq,2,2024-04-16_08h02.55.012,face trait task,2021.2.3,MacIntel,60.24096386,,,,,,,,,,
,,,,,,,,,,0,27,27,9,1,10,image/10.jpg,0,0,,R_5pSuadkN58kbdOq,2,2024-04-16_08h02.55.012,face trait task,2021.2.3,MacIntel,60.24096386,,0,3,3,3,1,3,3,friendly.png,52
,,,,,,,,,,0,27,27,9,1,10,image/10.jpg,0,0,,R_5pSuadkN58kbdOq,2,2024-04-16_08h02.55.012,face trait task,2021.2.3,MacIntel,60.24096386,,0,3,3,3,1,3,3,friendly.png,52
,,,,,,,,,,0,27,27,9,1,10,image/10.jpg,0,0,,R_5pSuadkN58kbdOq,2,2024-04-16_08h02.55.012,face trait task,2021.2.3,MacIntel,60.24096386,,,,,,,,,,
,,,,,,,,,,0,28,28,6,1,7,image/7.jpg,0,0,,R_5pSuadkN58kbdOq,2,2024-04-16_08h02.55.012,face trait task,2021.2.3,MacIntel,60.24096386,,0,3,3,3,1,3,3,friendly.png,52
,,,,,,,,,,0,28,28,6,1,7,image/7.jpg,0,0,,R_5pSuadkN58kbdOq,2,2024-04-16_08h02.55.012,face trait task,2021.2.3,MacIntel,60.24096386,,0,3,3,3,1,3,3,friendly.png,52
,,,,,,,,,,0,28,28,6,1,7,image/7.jpg,0,0,,R_5pSuadkN58kbdOq,2,2024-04-16_08h02.55.012,face trait task,2021.2.3,MacIntel,60.24096386,,,,,,,,,,
,,,,,,,,,,0,29,29,4,1,5,image/5.jpg,0,0,,R_5pSuadkN58kbdOq,2,2024-04-16_08h02.55.012,face trait task,2021.2.3,MacIntel,60.24096386,,0,3,3,3,1,3,3,friendly.png,52
,,,,,,,,,,0,29,29,4,1,5,image/5.jpg,0,0,,R_5pSuadkN58kbdOq,2,2024-04-16_08h02.55.012,face trait task,2021.2.3,MacIntel,60.24096386,,0,3,3,3,1,3,3,friendly.png,52
,,,,,,,,,,0,29,29,4,1,5,image/5.jpg,0,0,,R_5pSuadkN58kbdOq,2,2024-04-16_08h02.55.012,face trait task,2021.2.3,MacIntel,60.24096386,,,,,,,,,,
,,,,,,,,,,0,30,30,34,1,35,image/35.jpg,0,0,,R_5pSuadkN58kbdOq,2,2024-04-16_08h02.55.012,face trait task,2021.2.3,MacIntel,60.24096386,,0,3,3,3,1,3,3,friendly.png,52
,,,,,,,,,,0,30,30,34,1,35,image/35.jpg,0,0,,R_5pSuadkN58kbdOq,2,2024-04-16_08h02.55.012,face trait task,2021.2.3,MacIntel,60.24096386,,0,3,3,3,1,3,3,friendly.png,52
,,,,,,,,,,0,30,30,34,1,35,image/35.jpg,0,0,,R_5pSuadkN58kbdOq,2,2024-04-16_08h02.55.012,face trait task,2021.2.3,MacIntel,60.24096386,,,,,,,,,,
,,,,,,,,,,0,31,31,8,1,9,image/9.jpg,0,0,,R_5pSuadkN58kbdOq,2,2024-04-16_08h02.55.012,face trait task,2021.2.3,MacIntel,60.24096386,,0,3,3,3,1,3,3,friendly.png,52
,,,,,,,,,,0,31,31,8,1,9,image/9.jpg,0,0,,R_5pSuadkN58kbdOq,2,2024-04-16_08h02.55.012,face trait task,2021.2.3,MacIntel,60.24096386,,0,3,3,3,1,3,3,friendly.png,52
,,,,,,,,,,0,31,31,8,1,9,image/9.jpg,0,0,,R_5pSuadkN58kbdOq,2,2024-04-16_08h02.55.012,face trait task,2021.2.3,MacIntel,60.24096386,,,,,,,,,,
,,,,,,,,,,0,32,32,24,1,25,image/25.jpg,0,0,,R_5pSuadkN58kbdOq,2,2024-04-16_08h02.55.012,face trait task,2021.2.3,MacIntel,60.24096386,,0,3,3,3,1,3,3,friendly.png,52
,,,,,,,,,,0,32,32,24,1,25,image/25.jpg,0,0,,R_5pSuadkN58kbdOq,2,2024-04-16_08h02.55.012,face trait task,2021.2.3,MacIntel,60.24096386,,0,3,3,3,1,3,3,friendly.png,52
,,,,,,,,,,0,32,32,24,1,25,image/25.jpg,0,0,,R_5pSuadkN58kbdOq,2,2024-04-16_08h02.55.012,face trait task,2021.2.3,MacIntel,60.24096386,,,,,,,,,,
,,,,,,,,,,0,33,33,48,1,49,image/49.jpg,0,0,,R_5pSuadkN58kbdOq,2,2024-04-16_08h02.55.012,face trait task,2021.2.3,MacIntel,60.24096386,,0,3,3,3,1,3,3,friendly.png,52
,,,,,,,,,,0,33,33,48,1,49,image/49.jpg,0,0,,R_5pSuadkN58kbdOq,2,2024-04-16_08h02.55.012,face trait task,2021.2.3,MacIntel,60.24096386,,0,3,3,3,1,3,3,friendly.png,52
,,,,,,,,,,0,33,33,48,1,49,image/49.jpg,0,0,,R_5pSuadkN58kbdOq,2,2024-04-16_08h02.55.012,face trait task,2021.2.3,MacIntel,60.24096386,,,,,,,,,,
,,,,,,,,,,0,34,34,26,1,27,image/27.jpg,0,0,,R_5pSuadkN58kbdOq,2,2024-04-16_08h02.55.012,face trait task,2021.2.3,MacIntel,60.24096386,,0,3,3,3,1,3,3,friendly.png,52
,,,,,,,,,,0,34,34,26,1,27,image/27.jpg,0,0,,R_5pSuadkN58kbdOq,2,2024-04-16_08h02.55.012,face trait task,2021.2.3,MacIntel,60.24096386,,0,3,3,3,1,3,3,friendly.png,52
,,,,,,,,,,0,34,34,26,1,27,image/27.jpg,0,0,,R_5pSuadkN58kbdOq,2,2024-04-16_08h02.55.012,face trait task,2021.2.3,MacIntel,60.24096386,,,,,,,,,,
,,,,,,,,,,0,35,35,50,1,51,image/51.jpg,1,5,Please drag the slider to around 5 to indicate that you are paying attention,R_5pSuadkN58kbdOq,2,2024-04-16_08h02.55.012,face trait task,2021.2.3,MacIntel,60.24096386,,0,3,3,3,1,3,3,friendly.png,52
,,,,,,,,,,0,35,35,50,1,51,image/51.jpg,1,5,Please drag the slider to around 5 to indicate that you are paying attention,R_5pSuadkN58kbdOq,2,2024-04-16_08h02.55.012,face trait task,2021.2.3,MacIntel,60.24096386,,0,3,3,3,1,3,3,friendly.png,52
,,,,,,,,,,0,35,35,50,1,51,image/51.jpg,1,5,Please drag the slider to around 5 to indicate that you are paying attention,R_5pSuadkN58kbdOq,2,2024-04-16_08h02.55.012,face trait task,2021.2.3,MacIntel,60.24096386,,,,,,,,,,
,,,,,,,,,,0,36,36,29,1,30,image/30.jpg,0,0,,R_5pSuadkN58kbdOq,2,2024-04-16_08h02.55.012,face trait task,2021.2.3,MacIntel,60.24096386,,0,3,3,3,1,3,3,friendly.png,52
,,,,,,,,,,0,36,36,29,1,30,image/30.jpg,0,0,,R_5pSuadkN58kbdOq,2,2024-04-16_08h02.55.012,face trait task,2021.2.3,MacIntel,60.24096386,,0,3,3,3,1,3,3,friendly.png,52
,,,,,,,,,,0,36,36,29,1,30,image/30.jpg,0,0,,R_5pSuadkN58kbdOq,2,2024-04-16_08h02.55.012,face trait task,2021.2.3,MacIntel,60.24096386,,,,,,,,,,
,,,,,,,,,,0,37,37,0,1,1,image/1.jpg,0,0,,R_5pSuadkN58kbdOq,2,2024-04-16_08h02.55.012,face trait task,2021.2.3,MacIntel,60.24096386,,0,3,3,3,1,3,3,friendly.png,52
,,,,,,,,,,0,37,37,0,1,1,image/1.jpg,0,0,,R_5pSuadkN58kbdOq,2,2024-04-16_08h02.55.012,face trait task,2021.2.3,MacIntel,60.24096386,,0,3,3,3,1,3,3,friendly.png,52
,,,,,,,,,,0,37,37,0,1,1,image/1.jpg,0,0,,R_5pSuadkN58kbdOq,2,2024-04-16_08h02.55.012,face trait task,2021.2.3,MacIntel,60.24096386,,,,,,,,,,
,,,,,,,,,,0,38,38,31,1,32,image/32.jpg,0,0,,R_5pSuadkN58kbdOq,2,2024-04-16_08h02.55.012,face trait task,2021.2.3,MacIntel,60.24096386,,0,3,3,3,1,3,3,friendly.png,52
,,,,,,,,,,0,38,38,31,1,32,image/32.jpg,0,0,,R_5pSuadkN58kbdOq,2,2024-04-16_08h02.55.012,face trait task,2021.2.3,MacIntel,60.24096386,,0,3,3,3,1,3,3,friendly.png,52
,,,,,,,,,,0,38,38,31,1,32,image/32.jpg,0,0,,R_5pSuadkN58kbdOq,2,2024-04-16_08h02.55.012,face trait task,2021.2.3,MacIntel,60.24096386,,,,,,,,,,
,,,,,,,,,,0,39,39,46,1,47,image/47.jpg,0,0,,R_5pSuadkN58kbdOq,2,2024-04-16_08h02.55.012,face trait task,2021.2.3,MacIntel,60.24096386,,0,3,3,3,1,3,3,friendly.png,52
,,,,,,,,,,0,39,39,46,1,47,image/47.jpg,0,0,,R_5pSuadkN58kbdOq,2,2024-04-16_08h02.55.012,face trait task,2021.2.3,MacIntel,60.24096386,,0,3,3,3,1,3,3,friendly.png,52
,,,,,,,,,,0,39,39,46,1,47,image/47.jpg,0,0,,R_5pSuadkN58kbdOq,2,2024-04-16_08h02.55.012,face trait task,2021.2.3,MacIntel,60.24096386,,,,,,,,,,
,,,,,,,,,,0,40,40,19,1,20,image/20.jpg,0,0,,R_5pSuadkN58kbdOq,2,2024-04-16_08h02.55.012,face trait task,2021.2.3,MacIntel,60.24096386,,0,3,3,3,1,3,3,friendly.png,52
,,,,,,,,,,0,40,40,19,1,20,image/20.jpg,0,0,,R_5pSuadkN58kbdOq,2,2024-04-16_08h02.55.012,face trait task,2021.2.3,MacIntel,60.24096386,,0,3,3,3,1,3,3,friendly.png,52
,,,,,,,,,,0,40,40,19,1,20,image/20.jpg,0,0,,R_5pSuadkN58kbdOq,2,2024-04-16_08h02.55.012,face trait task,2021.2.3,MacIntel,60.24096386,,,,,,,,,,
,,,,,,,,,,0,41,41,1,1,2,image/2.jpg,0,0,,R_5pSuadkN58kbdOq,2,2024-04-16_08h02.55.012,face trait task,2021.2.3,MacIntel,60.24096386,,0,3,3,3,1,3,3,friendly.png,52
,,,,,,,,,,0,41,41,1,1,2,image/2.jpg,0,0,,R_5pSuadkN58kbdOq,2,2024-04-16_08h02.55.012,face trait task,2021.2.3,MacIntel,60.24096386,,0,3,3,3,1,3,3,friendly.png,52
,,,,,,,,,,0,41,41,1,1,2,image/2.jpg,0,0,,R_5pSuadkN58kbdOq,2,2024-04-16_08h02.55.012,face trait task,2021.2.3,MacIntel,60.24096386,,,,,,,,,,
,,,,,,,,,,0,42,42,22,1,23,image/23.jpg,0,0,,R_5pSuadkN58kbdOq,2,2024-04-16_08h02.55.012,face trait task,2021.2.3,MacIntel,60.24096386,,0,3,3,3,1,3,3,friendly.png,52
,,,,,,,,,,0,42,42,22,1,23,image/23.jpg,0,0,,R_5pSuadkN58kbdOq,2,2024-04-16_08h02.55.012,face trait task,2021.2.3,MacIntel,60.24096386,,0,3,3,3,1,3,3,friendly.png,52
,,,,,,,,,,0,42,42,22,1,23,image/23.jpg,0,0,,R_5pSuadkN58kbdOq,2,2024-04-16_08h02.55.012,face trait task,2021.2.3,MacIntel,60.24096386,,,,,,,,,,
,,,,,,,,,,0,43,43,10,1,11,image/11.jpg,0,0,,R_5pSuadkN58kbdOq,2,2024-04-16_08h02.55.012,face trait task,2021.2.3,MacIntel,60.24096386,,0,3,3,3,1,3,3,friendly.png,52
,,,,,,,,,,0,43,43,10,1,11,image/11.jpg,0,0,,R_5pSuadkN58kbdOq,2,2024-04-16_08h02.55.012,face trait task,2021.2.3,MacIntel,60.24096386,,0,3,3,3,1,3,3,friendly.png,52
,,,,,,,,,,0,43,43,10,1,11,image/11.jpg,0,0,,R_5pSuadkN58kbdOq,2,2024-04-16_08h02.55.012,face trait task,2021.2.3,MacIntel,60.24096386,,,,,,,,,,
,,,,,,,,,,0,44,44,18,1,19,image/19.jpg,0,0,,R_5pSuadkN58kbdOq,2,2024-04-16_08h02.55.012,face trait task,2021.2.3,MacIntel,60.24096386,,0,3,3,3,1,3,3,friendly.png,52
,,,,,,,,,,0,44,44,18,1,19,image/19.jpg,0,0,,R_5pSuadkN58kbdOq,2,2024-04-16_08h02.55.012,face trait task,2021.2.3,MacIntel,60.24096386,,0,3,3,3,1,3,3,friendly.png,52
,,,,,,,,,,0,44,44,18,1,19,image/19.jpg,0,0,,R_5pSuadkN58kbdOq,2,2024-04-16_08h02.55.012,face trait task,2021.2.3,MacIntel,60.24096386,,,,,,,,,,
,,,,,,,,,,0,45,45,2,1,3,image/3.jpg,0,0,,R_5pSuadkN58kbdOq,2,2024-04-16_08h02.55.012,face trait task,2021.2.3,MacIntel,60.24096386,,0,3,3,3,1,3,3,friendly.png,52
,,,,,,,,,,0,45,45,2,1,3,image/3.jpg,0,0,,R_5pSuadkN58kbdOq,2,2024-04-16_08h02.55.012,face trait task,2021.2.3,MacIntel,60.24096386,,0,3,3,3,1,3,3,friendly.png,52
,,,,,,,,,,0,45,45,2,1,3,image/3.jpg,0,0,,R_5pSuadkN58kbdOq,2,2024-04-16_08h02.55.012,face trait task,2021.2.3,MacIntel,60.24096386,,,,,,,,,,
,,,,,,,,,,0,46,46,36,1,37,image/37.jpg,0,0,,R_5pSuadkN58kbdOq,2,2024-04-16_08h02.55.012,face trait task,2021.2.3,MacIntel,60.24096386,,0,3,3,3,1,3,3,friendly.png,52
,,,,,,,,,,0,46,46,36,1,37,image/37.jpg,0,0,,R_5pSuadkN58kbdOq,2,2024-04-16_08h02.55.012,face trait task,2021.2.3,MacIntel,60.24096386,,0,3,3,3,1,3,3,friendly.png,52
,,,,,,,,,,0,46,46,36,1,37,image/37.jpg,0,0,,R_5pSuadkN58kbdOq,2,2024-04-16_08h02.55.012,face trait task,2021.2.3,MacIntel,60.24096386,,,,,,,,,,
,,,,,,,,,,0,47,47,38,1,39,image/39.jpg,0,0,,R_5pSuadkN58kbdOq,2,2024-04-16_08h02.55.012,face trait task,2021.2.3,MacIntel,60.24096386,,0,3,3,3,1,3,3,friendly.png,52
,,,,,,,,,,0,47,47,38,1,39,image/39.jpg,0,0,,R_5pSuadkN58kbdOq,2,2024-04-16_08h02.55.012,face trait task,2021.2.3,MacIntel,60.24096386,,0,3,3,3,1,3,3,friendly.png,52
,,,,,,,,,,0,47,47,38,1,39,image/39.jpg,0,0,,R_5pSuadkN58kbdOq,2,2024-04-16_08h02.55.012,face trait task,2021.2.3,MacIntel,60.24096386,,,,,,,,,,
,,,,,,,,,,0,48,48,21,1,22,image/22.jpg,0,0,,R_5pSuadkN58kbdOq,2,2024-04-16_08h02.55.012,face trait task,2021.2.3,MacIntel,60.24096386,,0,3,3,3,1,3,3,friendly.png,52
,,,,,,,,,,0,48,48,21,1,22,image/22.jpg,0,0,,R_5pSuadkN58kbdOq,2,2024-04-16_08h02.55.012,face trait task,2021.2.3,MacIntel,60.24096386,,0,3,3,3,1,3,3,friendly.png,52
,,,,,,,,,,0,48,48,21,1,22,image/22.jpg,0,0,,R_5pSuadkN58kbdOq,2,2024-04-16_08h02.55.012,face trait task,2021.2.3,MacIntel,60.24096386,,,,,,,,,,
,,,,,,,,,,0,49,49,25,1,26,image/26.jpg,0,0,,R_5pSuadkN58kbdOq,2,2024-04-16_08h02.55.012,face trait task,2021.2.3,MacIntel,60.24096386,,0,3,3,3,1,3,3,friendly.png,52
