chooserow,ParID,pre_instru_resp_2.keys,pre_instru_resp_2.rt,pre_instru_resp_3.keys,pre_instru_resp_3.rt,pre_instru_resp_9.keys,pre_instru_resp_9.rt,pre_instru_resp_8.keys,pre_instru_resp_8.rt,pre_instru_resp_4.keys,pre_instru_resp_4.rt,pre_instru_resp_5.keys,pre_instru_resp_5.rt,pre_instru_resp_6.keys,pre_instru_resp_6.rt,key_resp_3.keys,key_resp_3.rt,key_resp_4.keys,key_resp_4.rt,key_resp_5.keys,key_resp_5.rt,key_resp_6.keys,key_resp_6.rt,key_resp_7.keys,key_resp_7.rt,trials_2.thisRepN,trials_2.thisTrialN,trials_2.thisN,trials_2.thisIndex,trials_2.ran,participant,session,date,expName,psychopyVersion,OS,frameRate,SONAid,pre_instru_resp.keys,pre_instru_resp.rt,clicked,judge_2.x,judge_2.y,judge_2.leftButton,judge_2.midButton,judge_2.rightButton,judge_2.clicked_name,trials.thisRepN,trials.thisTrialN,trials.thisN,trials.thisIndex,trials.ran,prac_answer,prac_dot_sti,dotlefttext,dotrighttext,prac_acc,judge.x,judge.y,judge.leftButton,judge.midButton,judge.rightButton,judge.clicked_name,clicked_guilt,slider_guilt.response,slider_guilt.rt,key_guilt.keys,share_slider.response,share_slider.rt,key_share.keys,slider_apology.response,slider_apology.rt,key_apology.keys,slider_hide.response,slider_hide.rt,slider_forgiveness.response,slider_forgiveness.rt,key_forgiveness.keys,slider_mad.response,slider_mad.rt,trialseq.thisRepN,trialseq.thisTrialN,trialseq.thisN,trialseq.thisIndex,trialseq.ran,type_trial,stipic,DV,picture,answer,number,key_guilt.rt,key_share.rt,key_apology.rt,key_forgiveness.rt
"[46,97,58,69,79,124,183,151,8,73,181,175,34,96,70,156,202,137,111,113,77,60,99,146,143,117,162,154,169,160,131,13,141,85,193,185,48,52,86,121,94,174]",R_5WYyGOzXtwowWQ4,space,2.325,space,6.4775,space,23.3294,space,18.0968,space,32.0289,space,10.6526,space,3.9758,3,7.7433,1,7.3884,2,7.0561,2,8.4259,2,4.6796,0,0,0,0,1,R_5WYyGOzXtwowWQ4,1,2024-05-28_19h41.01.166,interaction task,2021.2.3,MacIntel,63.69426752,120836,,,,,,,,,,,,,,,,,,,,,,,,,,,,,,,,,,,,,,,,,,,,,,,,,,,,,,,,,
,,,,space,1.1214,space,1.0067,space,0.2239,space,0.1725,space,0.8629,space,0.4316,3,4.5515,1,4.4802,3,3.5428,2,1.7432,2,0.7825,1,0,1,0,1,R_5WYyGOzXtwowWQ4,1,2024-05-28_19h41.01.166,interaction task,2021.2.3,MacIntel,63.69426752,120836,,,,,,,,,,,,,,,,,,,,,,,,,,,,,,,,,,,,,,,,,,,,,,,,,,,,,,,,,
,,,,,,,,,,,,,,,,,,,,,,,,,,,,,,,R_5WYyGOzXtwowWQ4,1,2024-05-28_19h41.01.166,interaction task,2021.2.3,MacIntel,63.69426752,120836,space,2.6371,"[""LeftButton_2""]",-0.332259115,-0.325190972,1,0,0,LeftButton_2,0,0,0,1,1,LeftButton_2,9dot2.png,Smaller,Greater,,,,,,,,,,,,,,,,,,,,,,,,,,,,,,,,,,,,,,,
,,,,,,,,,,,,,,,,,,,,,,,,,,,,,,,R_5WYyGOzXtwowWQ4,1,2024-05-28_19h41.01.166,interaction task,2021.2.3,MacIntel,63.69426752,120836,,,"[""LeftButton_2""]",-0.324658203,-0.292604167,1,0,0,LeftButton_2,0,1,1,0,1,LeftButton_2,11dot1.png,Greater,Smaller,,,,,,,,,,,,,,,,,,,,,,,,,,,,,,,,,,,,,,,
,,,,,,,,,,,,,,,,,,,,,,,,,,,,,,,R_5WYyGOzXtwowWQ4,1,2024-05-28_19h41.01.166,interaction task,2021.2.3,MacIntel,63.69426752,120836,,,"[""LeftButton_2""]",-0.294829644,-0.295512153,1,0,0,LeftButton_2,0,2,2,2,1,LeftButton_2,11dot1.png,Greater,Smaller,,,,,,,,,,,,,,,,,,,,,,,,,,,,,,,,,,,,,,,
,,,,,,,,,,,,,,,,,,,,,,,,,,,,,,,R_5WYyGOzXtwowWQ4,1,2024-05-28_19h41.01.166,interaction task,2021.2.3,MacIntel,63.69426752,120836,,,,,,,,,,,,,,,,,Smaller,Greater,0.6,0.277842882,-0.480286458,1,0,0,RightButton,"[""RightButton""]",,,,,,,,,,,,,,,,,0,0,0,0,1,0,both_right.png,3,RandomDot18.png,No answer,20,,,,
,,,,,,,,,,,,,,,,,,,,,,,,,,,,,,,R_5WYyGOzXtwowWQ4,1,2024-05-28_19h41.01.166,interaction task,2021.2.3,MacIntel,63.69426752,120836,,,,,,,,,,,,,,,,,Greater,Smaller,,-0.239523655,-0.540789931,1,0,0,LeftButton,"[""LeftButton""]",58,11.3581,space,,,,,,,,,,,,,,0,1,1,1,1,2,only_sub_right.png,0,RandomDot8.png,No answer,20,1.4326,,,
,,,,,,,,,,,,,,,,,,,,,,,,,,,,,,,R_5WYyGOzXtwowWQ4,1,2024-05-28_19h41.01.166,interaction task,2021.2.3,MacIntel,63.69426752,120836,,,,,,,,,,,,,,,,,Smaller,Greater,,-0.273323568,-0.504296875,1,0,0,LeftButton,"[""LeftButton""]",20,3.5254,space,,,,,,,,,,,,,,0,2,2,2,1,1,both_wrong.png,0,RandomDot34.png,No answer,19,1.1143,,,
,,,,,,,,,,,,,,,,,,,,,,,,,,,,,,,R_5WYyGOzXtwowWQ4,1,2024-05-28_19h41.01.166,interaction task,2021.2.3,MacIntel,63.69426752,120836,,,,,,,,,,,,,,,,,Smaller,Greater,,0.22609592,-0.500026042,1,0,0,RightButton,"[""RightButton""]",,,,4.954779731,11.623,space,,,,,,,,,,,0,3,3,3,1,1,both_wrong.png,1,RandomDot13.png,No answer,19,,1.4115,,
,,,,,,,,,,,,,,,,,,,,,,,,,,,,,,,R_5WYyGOzXtwowWQ4,1,2024-05-28_19h41.01.166,interaction task,2021.2.3,MacIntel,63.69426752,120836,,,,,,,,,,,,,,,,,Smaller,Greater,,0.225857205,-0.519817708,1,0,0,RightButton,"[""RightButton""]",,,,,,,70,5.8281,space,0,9.3841,,,,,,0,4,4,4,1,1,both_wrong.png,2,RandomDot24.png,No answer,21,,,1.04,
,,,,,,,,,,,,,,,,,,,,,,,,,,,,,,,R_5WYyGOzXtwowWQ4,1,2024-05-28_19h41.01.166,interaction task,2021.2.3,MacIntel,63.69426752,120836,,,,,,,,,,,,,,,,,Greater,Smaller,,0.253602431,-0.520486111,1,0,0,RightButton,"[""RightButton""]",,,,,,,41,6.5499,space,0,7.9041,,,,,,0,5,5,5,1,2,only_sub_right.png,2,RandomDot20.png,No answer,20,,,0.8364,
,,,,,,,,,,,,,,,,,,,,,,,,,,,,,,,R_5WYyGOzXtwowWQ4,1,2024-05-28_19h41.01.166,interaction task,2021.2.3,MacIntel,63.69426752,120836,,,,,,,,,,,,,,,,,Greater,Smaller,,-0.251671007,-0.482586806,1,0,0,LeftButton,"[""LeftButton""]",,,,,,,,,,,,99.23036792,3.6054,space,21.25333193,7.1767,0,6,6,6,1,3,only_sub_wrong.png,3,RandomDot17.png,No answer,19,,,,0.7926
,,,,,,,,,,,,,,,,,,,,,,,,,,,,,,,R_5WYyGOzXtwowWQ4,1,2024-05-28_19h41.01.166,interaction task,2021.2.3,MacIntel,63.69426752,120836,,,,,,,,,,,,,,,,,Smaller,Greater,,0.272439236,-0.53578125,1,0,0,RightButton,"[""RightButton""]",60,3.9744,space,,,,,,,,,,,,,,0,7,7,7,1,3,only_sub_wrong.png,0,RandomDot26.png,No answer,19,1.7764,,,
,,,,,,,,,,,,,,,,,,,,,,,,,,,,,,,R_5WYyGOzXtwowWQ4,1,2024-05-28_19h41.01.166,interaction task,2021.2.3,MacIntel,63.69426752,120836,,,,,,,,,,,,,,,,,Smaller,Greater,,0.285221354,-0.520920139,1,0,0,RightButton,"[""RightButton""]",,,,,,,,,,,,,,,,,0,8,8,8,1,0,both_right.png,0,RandomDot15.png,No answer,21,,,,
,,,,,,,,,,,,,,,,,,,,,,,,,,,,,,,R_5WYyGOzXtwowWQ4,1,2024-05-28_19h41.01.166,interaction task,2021.2.3,MacIntel,63.69426752,120836,,,,,,,,,,,,,,,,,Greater,Smaller,,-0.246999783,-0.461597222,1,0,0,LeftButton,"[""LeftButton""]",,,,,,,10,4.4477,space,0,6.7124,,,,,,0,9,9,9,1,1,both_wrong.png,2,RandomDot24.png,No answer,19,,,1.4235,
,,,,,,,,,,,,,,,,,,,,,,,,,,,,,,,R_5WYyGOzXtwowWQ4,1,2024-05-28_19h41.01.166,interaction task,2021.2.3,MacIntel,63.69426752,120836,,,,,,,,,,,,,,,,,Greater,Smaller,,-0.307172309,-0.520217014,1,0,0,LeftButton,"[""LeftButton""]",,,,,,,,,,,,100,2.6056,space,0.291763117,5.4335,0,10,10,10,1,3,only_sub_wrong.png,3,RandomDot3.png,No answer,19,,,,0.7902
,,,,,,,,,,,,,,,,,,,,,,,,,,,,,,,R_5WYyGOzXtwowWQ4,1,2024-05-28_19h41.01.166,interaction task,2021.2.3,MacIntel,63.69426752,120836,,,,,,,,,,,,,,,,,Smaller,Greater,,-0.381662326,-0.480052083,1,0,0,LeftButton,"[""LeftButton""]",,,,,,,99,3.5803,space,2,6.8765,,,,,,0,11,11,11,1,3,only_sub_wrong.png,2,RandomDot17.png,No answer,19,,,3.1088,
,,,,,,,,,,,,,,,,,,,,,,,,,,,,,,,R_5WYyGOzXtwowWQ4,1,2024-05-28_19h41.01.166,interaction task,2021.2.3,MacIntel,63.69426752,120836,,,,,,,,,,,,,,,,,Smaller,Greater,,0.28289388,-0.514123264,1,0,0,RightButton,"[""RightButton""]",,,,,,,,,,,,,,,,,0,12,12,12,1,0,both_right.png,2,RandomDot15.png,No answer,21,,,,
,,,,,,,,,,,,,,,,,,,,,,,,,,,,,,,R_5WYyGOzXtwowWQ4,1,2024-05-28_19h41.01.166,interaction task,2021.2.3,MacIntel,63.69426752,120836,,,,,,,,,,,,,,,,,Greater,Smaller,,-0.352435981,-0.502595486,1,0,0,LeftButton,"[""LeftButton""]",0,2.775,space,,,,,,,,,,,,,,0,13,13,13,1,2,only_sub_right.png,0,RandomDot26.png,No answer,19,0.9741,,,
,,,,,,,,,,,,,,,,,,,,,,,,,,,,,,,R_5WYyGOzXtwowWQ4,1,2024-05-28_19h41.01.166,interaction task,2021.2.3,MacIntel,63.69426752,120836,,,,,,,,,,,,,,,,,Smaller,Greater,,-0.279969618,-0.523142361,1,0,0,LeftButton,"[""LeftButton""]",,,,4.972710503,8.2551,space,,,,,,,,,,,0,14,14,14,1,1,both_wrong.png,1,RandomDot29.png,No answer,19,,0.8549,,
,,,,,,,,,,,,,,,,,,,,,,,,,,,,,,,R_5WYyGOzXtwowWQ4,1,2024-05-28_19h41.01.166,interaction task,2021.2.3,MacIntel,63.69426752,120836,,,,,,,,,,,,,,,,,Greater,Smaller,,-0.311903212,-0.5015625,1,0,0,LeftButton,"[""LeftButton""]",,,,4.948160807,2.8218,space,,,,,,,,,,,0,15,15,15,1,3,only_sub_wrong.png,1,RandomDot4.png,No answer,20,,0.7603,,
,,,,,,,,,,,,,,,,,,,,,,,,,,,,,,,R_5WYyGOzXtwowWQ4,1,2024-05-28_19h41.01.166,interaction task,2021.2.3,MacIntel,63.69426752,120836,,,,,,,,,,,,,,,,,Smaller,Greater,,-0.364740668,-0.531840278,1,0,0,LeftButton,"[""LeftButton""]",,,,,,,,,,,,,,,,,0,16,16,16,1,5,both_right.png,10,RandomDot42.png,LeftButton,21,,,,
,,,,,,,,,,,,,,,,,,,,,,,,,,,,,,,R_5WYyGOzXtwowWQ4,1,2024-05-28_19h41.01.166,interaction task,2021.2.3,MacIntel,63.69426752,120836,,,,,,,,,,,,,,,,,Greater,Smaller,,-0.268044705,-0.523480903,1,0,0,LeftButton,"[""LeftButton""]",,,,,,,,,,,,99.92853886,2.9985,space,0,4.9251,0,17,17,17,1,2,only_sub_right.png,3,RandomDot23.png,No answer,20,,,,0.5769
,,,,,,,,,,,,,,,,,,,,,,,,,,,,,,,R_5WYyGOzXtwowWQ4,1,2024-05-28_19h41.01.166,interaction task,2021.2.3,MacIntel,63.69426752,120836,,,,,,,,,,,,,,,,,Greater,Smaller,,0.313254123,-0.527204861,1,0,0,RightButton,"[""RightButton""]",,,,4.957465278,3.5961,space,,,,,,,,,,,0,18,18,18,1,2,only_sub_right.png,1,RandomDot4.png,No answer,19,,0.5332,,
,,,,,,,,,,,,,,,,,,,,,,,,,,,,,,,R_5WYyGOzXtwowWQ4,1,2024-05-28_19h41.01.166,interaction task,2021.2.3,MacIntel,63.69426752,120836,,,,,,,,,,,,,,,,,Greater,Smaller,,-0.299077691,-0.521588542,1,0,0,LeftButton,"[""LeftButton""]",,,,4.993055556,2.8316,space,,,,,,,,,,,0,19,19,19,1,2,only_sub_right.png,1,RandomDot3.png,No answer,20,,0.3399,,
,,,,,,,,,,,,,,,,,,,,,,,,,,,,,,,R_5WYyGOzXtwowWQ4,1,2024-05-28_19h41.01.166,interaction task,2021.2.3,MacIntel,63.69426752,120836,,,,,,,,,,,,,,,,,Greater,Smaller,,-0.259950087,-0.532421875,1,0,0,LeftButton,"[""LeftButton""]",,,,,,,99,3.1617,space,1,4.9257,,,,,,0,20,20,20,1,1,both_wrong.png,2,RandomDot13.png,No answer,21,,,1.0285,
,,,,,,,,,,,,,,,,,,,,,,,,,,,,,,,R_5WYyGOzXtwowWQ4,1,2024-05-28_19h41.01.166,interaction task,2021.2.3,MacIntel,63.69426752,120836,,,,,,,,,,,,,,,,,Greater,Smaller,,0.23515625,-0.545069444,1,0,0,RightButton,"[""RightButton""]",,,,4.95553928,2.1283,space,,,,,,,,,,,0,21,21,21,1,1,both_wrong.png,1,RandomDot13.png,No answer,19,,0.8994,,
,,,,,,,,,,,,,,,,,,,,,,,,,,,,,,,R_5WYyGOzXtwowWQ4,1,2024-05-28_19h41.01.166,interaction task,2021.2.3,MacIntel,63.69426752,120836,,,,,,,,,,,,,,,,,Greater,Smaller,,-0.257367622,-0.504322917,1,0,0,LeftButton,"[""LeftButton""]",0,3.3018,space,,,,,,,,,,,,,,0,22,22,22,1,2,only_sub_right.png,0,RandomDot21.png,No answer,19,0.7981,,,
,,,,,,,,,,,,,,,,,,,,,,,,,,,,,,,R_5WYyGOzXtwowWQ4,1,2024-05-28_19h41.01.166,interaction task,2021.2.3,MacIntel,63.69426752,120836,,,,,,,,,,,,,,,,,Greater,Smaller,,-0.237478299,-0.491753472,1,0,0,LeftButton,"[""LeftButton""]",61,3.0306,space,,,,,,,,,,,,,,0,23,23,23,1,3,only_sub_wrong.png,0,RandomDot38.png,No answer,21,0.4406,,,
,,,,,,,,,,,,,,,,,,,,,,,,,,,,,,,R_5WYyGOzXtwowWQ4,1,2024-05-28_19h41.01.166,interaction task,2021.2.3,MacIntel,63.69426752,120836,,,,,,,,,,,,,,,,,Smaller,Greater,,0.246777344,-0.482690972,1,0,0,RightButton,"[""RightButton""]",,,,,,,,,,,,99.92799085,2.3071,space,0.251210017,4.1408,0,24,24,24,1,2,only_sub_right.png,3,RandomDot31.png,No answer,19,,,,0.1504
,,,,,,,,,,,,,,,,,,,,,,,,,,,,,,,R_5WYyGOzXtwowWQ4,1,2024-05-28_19h41.01.166,interaction task,2021.2.3,MacIntel,63.69426752,120836,,,,,,,,,,,,,,,,,Smaller,Greater,,-0.351155599,-0.507829861,1,0,0,LeftButton,"[""LeftButton""]",,,,4.977457682,2.3562,space,,,,,,,,,,,0,25,25,25,1,2,only_sub_right.png,1,RandomDot27.png,No answer,21,,1.275,,
,,,,,,,,,,,,,,,,,,,,,,,,,,,,,,,R_5WYyGOzXtwowWQ4,1,2024-05-28_19h41.01.166,interaction task,2021.2.3,MacIntel,63.69426752,120836,,,,,,,,,,,,,,,,,Smaller,Greater,,-0.287093099,-0.510486111,1,0,0,LeftButton,"[""LeftButton""]",,,,4.982421875,1.7174,space,,,,,,,,,,,0,26,26,26,1,3,only_sub_wrong.png,1,RandomDot15.png,No answer,21,,0.5097,,
,,,,,,,,,,,,,,,,,,,,,,,,,,,,,,,R_5WYyGOzXtwowWQ4,1,2024-05-28_19h41.01.166,interaction task,2021.2.3,MacIntel,63.69426752,120836,,,,,,,,,,,,,,,,,Smaller,Greater,,-0.266959635,-0.50046875,1,0,0,LeftButton,"[""LeftButton""]",59,3.7207,space,,,,,,,,,,,,,,0,27,27,27,1,3,only_sub_wrong.png,0,RandomDot25.png,No answer,21,0.1669,,,
,,,,,,,,,,,,,,,,,,,,,,,,,,,,,,,R_5WYyGOzXtwowWQ4,1,2024-05-28_19h41.01.166,interaction task,2021.2.3,MacIntel,63.69426752,120836,,,,,,,,,,,,,,,,,Greater,Smaller,,-0.210617405,-0.507152778,1,0,0,LeftButton,"[""LeftButton""]",,,,,,,91,5.3521,space,1,7.9943,,,,,,0,28,28,28,1,3,only_sub_wrong.png,2,RandomDot1.png,No answer,20,,,0.4667,
,,,,,,,,,,,,,,,,,,,,,,,,,,,,,,,R_5WYyGOzXtwowWQ4,1,2024-05-28_19h41.01.166,interaction task,2021.2.3,MacIntel,63.69426752,120836,,,,,,,,,,,,,,,,,Greater,Smaller,,-0.335894097,-0.49375,1,0,0,LeftButton,"[""LeftButton""]",,,,4.989718967,2.8025,space,,,,,,,,,,,0,29,29,29,1,3,only_sub_wrong.png,1,RandomDot22.png,No answer,19,,0.4069,,
,,,,,,,,,,,,,,,,,,,,,,,,,,,,,,,R_5WYyGOzXtwowWQ4,1,2024-05-28_19h41.01.166,interaction task,2021.2.3,MacIntel,63.69426752,120836,,,,,,,,,,,,,,,,,Smaller,Greater,,0.313259549,-0.539487847,1,0,0,RightButton,"[""RightButton""]",,,,,,,72,2.4077,space,0,4.2281,,,,,,0,30,30,30,1,2,only_sub_right.png,2,RandomDot5.png,No answer,21,,,0.1924,
,,,,,,,,,,,,,,,,,,,,,,,,,,,,,,,R_5WYyGOzXtwowWQ4,1,2024-05-28_19h41.01.166,interaction task,2021.2.3,MacIntel,63.69426752,120836,,,,,,,,,,,,,,,,,Greater,Smaller,,0.310020616,-0.474487847,1,0,0,RightButton,"[""RightButton""]",,,,,,,,,,,,,,,,,0,31,31,31,1,0,both_right.png,1,RandomDot28.png,No answer,21,,,,
,,,,,,,,,,,,,,,,,,,,,,,,,,,,,,,R_5WYyGOzXtwowWQ4,1,2024-05-28_19h41.01.166,interaction task,2021.2.3,MacIntel,63.69426752,120836,,,,,,,,,,,,,,,,,Smaller,Greater,,-0.240180122,-0.486579861,1,0,0,LeftButton,"[""LeftButton""]",,,,,,,,,,,,96.58236006,2.1498,space,1.734138258,4.089,0,32,32,32,1,2,only_sub_right.png,3,RandomDot7.png,No answer,20,,,,0.5316
,,,,,,,,,,,,,,,,,,,,,,,,,,,,,,,R_5WYyGOzXtwowWQ4,1,2024-05-28_19h41.01.166,interaction task,2021.2.3,MacIntel,63.69426752,120836,,,,,,,,,,,,,,,,,Greater,Smaller,,-0.283425564,-0.509552258,1,0,0,LeftButton,"[""LeftButton""]",,,,,,,,,,,,97.12982691,1.9156,space,0.869918806,3.3317,0,33,33,33,1,1,both_wrong.png,3,RandomDot40.png,No answer,21,,,,0.5607
,,,,,,,,,,,,,,,,,,,,,,,,,,,,,,,R_5WYyGOzXtwowWQ4,1,2024-05-28_19h41.01.166,interaction task,2021.2.3,MacIntel,63.69426752,120836,,,,,,,,,,,,,,,,,Greater,Smaller,,-0.309716797,-0.514093137,1,0,0,LeftButton,"[""LeftButton""]",,,,,,,,,,,,,,,,,0,34,34,34,1,4,both_right.png,10,RandomDot41.png,LeftButton,5,,,,
,,,,,,,,,,,,,,,,,,,,,,,,,,,,,,,R_5WYyGOzXtwowWQ4,1,2024-05-28_19h41.01.166,interaction task,2021.2.3,MacIntel,63.69426752,120836,,,,,,,,,,,,,,,,,Greater,Smaller,,0.251915148,-0.532114408,1,0,0,RightButton,"[""RightButton""]",,,,,,,,,,,,98.9053951,3.0676,space,1.570281811,4.8007,0,35,35,35,1,3,only_sub_wrong.png,3,RandomDot34.png,No answer,20,,,,0.2015
,,,,,,,,,,,,,,,,,,,,,,,,,,,,,,,R_5WYyGOzXtwowWQ4,1,2024-05-28_19h41.01.166,interaction task,2021.2.3,MacIntel,63.69426752,120836,,,,,,,,,,,,,,,,,Greater,Smaller,,0.297140842,-0.513195903,1,0,0,RightButton,"[""RightButton""]",70,2.9387,space,,,,,,,,,,,,,,0,36,36,36,1,1,both_wrong.png,0,RandomDot24.png,No answer,21,0.9777,,,
,,,,,,,,,,,,,,,,,,,,,,,,,,,,,,,R_5WYyGOzXtwowWQ4,1,2024-05-28_19h41.01.166,interaction task,2021.2.3,MacIntel,63.69426752,120836,,,,,,,,,,,,,,,,,Greater,Smaller,,0.264903429,-0.532114408,1,0,0,RightButton,"[""RightButton""]",62,6.5459,space,,,,,,,,,,,,,,0,37,37,37,1,1,both_wrong.png,0,RandomDot10.png,No answer,20,3.4078,,,
,,,,,,,,,,,,,,,,,,,,,,,,,,,,,,,R_5WYyGOzXtwowWQ4,1,2024-05-28_19h41.01.166,interaction task,2021.2.3,MacIntel,63.69426752,120836,,,,,,,,,,,,,,,,,Greater,Smaller,,-0.297195095,-0.511915704,1,0,0,LeftButton,"[""LeftButton""]",,,,,,,,,,,,99.28790948,2.3184,space,1.046379595,3.8543,0,38,38,38,1,1,both_wrong.png,3,RandomDot13.png,No answer,21,,,,0.2374
,,,,,,,,,,,,,,,,,,,,,,,,,,,,,,,R_5WYyGOzXtwowWQ4,1,2024-05-28_19h41.01.166,interaction task,2021.2.3,MacIntel,63.69426752,120836,,,,,,,,,,,,,,,,,Greater,Smaller,,0.262413194,-0.539314163,1,0,0,RightButton,"[""RightButton""]",,,,,,,100,4.5383,space,1,2.8161,,,,,,0,39,39,39,1,2,only_sub_right.png,2,RandomDot18.png,No answer,19,,,0.3496,
,,,,,,,,,,,,,,,,,,,,,,,,,,,,,,,R_5WYyGOzXtwowWQ4,1,2024-05-28_19h41.01.166,interaction task,2021.2.3,MacIntel,63.69426752,120836,,,,,,,,,,,,,,,,,Smaller,Greater,,-0.248632812,-0.453125,1,0,0,LeftButton,"[""LeftButton""]",,,,,,,,,,,,99.82167596,2.0315,space,1.197083684,3.089,0,40,40,40,1,1,both_wrong.png,3,RandomDot25.png,No answer,21,,,,0.2169
,,,,,,,,,,,,,,,,,,,,,,,,,,,,,,,R_5WYyGOzXtwowWQ4,1,2024-05-28_19h41.01.166,interaction task,2021.2.3,MacIntel,63.69426752,120836,,,,,,,,,,,,,,,,,Smaller,Greater,,0.279237196,-0.483171394,1,0,0,RightButton,"[""RightButton""]",,,,,,,74,4.3981,space,7,5.543,,,,,,0,41,41,41,1,3,only_sub_wrong.png,2,RandomDot15.png,No answer,21,,,0.6675,
