choose_trial,key_resp.keys,key_resp.rt,key_resp_4.keys,key_resp_4.rt,session_trait,slider_face_judge.response,slider_face_judge.rt,key_resp_3.keys,key_resp_3.rt,face_loop.thisRepN,face_loop.thisTrialN,face_loop.thisN,face_loop.thisIndex,face_loop.ran,face_serial,image_name,isCheck,answer,check_question,participant,session,date,expName,psychopyVersion,OS,frameRate,SONAid,session.thisRepN,session.thisTrialN,session.thisN,session.thisIndex,session.ran,session_serial,slider_judge_img
"[0,1,2,3,4,5,6,7,8,9,10,11,12,13,14,15,16,17,18,19,20,21,22,23,24,25,26,27,28,29,30,31,32,33,34,35,36,37,38,39,40,41,42,43,44,45,46,47,48,49,52,55,50]",space,10.7047,space,34.4788,competent,6.1875,8.1801,space,6.2409,0,0,0,11,1,12,image/12.jpg,0,0,,R_5ZUNCbLeFy8Pq4V,2,2024-05-31_13h10.27.800,face trait task,2021.2.3,Win32,60.24096386,120161,,,,,,,
,,,,,,5.671875,5.3723,space,3.296,0,1,1,14,1,15,image/15.jpg,0,0,,R_5ZUNCbLeFy8Pq4V,2,2024-05-31_13h10.27.800,face trait task,2021.2.3,Win32,60.24096386,120161,,,,,,,
,,,,,,6.765625,2.9649,space,0.7048,0,2,2,25,1,26,image/26.jpg,0,0,,R_5ZUNCbLeFy8Pq4V,2,2024-05-31_13h10.27.800,face trait task,2021.2.3,Win32,60.24096386,120161,,,,,,,
,,,,,,5.0078125,2.212,space,0.6699,0,3,3,6,1,7,image/7.jpg,0,0,,R_5ZUNCbLeFy8Pq4V,2,2024-05-31_13h10.27.800,face trait task,2021.2.3,Win32,60.24096386,120161,,,,,,,
,,,,,,5.1484375,2.6627,space,1.0023,0,4,4,40,1,41,image/41.jpg,0,0,,R_5ZUNCbLeFy8Pq4V,2,2024-05-31_13h10.27.800,face trait task,2021.2.3,Win32,60.24096386,120161,,,,,,,
,,,,,,5.8984375,2.2409,space,0.361,0,5,5,46,1,47,image/47.jpg,0,0,,R_5ZUNCbLeFy8Pq4V,2,2024-05-31_13h10.27.800,face trait task,2021.2.3,Win32,60.24096386,120161,,,,,,,
,,,,,,5.8046875,4.9198,space,0.9414,0,6,6,10,1,11,image/11.jpg,0,0,,R_5ZUNCbLeFy8Pq4V,2,2024-05-31_13h10.27.800,face trait task,2021.2.3,Win32,60.24096386,120161,,,,,,,
,,,,,,5.03125,2.2004,space,0.5521,0,7,7,8,1,9,image/9.jpg,0,0,,R_5ZUNCbLeFy8Pq4V,2,2024-05-31_13h10.27.800,face trait task,2021.2.3,Win32,60.24096386,120161,,,,,,,
,,,,,,3.96875,1.7895,space,0.8694,0,8,8,47,1,48,image/48.jpg,0,0,,R_5ZUNCbLeFy8Pq4V,2,2024-05-31_13h10.27.800,face trait task,2021.2.3,Win32,60.24096386,120161,,,,,,,
,,,,,,7,4.7527,space,2.3081,0,9,9,51,1,56,image/fill_img.png,1,7,Please move the slider all the way to the RIGHT to show that you are paying attention.,R_5ZUNCbLeFy8Pq4V,2,2024-05-31_13h10.27.800,face trait task,2021.2.3,Win32,60.24096386,120161,,,,,,,
,,,,,,4.9375,3.6532,space,0.8576,0,10,10,49,1,50,image/50.jpg,0,0,,R_5ZUNCbLeFy8Pq4V,2,2024-05-31_13h10.27.800,face trait task,2021.2.3,Win32,60.24096386,120161,,,,,,,
,,,,,,6.015625,2.6288,space,0.3819,0,11,11,28,1,29,image/29.jpg,0,0,,R_5ZUNCbLeFy8Pq4V,2,2024-05-31_13h10.27.800,face trait task,2021.2.3,Win32,60.24096386,120161,,,,,,,
,,,,,,4.140625,1.6806,space,0.4657,0,12,12,36,1,37,image/37.jpg,0,0,,R_5ZUNCbLeFy8Pq4V,2,2024-05-31_13h10.27.800,face trait task,2021.2.3,Win32,60.24096386,120161,,,,,,,
,,,,,,6.109375,1.5764,space,0.322,0,13,13,9,1,10,image/10.jpg,0,0,,R_5ZUNCbLeFy8Pq4V,2,2024-05-31_13h10.27.800,face trait task,2021.2.3,Win32,60.24096386,120161,,,,,,,
,,,,,,6.109375,1.7857,space,0.6665,0,14,14,15,1,16,image/16.jpg,0,0,,R_5ZUNCbLeFy8Pq4V,2,2024-05-31_13h10.27.800,face trait task,2021.2.3,Win32,60.24096386,120161,,,,,,,
,,,,,,6.109375,1.336,space,0.5848,0,15,15,20,1,21,image/21.jpg,0,0,,R_5ZUNCbLeFy8Pq4V,2,2024-05-31_13h10.27.800,face trait task,2021.2.3,Win32,60.24096386,120161,,,,,,,
,,,,,,5.1484375,2.8662,space,0.6176,0,16,16,22,1,23,image/23.jpg,0,0,,R_5ZUNCbLeFy8Pq4V,2,2024-05-31_13h10.27.800,face trait task,2021.2.3,Win32,60.24096386,120161,,,,,,,
,,,,,,5.78125,4.1387,space,1.4165,0,17,17,45,1,46,image/46.jpg,0,0,,R_5ZUNCbLeFy8Pq4V,2,2024-05-31_13h10.27.800,face trait task,2021.2.3,Win32,60.24096386,120161,,,,,,,
,,,,,,6.546875,2.1115,space,0.6074,0,18,18,18,1,19,image/19.jpg,0,0,,R_5ZUNCbLeFy8Pq4V,2,2024-05-31_13h10.27.800,face trait task,2021.2.3,Win32,60.24096386,120161,,,,,,,
,,,,,,5.015625,4.0989,space,1.7571,0,19,19,13,1,14,image/14.jpg,0,0,,R_5ZUNCbLeFy8Pq4V,2,2024-05-31_13h10.27.800,face trait task,2021.2.3,Win32,60.24096386,120161,,,,,,,
,,,,,,5.0234375,2.056,space,0.3398,0,20,20,4,1,5,image/5.jpg,0,0,,R_5ZUNCbLeFy8Pq4V,2,2024-05-31_13h10.27.800,face trait task,2021.2.3,Win32,60.24096386,120161,,,,,,,
,,,,,,6.03125,3.2588,space,0.3489,0,21,21,1,1,2,image/2.jpg,0,0,,R_5ZUNCbLeFy8Pq4V,2,2024-05-31_13h10.27.800,face trait task,2021.2.3,Win32,60.24096386,120161,,,,,,,
,,,,,,4.296875,1.6343,space,0.7663,0,22,22,41,1,42,image/42.jpg,0,0,,R_5ZUNCbLeFy8Pq4V,2,2024-05-31_13h10.27.800,face trait task,2021.2.3,Win32,60.24096386,120161,,,,,,,
,,,,,,4.9375,1.7534,space,0.437,0,23,23,29,1,30,image/30.jpg,0,0,,R_5ZUNCbLeFy8Pq4V,2,2024-05-31_13h10.27.800,face trait task,2021.2.3,Win32,60.24096386,120161,,,,,,,
,,,,,,5.9140625,2.1955,space,0.3174,0,24,24,32,1,33,image/33.jpg,0,0,,R_5ZUNCbLeFy8Pq4V,2,2024-05-31_13h10.27.800,face trait task,2021.2.3,Win32,60.24096386,120161,,,,,,,
,,,,,,5.0546875,3.4501,space,1.8978,0,25,25,26,1,27,image/27.jpg,0,0,,R_5ZUNCbLeFy8Pq4V,2,2024-05-31_13h10.27.800,face trait task,2021.2.3,Win32,60.24096386,120161,,,,,,,
,,,,,,6.859375,3.7431,space,0.269,0,26,26,2,1,3,image/3.jpg,0,0,,R_5ZUNCbLeFy8Pq4V,2,2024-05-31_13h10.27.800,face trait task,2021.2.3,Win32,60.24096386,120161,,,,,,,
,,,,,,6.0546875,2.2002,space,0.4349,0,27,27,7,1,8,image/8.jpg,0,0,,R_5ZUNCbLeFy8Pq4V,2,2024-05-31_13h10.27.800,face trait task,2021.2.3,Win32,60.24096386,120161,,,,,,,
,,,,,,5.84375,2.9486,space,2.0439,0,28,28,23,1,24,image/24.jpg,0,0,,R_5ZUNCbLeFy8Pq4V,2,2024-05-31_13h10.27.800,face trait task,2021.2.3,Win32,60.24096386,120161,,,,,,,
,,,,,,3.953125,3.9548,space,0.3878,0,29,29,48,1,49,image/49.jpg,0,0,,R_5ZUNCbLeFy8Pq4V,2,2024-05-31_13h10.27.800,face trait task,2021.2.3,Win32,60.24096386,120161,,,,,,,
,,,,,,6.5546875,4.1804,space,1.0034,0,30,30,30,1,31,image/31.jpg,0,0,,R_5ZUNCbLeFy8Pq4V,2,2024-05-31_13h10.27.800,face trait task,2021.2.3,Win32,60.24096386,120161,,,,,,,
,,,,,,6.8984375,2.9737,space,0.7157,0,31,31,17,1,18,image/18.jpg,0,0,,R_5ZUNCbLeFy8Pq4V,2,2024-05-31_13h10.27.800,face trait task,2021.2.3,Win32,60.24096386,120161,,,,,,,
,,,,,,6.0546875,2.5217,space,0.3131,0,32,32,43,1,44,image/44.jpg,0,0,,R_5ZUNCbLeFy8Pq4V,2,2024-05-31_13h10.27.800,face trait task,2021.2.3,Win32,60.24096386,120161,,,,,,,
,,,,,,6.125,3.0051,space,2.2744,0,33,33,44,1,45,image/45.jpg,0,0,,R_5ZUNCbLeFy8Pq4V,2,2024-05-31_13h10.27.800,face trait task,2021.2.3,Win32,60.24096386,120161,,,,,,,
,,,,,,5.671875,2.3212,space,0.4087,0,34,34,12,1,13,image/13.jpg,0,0,,R_5ZUNCbLeFy8Pq4V,2,2024-05-31_13h10.27.800,face trait task,2021.2.3,Win32,60.24096386,120161,,,,,,,
,,,,,,4.0546875,6.9145,space,0.0987,0,35,35,42,1,43,image/43.jpg,0,0,,R_5ZUNCbLeFy8Pq4V,2,2024-05-31_13h10.27.800,face trait task,2021.2.3,Win32,60.24096386,120161,,,,,,,
,,,,,,4.3125,6.0794,space,1.2848,0,36,36,19,1,20,image/20.jpg,0,0,,R_5ZUNCbLeFy8Pq4V,2,2024-05-31_13h10.27.800,face trait task,2021.2.3,Win32,60.24096386,120161,,,,,,,
,,,,,,5.296875,4.8488,space,1.8834,0,37,37,38,1,39,image/39.jpg,0,0,,R_5ZUNCbLeFy8Pq4V,2,2024-05-31_13h10.27.800,face trait task,2021.2.3,Win32,60.24096386,120161,,,,,,,
,,,,,,6.0625,2.8745,space,0.557,0,38,38,21,1,22,image/22.jpg,0,0,,R_5ZUNCbLeFy8Pq4V,2,2024-05-31_13h10.27.800,face trait task,2021.2.3,Win32,60.24096386,120161,,,,,,,
,,,,,,1,5.432,space,1.9659,0,39,39,52,1,51,image/fill_img.png,1,1,Please move the slider all the way to the LEFT to show that you are paying attention.,R_5ZUNCbLeFy8Pq4V,2,2024-05-31_13h10.27.800,face trait task,2021.2.3,Win32,60.24096386,120161,,,,,,,
,,,,,,3.5859375,2.1692,space,2.4698,0,40,40,34,1,35,image/35.jpg,0,0,,R_5ZUNCbLeFy8Pq4V,2,2024-05-31_13h10.27.800,face trait task,2021.2.3,Win32,60.24096386,120161,,,,,,,
,,,,,,6.875,2.593,space,1.3273,0,41,41,31,1,32,image/32.jpg,0,0,,R_5ZUNCbLeFy8Pq4V,2,2024-05-31_13h10.27.800,face trait task,2021.2.3,Win32,60.24096386,120161,,,,,,,
,,,,,,5.1875,4.3209,space,2.0481,0,42,42,5,1,6,image/6.jpg,0,0,,R_5ZUNCbLeFy8Pq4V,2,2024-05-31_13h10.27.800,face trait task,2021.2.3,Win32,60.24096386,120161,,,,,,,
,,,,,,5.8125,4.3038,space,0.4272,0,43,43,0,1,1,image/1.jpg,0,0,,R_5ZUNCbLeFy8Pq4V,2,2024-05-31_13h10.27.800,face trait task,2021.2.3,Win32,60.24096386,120161,,,,,,,
,,,,,,5.515625,5.7946,space,0.6795,0,44,44,24,1,25,image/25.jpg,0,0,,R_5ZUNCbLeFy8Pq4V,2,2024-05-31_13h10.27.800,face trait task,2021.2.3,Win32,60.24096386,120161,,,,,,,
,,,,,,5.6015625,2.3002,space,0.6448,0,45,45,16,1,17,image/17.jpg,0,0,,R_5ZUNCbLeFy8Pq4V,2,2024-05-31_13h10.27.800,face trait task,2021.2.3,Win32,60.24096386,120161,,,,,,,
,,,,,,4.65625,2.8431,space,1.2183,0,46,46,35,1,36,image/36.jpg,0,0,,R_5ZUNCbLeFy8Pq4V,2,2024-05-31_13h10.27.800,face trait task,2021.2.3,Win32,60.24096386,120161,,,,,,,
,,,,,,6.03125,2.0344,space,0.4072,0,47,47,33,1,34,image/34.jpg,0,0,,R_5ZUNCbLeFy8Pq4V,2,2024-05-31_13h10.27.800,face trait task,2021.2.3,Win32,60.24096386,120161,,,,,,,
,,,,,,5.671875,2.0187,space,0.7918,0,48,48,37,1,38,image/38.jpg,0,0,,R_5ZUNCbLeFy8Pq4V,2,2024-05-31_13h10.27.800,face trait task,2021.2.3,Win32,60.24096386,120161,,,,,,,
,,,,,,5.859375,2.8873,space,0.9778,0,49,49,39,1,40,image/40.jpg,0,0,,R_5ZUNCbLeFy8Pq4V,2,2024-05-31_13h10.27.800,face trait task,2021.2.3,Win32,60.24096386,120161,,,,,,,
,,,,,,6.6015625,2.1504,space,0.5337,0,50,50,27,1,28,image/28.jpg,0,0,,R_5ZUNCbLeFy8Pq4V,2,2024-05-31_13h10.27.800,face trait task,2021.2.3,Win32,60.24096386,120161,,,,,,,
,,,,,,6.9140625,2.2505,space,0.8922,0,51,51,3,1,4,image/4.jpg,0,0,,R_5ZUNCbLeFy8Pq4V,2,2024-05-31_13h10.27.800,face trait task,2021.2.3,Win32,60.24096386,120161,,,,,,,
,,,,,,1,4.5491,space,1.4502,0,52,52,50,1,53,image/fill_img.png,1,1,Please move the slider all the way to the LEFT to show that you are paying attention.,R_5ZUNCbLeFy8Pq4V,2,2024-05-31_13h10.27.800,face trait task,2021.2.3,Win32,60.24096386,120161,,,,,,,
,,,,,,,,,,,,,,,,,,,,R_5ZUNCbLeFy8Pq4V,2,2024-05-31_13h10.27.800,face trait task,2021.2.3,Win32,60.24096386,120161,0,0,0,1,1,1,competent.png
,,,,,friendly,5.796875,2.1804,space,1.2681,0,0,0,46,1,47,image/47.jpg,0,0,,R_5ZUNCbLeFy8Pq4V,2,2024-05-31_13h10.27.800,face trait task,2021.2.3,Win32,60.24096386,120161,,,,,,,
,,,,,,6.71875,1.4045,space,0.6519,0,1,1,3,1,4,image/4.jpg,0,0,,R_5ZUNCbLeFy8Pq4V,2,2024-05-31_13h10.27.800,face trait task,2021.2.3,Win32,60.24096386,120161,,,,,,,
,,,,,,6.0546875,1.5854,space,2.2472,0,2,2,14,1,15,image/15.jpg,0,0,,R_5ZUNCbLeFy8Pq4V,2,2024-05-31_13h10.27.800,face trait task,2021.2.3,Win32,60.24096386,120161,,,,,,,
,,,,,,5.75,2.2282,space,1.1938,0,3,3,32,1,33,image/33.jpg,0,0,,R_5ZUNCbLeFy8Pq4V,2,2024-05-31_13h10.27.800,face trait task,2021.2.3,Win32,60.24096386,120161,,,,,,,
,,,,,,4.1015625,2.704,space,0.8801,0,4,4,30,1,31,image/31.jpg,0,0,,R_5ZUNCbLeFy8Pq4V,2,2024-05-31_13h10.27.800,face trait task,2021.2.3,Win32,60.24096386,120161,,,,,,,
,,,,,,6,1.7344,space,0.7703,0,5,5,20,1,21,image/21.jpg,0,0,,R_5ZUNCbLeFy8Pq4V,2,2024-05-31_13h10.27.800,face trait task,2021.2.3,Win32,60.24096386,120161,,,,,,,
,,,,,,6.171875,1.586,space,1.1598,0,6,6,35,1,36,image/36.jpg,0,0,,R_5ZUNCbLeFy8Pq4V,2,2024-05-31_13h10.27.800,face trait task,2021.2.3,Win32,60.24096386,120161,,,,,,,
,,,,,,5.125,4.8658,space,1.8173,0,7,7,40,1,41,image/41.jpg,0,0,,R_5ZUNCbLeFy8Pq4V,2,2024-05-31_13h10.27.800,face trait task,2021.2.3,Win32,60.24096386,120161,,,,,,,
,,,,,,5.8828125,3.5665,space,0.383,0,8,8,1,1,2,image/2.jpg,0,0,,R_5ZUNCbLeFy8Pq4V,2,2024-05-31_13h10.27.800,face trait task,2021.2.3,Win32,60.24096386,120161,,,,,,,
,,,,,,5.8828125,2.268,space,0.6554,0,9,9,8,1,9,image/9.jpg,0,0,,R_5ZUNCbLeFy8Pq4V,2,2024-05-31_13h10.27.800,face trait task,2021.2.3,Win32,60.24096386,120161,,,,,,,
,,,,,,6.2578125,1.8672,space,0.4761,0,10,10,2,1,3,image/3.jpg,0,0,,R_5ZUNCbLeFy8Pq4V,2,2024-05-31_13h10.27.800,face trait task,2021.2.3,Win32,60.24096386,120161,,,,,,,
,,,,,,5.7578125,3.823,space,0.8738,0,11,11,27,1,28,image/28.jpg,0,0,,R_5ZUNCbLeFy8Pq4V,2,2024-05-31_13h10.27.800,face trait task,2021.2.3,Win32,60.24096386,120161,,,,,,,
,,,,,,4.796875,2.2379,space,0.3863,0,12,12,5,1,6,image/6.jpg,0,0,,R_5ZUNCbLeFy8Pq4V,2,2024-05-31_13h10.27.800,face trait task,2021.2.3,Win32,60.24096386,120161,,,,,,,
,,,,,,6.0859375,2.2894,space,0.8145,0,13,13,23,1,24,image/24.jpg,0,0,,R_5ZUNCbLeFy8Pq4V,2,2024-05-31_13h10.27.800,face trait task,2021.2.3,Win32,60.24096386,120161,,,,,,,
,,,,,,4.9921875,2.5259,space,0.8345,0,14,14,41,1,42,image/42.jpg,0,0,,R_5ZUNCbLeFy8Pq4V,2,2024-05-31_13h10.27.800,face trait task,2021.2.3,Win32,60.24096386,120161,,,,,,,
,,,,,,7,4.0161,space,1.2581,0,15,15,51,1,56,image/fill_img.png,1,7,Please move the slider all the way to the RIGHT to show that you are paying attention.,R_5ZUNCbLeFy8Pq4V,2,2024-05-31_13h10.27.800,face trait task,2021.2.3,Win32,60.24096386,120161,,,,,,,
,,,,,,6.0859375,2.5793,space,0.396,0,16,16,6,1,7,image/7.jpg,0,0,,R_5ZUNCbLeFy8Pq4V,2,2024-05-31_13h10.27.800,face trait task,2021.2.3,Win32,60.24096386,120161,,,,,,,
,,,,,,4.9140625,1.9562,space,0.4836,0,17,17,4,1,5,image/5.jpg,0,0,,R_5ZUNCbLeFy8Pq4V,2,2024-05-31_13h10.27.800,face trait task,2021.2.3,Win32,60.24096386,120161,,,,,,,
,,,,,,6.875,1.7737,space,0.8338,0,18,18,33,1,34,image/34.jpg,0,0,,R_5ZUNCbLeFy8Pq4V,2,2024-05-31_13h10.27.800,face trait task,2021.2.3,Win32,60.24096386,120161,,,,,,,
,,,,,,1.921875,3.897,space,2.7008,0,19,19,39,1,40,image/40.jpg,0,0,,R_5ZUNCbLeFy8Pq4V,2,2024-05-31_13h10.27.800,face trait task,2021.2.3,Win32,60.24096386,120161,,,,,,,
,,,,,,4.0546875,2.1281,space,1.2506,0,20,20,10,1,11,image/11.jpg,0,0,,R_5ZUNCbLeFy8Pq4V,2,2024-05-31_13h10.27.800,face trait task,2021.2.3,Win32,60.24096386,120161,,,,,,,
,,,,,,5.078125,2.3826,space,0.567,0,21,21,18,1,19,image/19.jpg,0,0,,R_5ZUNCbLeFy8Pq4V,2,2024-05-31_13h10.27.800,face trait task,2021.2.3,Win32,60.24096386,120161,,,,,,,
,,,,,,3.75,5.1616,space,3.1297,0,22,22,19,1,20,image/20.jpg,0,0,,R_5ZUNCbLeFy8Pq4V,2,2024-05-31_13h10.27.800,face trait task,2021.2.3,Win32,60.24096386,120161,,,,,,,
,,,,,,6.84375,6.4469,space,0.3007,0,23,23,31,1,32,image/32.jpg,0,0,,R_5ZUNCbLeFy8Pq4V,2,2024-05-31_13h10.27.800,face trait task,2021.2.3,Win32,60.24096386,120161,,,,,,,
,,,,,,5.1484375,3.5075,space,0.7497,0,24,24,0,1,1,image/1.jpg,0,0,,R_5ZUNCbLeFy8Pq4V,2,2024-05-31_13h10.27.800,face trait task,2021.2.3,Win32,60.24096386,120161,,,,,,,
,,,,,,5.625,2.3017,space,0.6659,0,25,25,44,1,45,image/45.jpg,0,0,,R_5ZUNCbLeFy8Pq4V,2,2024-05-31_13h10.27.800,face trait task,2021.2.3,Win32,60.24096386,120161,,,,,,,
,,,,,,2.96875,3.8644,space,0.4333,0,26,26,16,1,17,image/17.jpg,0,0,,R_5ZUNCbLeFy8Pq4V,2,2024-05-31_13h10.27.800,face trait task,2021.2.3,Win32,60.24096386,120161,,,,,,,
,,,,,,2.0546875,2.6961,space,0.9581,0,27,27,42,1,43,image/43.jpg,0,0,,R_5ZUNCbLeFy8Pq4V,2,2024-05-31_13h10.27.800,face trait task,2021.2.3,Win32,60.24096386,120161,,,,,,,
,,,,,,4.046875,9.5909,space,1.6762,0,28,28,9,1,10,image/10.jpg,0,0,,R_5ZUNCbLeFy8Pq4V,2,2024-05-31_13h10.27.800,face trait task,2021.2.3,Win32,60.24096386,120161,,,,,,,
,,,,,,3,7.5192,space,0.3969,0,29,29,43,1,44,image/44.jpg,0,0,,R_5ZUNCbLeFy8Pq4V,2,2024-05-31_13h10.27.800,face trait task,2021.2.3,Win32,60.24096386,120161,,,,,,,
,,,,,,2.7265625,1.9613,space,0.3832,0,30,30,45,1,46,image/46.jpg,0,0,,R_5ZUNCbLeFy8Pq4V,2,2024-05-31_13h10.27.800,face trait task,2021.2.3,Win32,60.24096386,120161,,,,,,,
,,,,,,2.984375,2.2462,space,0.8666,0,31,31,13,1,14,image/14.jpg,0,0,,R_5ZUNCbLeFy8Pq4V,2,2024-05-31_13h10.27.800,face trait task,2021.2.3,Win32,60.24096386,120161,,,,,,,
,,,,,,4.1015625,2.1157,space,0.6099,0,32,32,37,1,38,image/38.jpg,0,0,,R_5ZUNCbLeFy8Pq4V,2,2024-05-31_13h10.27.800,face trait task,2021.2.3,Win32,60.24096386,120161,,,,,,,
,,,,,,2.7265625,1.8767,space,0.783,0,33,33,34,1,35,image/35.jpg,0,0,,R_5ZUNCbLeFy8Pq4V,2,2024-05-31_13h10.27.800,face trait task,2021.2.3,Win32,60.24096386,120161,,,,,,,
,,,,,,5.5390625,4.4791,space,0.5415,0,34,34,7,1,8,image/8.jpg,0,0,,R_5ZUNCbLeFy8Pq4V,2,2024-05-31_13h10.27.800,face trait task,2021.2.3,Win32,60.24096386,120161,,,,,,,
,,,,,,6.9296875,2.0164,space,1.0496,0,35,35,11,1,12,image/12.jpg,0,0,,R_5ZUNCbLeFy8Pq4V,2,2024-05-31_13h10.27.800,face trait task,2021.2.3,Win32,60.24096386,120161,,,,,,,
,,,,,,5.0234375,4.3277,space,0.3708,0,36,36,12,1,13,image/13.jpg,0,0,,R_5ZUNCbLeFy8Pq4V,2,2024-05-31_13h10.27.800,face trait task,2021.2.3,Win32,60.24096386,120161,,,,,,,
,,,,,,1,2.785,space,1.3834,0,37,37,50,1,53,image/fill_img.png,1,1,Please move the slider all the way to the LEFT to show that you are paying attention.,R_5ZUNCbLeFy8Pq4V,2,2024-05-31_13h10.27.800,face trait task,2021.2.3,Win32,60.24096386,120161,,,,,,,
,,,,,,6.3125,1.8456,space,0.606,0,38,38,26,1,27,image/27.jpg,0,0,,R_5ZUNCbLeFy8Pq4V,2,2024-05-31_13h10.27.800,face trait task,2021.2.3,Win32,60.24096386,120161,,,,,,,
,,,,,,2.4140625,2.1406,space,0.9334,0,39,39,21,1,22,image/22.jpg,0,0,,R_5ZUNCbLeFy8Pq4V,2,2024-05-31_13h10.27.800,face trait task,2021.2.3,Win32,60.24096386,120161,,,,,,,
,,,,,,3.8515625,2.4493,space,0.7757,0,40,40,15,1,16,image/16.jpg,0,0,,R_5ZUNCbLeFy8Pq4V,2,2024-05-31_13h10.27.800,face trait task,2021.2.3,Win32,60.24096386,120161,,,,,,,
,,,,,,5.734375,2.3494,space,0.6333,0,41,41,25,1,26,image/26.jpg,0,0,,R_5ZUNCbLeFy8Pq4V,2,2024-05-31_13h10.27.800,face trait task,2021.2.3,Win32,60.24096386,120161,,,,,,,
,,,,,,6.34375,3.281,space,0.3529,0,42,42,48,1,49,image/49.jpg,0,0,,R_5ZUNCbLeFy8Pq4V,2,2024-05-31_13h10.27.800,face trait task,2021.2.3,Win32,60.24096386,120161,,,,,,,
,,,,,,5.8046875,2.4141,space,0.6,0,43,43,29,1,30,image/30.jpg,0,0,,R_5ZUNCbLeFy8Pq4V,2,2024-05-31_13h10.27.800,face trait task,2021.2.3,Win32,60.24096386,120161,,,,,,,
,,,,,,3.7578125,2.4049,space,0.4228,0,44,44,28,1,29,image/29.jpg,0,0,,R_5ZUNCbLeFy8Pq4V,2,2024-05-31_13h10.27.800,face trait task,2021.2.3,Win32,60.24096386,120161,,,,,,,
,,,,,,3.171875,2.2785,space,0.4338,0,45,45,38,1,39,image/39.jpg,0,0,,R_5ZUNCbLeFy8Pq4V,2,2024-05-31_13h10.27.800,face trait task,2021.2.3,Win32,60.24096386,120161,,,,,,,
,,,,,,5.109375,4.7594,space,3.8826,0,46,46,22,1,23,image/23.jpg,0,0,,R_5ZUNCbLeFy8Pq4V,2,2024-05-31_13h10.27.800,face trait task,2021.2.3,Win32,60.24096386,120161,,,,,,,
,,,,,,4.96875,1.7849,space,0.4203,0,47,47,24,1,25,image/25.jpg,0,0,,R_5ZUNCbLeFy8Pq4V,2,2024-05-31_13h10.27.800,face trait task,2021.2.3,Win32,60.24096386,120161,,,,,,,
,,,,,,3.265625,4.5982,space,0.9646,0,48,48,47,1,48,image/48.jpg,0,0,,R_5ZUNCbLeFy8Pq4V,2,2024-05-31_13h10.27.800,face trait task,2021.2.3,Win32,60.24096386,120161,,,,,,,
,,,,,,5.7734375,14.0266,space,0.477,0,49,49,49,1,50,image/50.jpg,0,0,,R_5ZUNCbLeFy8Pq4V,2,2024-05-31_13h10.27.800,face trait task,2021.2.3,Win32,60.24096386,120161,,,,,,,
,,,,,,2.5703125,1.8117,space,0.2846,0,50,50,36,1,37,image/37.jpg,0,0,,R_5ZUNCbLeFy8Pq4V,2,2024-05-31_13h10.27.800,face trait task,2021.2.3,Win32,60.24096386,120161,,,,,,,
,,,,,,1,3.2959,space,1.1272,0,51,51,52,1,51,image/fill_img.png,1,1,Please move the slider all the way to the LEFT to show that you are paying attention.,R_5ZUNCbLeFy8Pq4V,2,2024-05-31_13h10.27.800,face trait task,2021.2.3,Win32,60.24096386,120161,,,,,,,
,,,,,,5.1484375,2.8969,space,0.5669,0,52,52,17,1,18,image/18.jpg,0,0,,R_5ZUNCbLeFy8Pq4V,2,2024-05-31_13h10.27.800,face trait task,2021.2.3,Win32,60.24096386,120161,,,,,,,
,,,,,,,,,,,,,,,,,,,,R_5ZUNCbLeFy8Pq4V,2,2024-05-31_13h10.27.800,face trait task,2021.2.3,Win32,60.24096386,120161,0,1,1,3,1,3,friendly.png
,,,,,trustworthy,6.1640625,2.5804,space,0.299,0,0,0,3,1,4,image/4.jpg,0,0,,R_5ZUNCbLeFy8Pq4V,2,2024-05-31_13h10.27.800,face trait task,2021.2.3,Win32,60.24096386,120161,,,,,,,
,,,,,,5.71875,1.6436,space,0.8093,0,1,1,32,1,33,image/33.jpg,0,0,,R_5ZUNCbLeFy8Pq4V,2,2024-05-31_13h10.27.800,face trait task,2021.2.3,Win32,60.24096386,120161,,,,,,,
,,,,,,6.078125,2.8338,space,0.2789,0,2,2,20,1,21,image/21.jpg,0,0,,R_5ZUNCbLeFy8Pq4V,2,2024-05-31_13h10.27.800,face trait task,2021.2.3,Win32,60.24096386,120161,,,,,,,
,,,,,,6.8984375,1.722,space,0.8239,0,3,3,31,1,32,image/32.jpg,0,0,,R_5ZUNCbLeFy8Pq4V,2,2024-05-31_13h10.27.800,face trait task,2021.2.3,Win32,60.24096386,120161,,,,,,,
,,,,,,6.5859375,1.2449,space,0.7517,0,4,4,21,1,22,image/22.jpg,0,0,,R_5ZUNCbLeFy8Pq4V,2,2024-05-31_13h10.27.800,face trait task,2021.2.3,Win32,60.24096386,120161,,,,,,,
,,,,,,4.9921875,3.199,space,0.3742,0,5,5,16,1,17,image/17.jpg,0,0,,R_5ZUNCbLeFy8Pq4V,2,2024-05-31_13h10.27.800,face trait task,2021.2.3,Win32,60.24096386,120161,,,,,,,
,,,,,,6.0390625,1.6414,space,0.5396,0,6,6,17,1,18,image/18.jpg,0,0,,R_5ZUNCbLeFy8Pq4V,2,2024-05-31_13h10.27.800,face trait task,2021.2.3,Win32,60.24096386,120161,,,,,,,
,,,,,,5.0703125,2.1161,space,0.5355,0,7,7,7,1,8,image/8.jpg,0,0,,R_5ZUNCbLeFy8Pq4V,2,2024-05-31_13h10.27.800,face trait task,2021.2.3,Win32,60.24096386,120161,,,,,,,
,,,,,,3.4609375,1.6476,space,0.4005,0,8,8,5,1,6,image/6.jpg,0,0,,R_5ZUNCbLeFy8Pq4V,2,2024-05-31_13h10.27.800,face trait task,2021.2.3,Win32,60.24096386,120161,,,,,,,
,,,,,,5.328125,1.9304,space,0.6002,0,9,9,14,1,15,image/15.jpg,0,0,,R_5ZUNCbLeFy8Pq4V,2,2024-05-31_13h10.27.800,face trait task,2021.2.3,Win32,60.24096386,120161,,,,,,,
,,,,,,6.1640625,1.7657,space,0.7832,0,10,10,9,1,10,image/10.jpg,0,0,,R_5ZUNCbLeFy8Pq4V,2,2024-05-31_13h10.27.800,face trait task,2021.2.3,Win32,60.24096386,120161,,,,,,,
,,,,,,7,2.8141,space,1.4381,0,11,11,51,1,56,image/fill_img.png,1,7,Please move the slider all the way to the RIGHT to show that you are paying attention.,R_5ZUNCbLeFy8Pq4V,2,2024-05-31_13h10.27.800,face trait task,2021.2.3,Win32,60.24096386,120161,,,,,,,
,,,,,,6.6875,1.6597,space,0.3715,0,12,12,49,1,50,image/50.jpg,0,0,,R_5ZUNCbLeFy8Pq4V,2,2024-05-31_13h10.27.800,face trait task,2021.2.3,Win32,60.24096386,120161,,,,,,,
,,,,,,6.0390625,2.8315,space,0.7034,0,13,13,18,1,19,image/19.jpg,0,0,,R_5ZUNCbLeFy8Pq4V,2,2024-05-31_13h10.27.800,face trait task,2021.2.3,Win32,60.24096386,120161,,,,,,,
,,,,,,4.8671875,2.4364,space,0.4533,0,14,14,48,1,49,image/49.jpg,0,0,,R_5ZUNCbLeFy8Pq4V,2,2024-05-31_13h10.27.800,face trait task,2021.2.3,Win32,60.24096386,120161,,,,,,,
,,,,,,2.90625,5.646,space,1.3379,0,15,15,38,1,39,image/39.jpg,0,0,,R_5ZUNCbLeFy8Pq4V,2,2024-05-31_13h10.27.800,face trait task,2021.2.3,Win32,60.24096386,120161,,,,,,,
,,,,,,6.6796875,2.9695,space,2.0926,0,16,16,1,1,2,image/2.jpg,0,0,,R_5ZUNCbLeFy8Pq4V,2,2024-05-31_13h10.27.800,face trait task,2021.2.3,Win32,60.24096386,120161,,,,,,,
,,,,,,3.859375,24.5737,space,0.3912,0,17,17,13,1,14,image/14.jpg,0,0,,R_5ZUNCbLeFy8Pq4V,2,2024-05-31_13h10.27.800,face trait task,2021.2.3,Win32,60.24096386,120161,,,,,,,
,,,,,,2.921875,2.3167,space,0.3499,0,18,18,39,1,40,image/40.jpg,0,0,,R_5ZUNCbLeFy8Pq4V,2,2024-05-31_13h10.27.800,face trait task,2021.2.3,Win32,60.24096386,120161,,,,,,,
,,,,,,5.03125,2.8162,space,0.284,0,19,19,46,1,47,image/47.jpg,0,0,,R_5ZUNCbLeFy8Pq4V,2,2024-05-31_13h10.27.800,face trait task,2021.2.3,Win32,60.24096386,120161,,,,,,,
,,,,,,6,5.6931,space,0.4023,0,20,20,11,1,12,image/12.jpg,0,0,,R_5ZUNCbLeFy8Pq4V,2,2024-05-31_13h10.27.800,face trait task,2021.2.3,Win32,60.24096386,120161,,,,,,,
,,,,,,6.6953125,1.7346,space,0.3216,0,21,21,2,1,3,image/3.jpg,0,0,,R_5ZUNCbLeFy8Pq4V,2,2024-05-31_13h10.27.800,face trait task,2021.2.3,Win32,60.24096386,120161,,,,,,,
,,,,,,4.015625,2.3175,space,0.1764,0,22,22,29,1,30,image/30.jpg,0,0,,R_5ZUNCbLeFy8Pq4V,2,2024-05-31_13h10.27.800,face trait task,2021.2.3,Win32,60.24096386,120161,,,,,,,
,,,,,,5.390625,2.5001,space,2.9834,0,23,23,4,1,5,image/5.jpg,0,0,,R_5ZUNCbLeFy8Pq4V,2,2024-05-31_13h10.27.800,face trait task,2021.2.3,Win32,60.24096386,120161,,,,,,,
,,,,,,4.484375,3.1357,space,2.0601,0,24,24,10,1,11,image/11.jpg,0,0,,R_5ZUNCbLeFy8Pq4V,2,2024-05-31_13h10.27.800,face trait task,2021.2.3,Win32,60.24096386,120161,,,,,,,
,,,,,,4.1484375,18.1855,space,0.7222,0,25,25,0,1,1,image/1.jpg,0,0,,R_5ZUNCbLeFy8Pq4V,2,2024-05-31_13h10.27.800,face trait task,2021.2.3,Win32,60.24096386,120161,,,,,,,
,,,,,,5.859375,1.9391,space,0.4597,0,26,26,41,1,42,image/42.jpg,0,0,,R_5ZUNCbLeFy8Pq4V,2,2024-05-31_13h10.27.800,face trait task,2021.2.3,Win32,60.24096386,120161,,,,,,,
,,,,,,6.0625,1.9262,space,2.3983,0,27,27,26,1,27,image/27.jpg,0,0,,R_5ZUNCbLeFy8Pq4V,2,2024-05-31_13h10.27.800,face trait task,2021.2.3,Win32,60.24096386,120161,,,,,,,
,,,,,,4.953125,4.6678,space,1.0077,0,28,28,27,1,28,image/28.jpg,0,0,,R_5ZUNCbLeFy8Pq4V,2,2024-05-31_13h10.27.800,face trait task,2021.2.3,Win32,60.24096386,120161,,,,,,,
,,,,,,5.796875,2.0967,space,1.3991,0,29,29,23,1,24,image/24.jpg,0,0,,R_5ZUNCbLeFy8Pq4V,2,2024-05-31_13h10.27.800,face trait task,2021.2.3,Win32,60.24096386,120161,,,,,,,
,,,,,,6.5625,7.4652,space,1.0879,0,30,30,45,1,46,image/46.jpg,0,0,,R_5ZUNCbLeFy8Pq4V,2,2024-05-31_13h10.27.800,face trait task,2021.2.3,Win32,60.24096386,120161,,,,,,,
,,,,,,4.8984375,6.0496,space,0.3755,0,31,31,35,1,36,image/36.jpg,0,0,,R_5ZUNCbLeFy8Pq4V,2,2024-05-31_13h10.27.800,face trait task,2021.2.3,Win32,60.24096386,120161,,,,,,,
,,,,,,4.2890625,2.29,space,1.1944,0,32,32,8,1,9,image/9.jpg,0,0,,R_5ZUNCbLeFy8Pq4V,2,2024-05-31_13h10.27.800,face trait task,2021.2.3,Win32,60.24096386,120161,,,,,,,
,,,,,,5.3671875,2.422,space,0.9332,0,33,33,15,1,16,image/16.jpg,0,0,,R_5ZUNCbLeFy8Pq4V,2,2024-05-31_13h10.27.800,face trait task,2021.2.3,Win32,60.24096386,120161,,,,,,,
,,,,,,6.4453125,1.8635,space,0.7175,0,34,34,25,1,26,image/26.jpg,0,0,,R_5ZUNCbLeFy8Pq4V,2,2024-05-31_13h10.27.800,face trait task,2021.2.3,Win32,60.24096386,120161,,,,,,,
,,,,,,5.5625,1.8777,space,1.1181,0,35,35,24,1,25,image/25.jpg,0,0,,R_5ZUNCbLeFy8Pq4V,2,2024-05-31_13h10.27.800,face trait task,2021.2.3,Win32,60.24096386,120161,,,,,,,
,,,,,,3.6015625,2.8097,space,0.8174,0,36,36,34,1,35,image/35.jpg,0,0,,R_5ZUNCbLeFy8Pq4V,2,2024-05-31_13h10.27.800,face trait task,2021.2.3,Win32,60.24096386,120161,,,,,,,
,,,,,,5.734375,3.1491,space,1.0215,0,37,37,40,1,41,image/41.jpg,0,0,,R_5ZUNCbLeFy8Pq4V,2,2024-05-31_13h10.27.800,face trait task,2021.2.3,Win32,60.24096386,120161,,,,,,,
,,,,,,3.640625,2.275,space,0.6352,0,38,38,47,1,48,image/48.jpg,0,0,,R_5ZUNCbLeFy8Pq4V,2,2024-05-31_13h10.27.800,face trait task,2021.2.3,Win32,60.24096386,120161,,,,,,,
,,,,,,6.203125,2.1681,space,0.4297,0,39,39,22,1,23,image/23.jpg,0,0,,R_5ZUNCbLeFy8Pq4V,2,2024-05-31_13h10.27.800,face trait task,2021.2.3,Win32,60.24096386,120161,,,,,,,
,,,,,,1,3.2979,space,1.0283,0,40,40,52,1,51,image/fill_img.png,1,1,Please move the slider all the way to the LEFT to show that you are paying attention.,R_5ZUNCbLeFy8Pq4V,2,2024-05-31_13h10.27.800,face trait task,2021.2.3,Win32,60.24096386,120161,,,,,,,
,,,,,,3.53125,5.1969,space,0.449,0,41,41,37,1,38,image/38.jpg,0,0,,R_5ZUNCbLeFy8Pq4V,2,2024-05-31_13h10.27.800,face trait task,2021.2.3,Win32,60.24096386,120161,,,,,,,
,,,,,,2.375,1.5712,space,1.4489,0,42,42,42,1,43,image/43.jpg,0,0,,R_5ZUNCbLeFy8Pq4V,2,2024-05-31_13h10.27.800,face trait task,2021.2.3,Win32,60.24096386,120161,,,,,,,
,,,,,,4.21875,1.3851,space,0.6685,0,43,43,43,1,44,image/44.jpg,0,0,,R_5ZUNCbLeFy8Pq4V,2,2024-05-31_13h10.27.800,face trait task,2021.2.3,Win32,60.24096386,120161,,,,,,,
,,,,,,6.8671875,1.8592,space,0.6837,0,44,44,33,1,34,image/34.jpg,0,0,,R_5ZUNCbLeFy8Pq4V,2,2024-05-31_13h10.27.800,face trait task,2021.2.3,Win32,60.24096386,120161,,,,,,,
,,,,,,5.125,3.0018,space,0.6175,0,45,45,36,1,37,image/37.jpg,0,0,,R_5ZUNCbLeFy8Pq4V,2,2024-05-31_13h10.27.800,face trait task,2021.2.3,Win32,60.24096386,120161,,,,,,,
,,,,,,5.3984375,12.5043,space,0.2566,0,46,46,12,1,13,image/13.jpg,0,0,,R_5ZUNCbLeFy8Pq4V,2,2024-05-31_13h10.27.800,face trait task,2021.2.3,Win32,60.24096386,120161,,,,,,,
,,,,,,1,2.935,space,1.2529,0,47,47,50,1,53,image/fill_img.png,1,1,Please move the slider all the way to the LEFT to show that you are paying attention.,R_5ZUNCbLeFy8Pq4V,2,2024-05-31_13h10.27.800,face trait task,2021.2.3,Win32,60.24096386,120161,,,,,,,
,,,,,,4.828125,6.7366,space,1.925,0,48,48,6,1,7,image/7.jpg,0,0,,R_5ZUNCbLeFy8Pq4V,2,2024-05-31_13h10.27.800,face trait task,2021.2.3,Win32,60.24096386,120161,,,,,,,
,,,,,,4.75,1.8213,space,0.9578,0,49,49,28,1,29,image/29.jpg,0,0,,R_5ZUNCbLeFy8Pq4V,2,2024-05-31_13h10.27.800,face trait task,2021.2.3,Win32,60.24096386,120161,,,,,,,
,,,,,,5.375,3.8714,space,1.4869,0,50,50,19,1,20,image/20.jpg,0,0,,R_5ZUNCbLeFy8Pq4V,2,2024-05-31_13h10.27.800,face trait task,2021.2.3,Win32,60.24096386,120161,,,,,,,
,,,,,,3.4375,2.8948,space,0.7272,0,51,51,30,1,31,image/31.jpg,0,0,,R_5ZUNCbLeFy8Pq4V,2,2024-05-31_13h10.27.800,face trait task,2021.2.3,Win32,60.24096386,120161,,,,,,,
,,,,,,5.9375,2.3999,space,1.159,0,52,52,44,1,45,image/45.jpg,0,0,,R_5ZUNCbLeFy8Pq4V,2,2024-05-31_13h10.27.800,face trait task,2021.2.3,Win32,60.24096386,120161,,,,,,,
,,,,,,,,,,,,,,,,,,,,R_5ZUNCbLeFy8Pq4V,2,2024-05-31_13h10.27.800,face trait task,2021.2.3,Win32,60.24096386,120161,0,2,2,2,1,2,trustworthy.png
,,,,,critical,4.9765625,1.9525,space,2.1754,0,0,0,10,1,11,image/11.jpg,0,0,,R_5ZUNCbLeFy8Pq4V,2,2024-05-31_13h10.27.800,face trait task,2021.2.3,Win32,60.24096386,120161,,,,,,,
,,,,,,3.4765625,1.7167,space,1.1041,0,1,1,41,1,42,image/42.jpg,0,0,,R_5ZUNCbLeFy8Pq4V,2,2024-05-31_13h10.27.800,face trait task,2021.2.3,Win32,60.24096386,120161,,,,,,,
,,,,,,6.28125,1.7017,space,1.0543,0,2,2,36,1,37,image/37.jpg,0,0,,R_5ZUNCbLeFy8Pq4V,2,2024-05-31_13h10.27.800,face trait task,2021.2.3,Win32,60.24096386,120161,,,,,,,
,,,,,,6.875,1.9206,space,2.1987,0,3,3,21,1,22,image/22.jpg,0,0,,R_5ZUNCbLeFy8Pq4V,2,2024-05-31_13h10.27.800,face trait task,2021.2.3,Win32,60.24096386,120161,,,,,,,
,,,,,,6.9921875,2.2782,space,0.5363,0,4,4,39,1,40,image/40.jpg,0,0,,R_5ZUNCbLeFy8Pq4V,2,2024-05-31_13h10.27.800,face trait task,2021.2.3,Win32,60.24096386,120161,,,,,,,
,,,,,,2.3671875,3.2338,space,0.8425,0,5,5,3,1,4,image/4.jpg,0,0,,R_5ZUNCbLeFy8Pq4V,2,2024-05-31_13h10.27.800,face trait task,2021.2.3,Win32,60.24096386,120161,,,,,,,
,,,,,,2.9140625,2.3298,space,0.8133,0,6,6,4,1,5,image/5.jpg,0,0,,R_5ZUNCbLeFy8Pq4V,2,2024-05-31_13h10.27.800,face trait task,2021.2.3,Win32,60.24096386,120161,,,,,,,
,,,,,,2.1015625,2.5203,space,1.1125,0,7,7,43,1,44,image/44.jpg,0,0,,R_5ZUNCbLeFy8Pq4V,2,2024-05-31_13h10.27.800,face trait task,2021.2.3,Win32,60.24096386,120161,,,,,,,
,,,,,,3.3203125,3.2523,space,0.4675,0,8,8,11,1,12,image/12.jpg,0,0,,R_5ZUNCbLeFy8Pq4V,2,2024-05-31_13h10.27.800,face trait task,2021.2.3,Win32,60.24096386,120161,,,,,,,
,,,,,,4.03125,4.2197,space,0.6901,0,9,9,26,1,27,image/27.jpg,0,0,,R_5ZUNCbLeFy8Pq4V,2,2024-05-31_13h10.27.800,face trait task,2021.2.3,Win32,60.24096386,120161,,,,,,,
,,,,,,4.125,1.8189,space,0.7196,0,10,10,32,1,33,image/33.jpg,0,0,,R_5ZUNCbLeFy8Pq4V,2,2024-05-31_13h10.27.800,face trait task,2021.2.3,Win32,60.24096386,120161,,,,,,,
,,,,,,2.984375,2.5541,space,0.5832,0,11,11,5,1,6,image/6.jpg,0,0,,R_5ZUNCbLeFy8Pq4V,2,2024-05-31_13h10.27.800,face trait task,2021.2.3,Win32,60.24096386,120161,,,,,,,
,,,,,,1,2.7883,space,1.2712,0,12,12,50,1,53,image/fill_img.png,1,1,Please move the slider all the way to the LEFT to show that you are paying attention.,R_5ZUNCbLeFy8Pq4V,2,2024-05-31_13h10.27.800,face trait task,2021.2.3,Win32,60.24096386,120161,,,,,,,
,,,,,,6.84375,3.5246,space,0.4573,0,13,13,28,1,29,image/29.jpg,0,0,,R_5ZUNCbLeFy8Pq4V,2,2024-05-31_13h10.27.800,face trait task,2021.2.3,Win32,60.24096386,120161,,,,,,,
,,,,,,1.078125,1.9454,space,0.7917,0,14,14,2,1,3,image/3.jpg,0,0,,R_5ZUNCbLeFy8Pq4V,2,2024-05-31_13h10.27.800,face trait task,2021.2.3,Win32,60.24096386,120161,,,,,,,
,,,,,,3.15625,2.9336,space,0.4718,0,15,15,40,1,41,image/41.jpg,0,0,,R_5ZUNCbLeFy8Pq4V,2,2024-05-31_13h10.27.800,face trait task,2021.2.3,Win32,60.24096386,120161,,,,,,,
,,,,,,6.2578125,3.1295,space,0.4689,0,16,16,29,1,30,image/30.jpg,0,0,,R_5ZUNCbLeFy8Pq4V,2,2024-05-31_13h10.27.800,face trait task,2021.2.3,Win32,60.24096386,120161,,,,,,,
,,,,,,3.09375,2.4028,space,0.438,0,17,17,35,1,36,image/36.jpg,0,0,,R_5ZUNCbLeFy8Pq4V,2,2024-05-31_13h10.27.800,face trait task,2021.2.3,Win32,60.24096386,120161,,,,,,,
,,,,,,3.8828125,2.2244,space,0.8035,0,18,18,46,1,47,image/47.jpg,0,0,,R_5ZUNCbLeFy8Pq4V,2,2024-05-31_13h10.27.800,face trait task,2021.2.3,Win32,60.24096386,120161,,,,,,,
,,,,,,5.6015625,2.5831,space,0.7947,0,19,19,49,1,50,image/50.jpg,0,0,,R_5ZUNCbLeFy8Pq4V,2,2024-05-31_13h10.27.800,face trait task,2021.2.3,Win32,60.24096386,120161,,,,,,,
,,,,,,7,3.2634,space,1.1748,0,20,20,51,1,56,image/fill_img.png,1,7,Please move the slider all the way to the RIGHT to show that you are paying attention.,R_5ZUNCbLeFy8Pq4V,2,2024-05-31_13h10.27.800,face trait task,2021.2.3,Win32,60.24096386,120161,,,,,,,
,,,,,,2.234375,9.4937,space,1.1436,0,21,21,48,1,49,image/49.jpg,0,0,,R_5ZUNCbLeFy8Pq4V,2,2024-05-31_13h10.27.800,face trait task,2021.2.3,Win32,60.24096386,120161,,,,,,,
,,,,,,4.6640625,3.0925,space,0.3449,0,22,22,8,1,9,image/9.jpg,0,0,,R_5ZUNCbLeFy8Pq4V,2,2024-05-31_13h10.27.800,face trait task,2021.2.3,Win32,60.24096386,120161,,,,,,,
,,,,,,5.9609375,2.1213,space,0.5527,0,23,23,23,1,24,image/24.jpg,0,0,,R_5ZUNCbLeFy8Pq4V,2,2024-05-31_13h10.27.800,face trait task,2021.2.3,Win32,60.24096386,120161,,,,,,,
,,,,,,6.9921875,2.9625,space,1.1972,0,24,24,25,1,26,image/26.jpg,0,0,,R_5ZUNCbLeFy8Pq4V,2,2024-05-31_13h10.27.800,face trait task,2021.2.3,Win32,60.24096386,120161,,,,,,,
,,,,,,2.8359375,2.2954,space,0.7991,0,25,25,33,1,34,image/34.jpg,0,0,,R_5ZUNCbLeFy8Pq4V,2,2024-05-31_13h10.27.800,face trait task,2021.2.3,Win32,60.24096386,120161,,,,,,,
,,,,,,1.984375,2.2405,space,1.1662,0,26,26,34,1,35,image/35.jpg,0,0,,R_5ZUNCbLeFy8Pq4V,2,2024-05-31_13h10.27.800,face trait task,2021.2.3,Win32,60.24096386,120161,,,,,,,
,,,,,,3.9921875,3.566,space,2.4064,0,27,27,38,1,39,image/39.jpg,0,0,,R_5ZUNCbLeFy8Pq4V,2,2024-05-31_13h10.27.800,face trait task,2021.2.3,Win32,60.24096386,120161,,,,,,,
,,,,,,4.9296875,2.2593,space,1.266,0,28,28,37,1,38,image/38.jpg,0,0,,R_5ZUNCbLeFy8Pq4V,2,2024-05-31_13h10.27.800,face trait task,2021.2.3,Win32,60.24096386,120161,,,,,,,
,,,,,,5.953125,1.8783,space,0.9655,0,29,29,13,1,14,image/14.jpg,0,0,,R_5ZUNCbLeFy8Pq4V,2,2024-05-31_13h10.27.800,face trait task,2021.2.3,Win32,60.24096386,120161,,,,,,,
,,,,,,3.515625,1.7838,space,0.6365,0,30,30,44,1,45,image/45.jpg,0,0,,R_5ZUNCbLeFy8Pq4V,2,2024-05-31_13h10.27.800,face trait task,2021.2.3,Win32,60.24096386,120161,,,,,,,
,,,,,,6.046875,2.3738,space,0.5998,0,31,31,0,1,1,image/1.jpg,0,0,,R_5ZUNCbLeFy8Pq4V,2,2024-05-31_13h10.27.800,face trait task,2021.2.3,Win32,60.24096386,120161,,,,,,,
,,,,,,4.9609375,2.0105,space,0.546,0,32,32,14,1,15,image/15.jpg,0,0,,R_5ZUNCbLeFy8Pq4V,2,2024-05-31_13h10.27.800,face trait task,2021.2.3,Win32,60.24096386,120161,,,,,,,
,,,,,,3.9765625,1.9617,space,1.2138,0,33,33,9,1,10,image/10.jpg,0,0,,R_5ZUNCbLeFy8Pq4V,2,2024-05-31_13h10.27.800,face trait task,2021.2.3,Win32,60.24096386,120161,,,,,,,
,,,,,,5.7109375,8.7983,space,1.674,0,34,34,15,1,16,image/16.jpg,0,0,,R_5ZUNCbLeFy8Pq4V,2,2024-05-31_13h10.27.800,face trait task,2021.2.3,Win32,60.24096386,120161,,,,,,,
,,,,,,6.3203125,2.4836,space,1.3431,0,35,35,18,1,19,image/19.jpg,0,0,,R_5ZUNCbLeFy8Pq4V,2,2024-05-31_13h10.27.800,face trait task,2021.2.3,Win32,60.24096386,120161,,,,,,,
,,,,,,4.609375,1.8344,space,1.7897,0,36,36,7,1,8,image/8.jpg,0,0,,R_5ZUNCbLeFy8Pq4V,2,2024-05-31_13h10.27.800,face trait task,2021.2.3,Win32,60.24096386,120161,,,,,,,
,,,,,,5.75,2.4619,space,2.0098,0,37,37,47,1,48,image/48.jpg,0,0,,R_5ZUNCbLeFy8Pq4V,2,2024-05-31_13h10.27.800,face trait task,2021.2.3,Win32,60.24096386,120161,,,,,,,
,,,,,,6.8828125,5.5665,space,0.6597,0,38,38,19,1,20,image/20.jpg,0,0,,R_5ZUNCbLeFy8Pq4V,2,2024-05-31_13h10.27.800,face trait task,2021.2.3,Win32,60.24096386,120161,,,,,,,
,,,,,,5.109375,2.567,space,1.1503,0,39,39,20,1,21,image/21.jpg,0,0,,R_5ZUNCbLeFy8Pq4V,2,2024-05-31_13h10.27.800,face trait task,2021.2.3,Win32,60.24096386,120161,,,,,,,
,,,,,,6.125,1.7922,space,1.3876,0,40,40,27,1,28,image/28.jpg,0,0,,R_5ZUNCbLeFy8Pq4V,2,2024-05-31_13h10.27.800,face trait task,2021.2.3,Win32,60.24096386,120161,,,,,,,
,,,,,,3.765625,4.2199,space,2.6094,0,41,41,22,1,23,image/23.jpg,0,0,,R_5ZUNCbLeFy8Pq4V,2,2024-05-31_13h10.27.800,face trait task,2021.2.3,Win32,60.24096386,120161,,,,,,,
,,,,,,5.7421875,3.0756,space,0.8054,0,42,42,17,1,18,image/18.jpg,0,0,,R_5ZUNCbLeFy8Pq4V,2,2024-05-31_13h10.27.800,face trait task,2021.2.3,Win32,60.24096386,120161,,,,,,,
,,,,,,3.2890625,2.3093,space,0.7615,0,43,43,6,1,7,image/7.jpg,0,0,,R_5ZUNCbLeFy8Pq4V,2,2024-05-31_13h10.27.800,face trait task,2021.2.3,Win32,60.24096386,120161,,,,,,,
,,,,,,6.7890625,2.257,space,0.3157,0,44,44,30,1,31,image/31.jpg,0,0,,R_5ZUNCbLeFy8Pq4V,2,2024-05-31_13h10.27.800,face trait task,2021.2.3,Win32,60.24096386,120161,,,,,,,
,,,,,,4.5234375,2.5266,space,0.9052,0,45,45,31,1,32,image/32.jpg,0,0,,R_5ZUNCbLeFy8Pq4V,2,2024-05-31_13h10.27.800,face trait task,2021.2.3,Win32,60.24096386,120161,,,,,,,
,,,,,,5.015625,3.8582,space,0.5457,0,46,46,24,1,25,image/25.jpg,0,0,,R_5ZUNCbLeFy8Pq4V,2,2024-05-31_13h10.27.800,face trait task,2021.2.3,Win32,60.24096386,120161,,,,,,,
,,,,,,5.421875,8.768,space,0.5966,0,47,47,42,1,43,image/43.jpg,0,0,,R_5ZUNCbLeFy8Pq4V,2,2024-05-31_13h10.27.800,face trait task,2021.2.3,Win32,60.24096386,120161,,,,,,,
,,,,,,4.625,2.7232,space,0.6033,0,48,48,12,1,13,image/13.jpg,0,0,,R_5ZUNCbLeFy8Pq4V,2,2024-05-31_13h10.27.800,face trait task,2021.2.3,Win32,60.24096386,120161,,,,,,,
,,,,,,6.5234375,2.1535,space,0.2369,0,49,49,1,1,2,image/2.jpg,0,0,,R_5ZUNCbLeFy8Pq4V,2,2024-05-31_13h10.27.800,face trait task,2021.2.3,Win32,60.24096386,120161,,,,,,,
,,,,,,1,2.7142,space,0.9457,0,50,50,52,1,51,image/fill_img.png,1,1,Please move the slider all the way to the LEFT to show that you are paying attention.,R_5ZUNCbLeFy8Pq4V,2,2024-05-31_13h10.27.800,face trait task,2021.2.3,Win32,60.24096386,120161,,,,,,,
,,,,,,6.53125,3.27,space,0.244,0,51,51,16,1,17,image/17.jpg,0,0,,R_5ZUNCbLeFy8Pq4V,2,2024-05-31_13h10.27.800,face trait task,2021.2.3,Win32,60.24096386,120161,,,,,,,
,,,,,,5.03125,2.0514,space,0.7016,0,52,52,45,1,46,image/46.jpg,0,0,,R_5ZUNCbLeFy8Pq4V,2,2024-05-31_13h10.27.800,face trait task,2021.2.3,Win32,60.24096386,120161,,,,,,,
,,,,,,,,,,,,,,,,,,,,R_5ZUNCbLeFy8Pq4V,2,2024-05-31_13h10.27.800,face trait task,2021.2.3,Win32,60.24096386,120161,0,3,3,0,1,0,critical.png
