chooserow,ParID,pre_instru_resp_2.keys,pre_instru_resp_2.rt,pre_instru_resp_3.keys,pre_instru_resp_3.rt,pre_instru_resp_9.keys,pre_instru_resp_9.rt,pre_instru_resp_8.keys,pre_instru_resp_8.rt,pre_instru_resp_4.keys,pre_instru_resp_4.rt,pre_instru_resp_5.keys,pre_instru_resp_5.rt,pre_instru_resp_6.keys,pre_instru_resp_6.rt,key_resp_3.keys,key_resp_3.rt,key_resp_4.keys,key_resp_4.rt,key_resp_5.keys,key_resp_5.rt,key_resp_6.keys,key_resp_6.rt,key_resp_7.keys,key_resp_7.rt,trials_2.thisRepN,trials_2.thisTrialN,trials_2.thisN,trials_2.thisIndex,trials_2.ran,participant,session,date,expName,psychopyVersion,OS,frameRate,SONAid,pre_instru_resp.keys,pre_instru_resp.rt,clicked,judge_2.x,judge_2.y,judge_2.leftButton,judge_2.midButton,judge_2.rightButton,judge_2.clicked_name,trials.thisRepN,trials.thisTrialN,trials.thisN,trials.thisIndex,trials.ran,prac_answer,prac_dot_sti,dotlefttext,dotrighttext,prac_acc,judge.x,judge.y,judge.leftButton,judge.midButton,judge.rightButton,judge.clicked_name,clicked_guilt,slider_guilt.response,slider_guilt.rt,key_guilt.keys,share_slider.response,share_slider.rt,key_share.keys,key_share.rt,slider_apology.response,slider_apology.rt,key_apology.keys,slider_hide.response,slider_hide.rt,slider_forgiveness.response,slider_forgiveness.rt,key_forgiveness.keys,slider_mad.response,slider_mad.rt,trialseq.thisRepN,trialseq.thisTrialN,trialseq.thisN,trialseq.thisIndex,trialseq.ran,type_trial,stipic,DV,picture,answer,number,key_apology.rt,key_guilt.rt,key_forgiveness.rt,incompleteTrials,trials_redo.thisRepN,trials_redo.thisTrialN,trials_redo.thisN,trials_redo.thisIndex,trials_redo.ran
"[70,47,121,49,34,193,163,129,79,100,66,161,143,122,63,85,182,83,48,94,149,1,114,104,117,141,73,173,154,174,175,90,133,201,18,158,102,146,187,59,110,188]",R_5ZUNCbLeFy8Pq4V,space,2.6962,space,5.346,space,25.9857,space,19.4547,space,28.352,space,8.8475,space,5.7797,3,20.6134,1,6.0959,3,7.4894,1,11.4262,3,4.6572,0,0,0,0,1,R_5ZUNCbLeFy8Pq4V,1,2024-05-31_12h50.01.367,interaction task,2021.2.3,Win32,60.24096386,120161,,,,,,,,,,,,,,,,,,,,,,,,,,,,,,,,,,,,,,,,,,,,,,,,,,,,,,,,,,,,,,,
,,,,space,2.6057,space,2.9392,space,2.5779,space,30.7749,space,2.8078,space,1.8885,3,1.9985,1,1.5427,3,1.6023,2,1.6252,2,2.0991,1,0,1,0,1,R_5ZUNCbLeFy8Pq4V,1,2024-05-31_12h50.01.367,interaction task,2021.2.3,Win32,60.24096386,120161,,,,,,,,,,,,,,,,,,,,,,,,,,,,,,,,,,,,,,,,,,,,,,,,,,,,,,,,,,,,,,,
,,,,,,,,,,,,,,,,,,,,,,,,,,,,,,,R_5ZUNCbLeFy8Pq4V,1,2024-05-31_12h50.01.367,interaction task,2021.2.3,Win32,60.24096386,120161,space,2.699,"[""RightButton_2""]",0.317715959,-0.322916667,1,0,0,RightButton_2,0,0,0,2,1,RightButton_2,11dot1.png,Smaller,Greater,,,,,,,,,,,,,,,,,,,,,,,,,,,,,,,,,,,,,,,,,,,,,
,,,,,,,,,,,,,,,,,,,,,,,,,,,,,,,R_5ZUNCbLeFy8Pq4V,1,2024-05-31_12h50.01.367,interaction task,2021.2.3,Win32,60.24096386,120161,,,"[""LeftButton_2""]",-0.327964861,-0.341145833,1,0,0,LeftButton_2,0,1,1,0,1,RightButton_2,11dot1.png,Smaller,Greater,,,,,,,,,,,,,,,,,,,,,,,,,,,,,,,,,,,,,,,,,,,,,
,,,,,,,,,,,,,,,,,,,,,,,,,,,,,,,R_5ZUNCbLeFy8Pq4V,1,2024-05-31_12h50.01.367,interaction task,2021.2.3,Win32,60.24096386,120161,,,"[""RightButton_2""]",0.269399707,-0.2890625,1,0,0,RightButton_2,0,2,2,1,1,RightButton_2,11dot1.png,Smaller,Greater,,,,,,,,,,,,,,,,,,,,,,,,,,,,,,,,,,,,,,,,,,,,,
,,,,,,,,,,,,,,,,,,,,,,,,,,,,,,,R_5ZUNCbLeFy8Pq4V,1,2024-05-31_12h50.01.367,interaction task,2021.2.3,Win32,60.24096386,120161,,,,,,,,,,,,,,,,,Smaller,Greater,0.4,0.282576867,-0.5390625,1,0,0,RightButton,"[""RightButton""]",,,,2.961200586,22.0763,space,2.3442,,,,,,,,,,,0,0,0,0,1,1,both_wrong.png,1,RandomDot29.png,No answer,19,,,,,,,,,
,,,,,,,,,,,,,,,,,,,,,,,,,,,,,,,R_5ZUNCbLeFy8Pq4V,1,2024-05-31_12h50.01.367,interaction task,2021.2.3,Win32,60.24096386,120161,,,,,,,,,,,,,,,,,Smaller,Greater,,-0.339677892,-0.518229167,1,0,0,LeftButton,"[""LeftButton""]",,,,,,,,,,,,,,,,,,0,1,1,1,1,0,both_right.png,3,RandomDot13.png,No answer,19,,,,,,,,,
,,,,,,,,,,,,,,,,,,,,,,,,,,,,,,,R_5ZUNCbLeFy8Pq4V,1,2024-05-31_12h50.01.367,interaction task,2021.2.3,Win32,60.24096386,120161,,,,,,,,,,,,,,,,,Greater,Smaller,,-0.335285505,-0.541666667,1,0,0,LeftButton,"[""LeftButton""]",,,,,,,,22,9.7231,space,22,13.1761,,,,,,0,2,2,2,1,2,only_sub_right.png,2,RandomDot18.png,No answer,19,1.897,,,,,,,,
,,,,,,,,,,,,,,,,,,,,,,,,,,,,,,,R_5ZUNCbLeFy8Pq4V,1,2024-05-31_12h50.01.367,interaction task,2021.2.3,Win32,60.24096386,120161,,,,,,,,,,,,,,,,,Greater,Smaller,,-0.25329429,-0.502604167,1,0,0,LeftButton,"[""LeftButton""]",1,3.2459,space,,,,,,,,,,,,,,,0,3,3,3,1,1,both_wrong.png,0,RandomDot16.png,No answer,19,,0.9831,,,,,,,
,,,,,,,,,,,,,,,,,,,,,,,,,,,,,,,R_5ZUNCbLeFy8Pq4V,1,2024-05-31_12h50.01.367,interaction task,2021.2.3,Win32,60.24096386,120161,,,,,,,,,,,,,,,,,Smaller,Greater,,0.292825769,-0.479166667,1,0,0,RightButton,"[""RightButton""]",,,,,,,,,,,,,,,,,,0,4,4,4,1,0,both_right.png,2,RandomDot15.png,No answer,21,,,,,,,,,
,,,,,,,,,,,,,,,,,,,,,,,,,,,,,,,R_5ZUNCbLeFy8Pq4V,1,2024-05-31_12h50.01.367,interaction task,2021.2.3,Win32,60.24096386,120161,,,,,,,,,,,,,,,,,Greater,Smaller,,-0.306002928,-0.520833333,1,0,0,LeftButton,"[""LeftButton""]",,,,,,,,,,,,,,,,,,0,5,5,5,1,4,both_right.png,10,RandomDot41.png,LeftButton,5,,,,,,,,,
,,,,,,,,,,,,,,,,,,,,,,,,,,,,,,,R_5ZUNCbLeFy8Pq4V,1,2024-05-31_12h50.01.367,interaction task,2021.2.3,Win32,60.24096386,120161,,,,,,,,,,,,,,,,,Smaller,Greater,,0.248901903,-0.489583333,1,0,0,RightButton,"[""RightButton""]",,,,1.994875549,7.4206,space,1.0608,,,,,,,,,,,0,6,6,6,1,3,only_sub_wrong.png,1,RandomDot6.png,No answer,20,,,,,,,,,
,,,,,,,,,,,,,,,,,,,,,,,,,,,,,,,R_5ZUNCbLeFy8Pq4V,1,2024-05-31_12h50.01.367,interaction task,2021.2.3,Win32,60.24096386,120161,,,,,,,,,,,,,,,,,Smaller,Greater,,0.262079063,-0.502604167,1,0,0,RightButton,"[""RightButton""]",,,,,,,,11,3.7562,space,9,7.4266,,,,,,0,7,7,7,1,2,only_sub_right.png,2,RandomDot37.png,No answer,19,0.5691,,,,,,,,
,,,,,,,,,,,,,,,,,,,,,,,,,,,,,,,R_5ZUNCbLeFy8Pq4V,1,2024-05-31_12h50.01.367,interaction task,2021.2.3,Win32,60.24096386,120161,,,,,,,,,,,,,,,,,Smaller,Greater,,0.282576867,-0.502604167,1,0,0,RightButton,"[""RightButton""]",,,,,,,,9,2.4832,space,11,3.3254,,,,,,0,8,8,8,1,1,both_wrong.png,2,RandomDot24.png,No answer,21,0.5668,,,,,,,,
,,,,,,,,,,,,,,,,,,,,,,,,,,,,,,,R_5ZUNCbLeFy8Pq4V,1,2024-05-31_12h50.01.367,interaction task,2021.2.3,Win32,60.24096386,120161,,,,,,,,,,,,,,,,,Greater,Smaller,,0.323572474,-0.526041667,1,0,0,RightButton,"[""RightButton""]",0,3.3325,space,,,,,,,,,,,,,,,0,9,9,9,1,2,only_sub_right.png,0,RandomDot33.png,No answer,21,,0.2848,,,,,,,
,,,,,,,,,,,,,,,,,,,,,,,,,,,,,,,R_5ZUNCbLeFy8Pq4V,1,2024-05-31_12h50.01.367,interaction task,2021.2.3,Win32,60.24096386,120161,,,,,,,,,,,,,,,,,Smaller,Greater,,0.294289898,-0.494791667,1,0,0,RightButton,"[""RightButton""]",,,,2.163250366,4.015,space,0.7922,,,,,,,,,,,0,10,10,10,1,1,both_wrong.png,1,RandomDot10.png,No answer,19,,,,,,,,,
,,,,,,,,,,,,,,,,,,,,,,,,,,,,,,,R_5ZUNCbLeFy8Pq4V,1,2024-05-31_12h50.01.367,interaction task,2021.2.3,Win32,60.24096386,120161,,,,,,,,,,,,,,,,,Greater,Smaller,,-0.339677892,-0.53125,1,0,0,LeftButton,"[""LeftButton""]",,,,2.243777452,1.5773,space,0.515,,,,,,,,,,,0,11,11,11,1,3,only_sub_wrong.png,1,RandomDot36.png,No answer,19,,,,,,,,,
,,,,,,,,,,,,,,,,,,,,,,,,,,,,,,,R_5ZUNCbLeFy8Pq4V,1,2024-05-31_12h50.01.367,interaction task,2021.2.3,Win32,60.24096386,120161,,,,,,,,,,,,,,,,,Smaller,Greater,,0.25329429,-0.526041667,1,0,0,RightButton,"[""RightButton""]",,,,,,,,,,,,,85.78981617,3.6069,space,11.99180679,8.3945,0,12,12,12,1,2,only_sub_right.png,3,RandomDot31.png,No answer,19,,,0.4488,,,,,,
,,,,,,,,,,,,,,,,,,,,,,,,,,,,,,,R_5ZUNCbLeFy8Pq4V,1,2024-05-31_12h50.01.367,interaction task,2021.2.3,Win32,60.24096386,120161,,,,,,,,,,,,,,,,,Greater,Smaller,,0.344070278,-0.486979167,1,0,0,RightButton,"[""RightButton""]",,,,,,,,10,2.0231,space,11,2.9342,,,,,,0,13,13,13,1,2,only_sub_right.png,2,RandomDot33.png,No answer,20,0.4679,,,,,,,,
,,,,,,,,,,,,,,,,,,,,,,,,,,,,,,,R_5ZUNCbLeFy8Pq4V,1,2024-05-31_12h50.01.367,interaction task,2021.2.3,Win32,60.24096386,120161,,,,,,,,,,,,,,,,,Greater,Smaller,,-0.364568082,-0.533854167,1,0,0,LeftButton,"[""LeftButton""]",,,,2.207174231,10.765,space,0.6127,,,,,,,,,,,0,14,14,14,1,1,both_wrong.png,1,RandomDot27.png,No answer,19,,,,,,,,,
,,,,,,,,,,,,,,,,,,,,,,,,,,,,,,,R_5ZUNCbLeFy8Pq4V,1,2024-05-31_12h50.01.367,interaction task,2021.2.3,Win32,60.24096386,120161,,,,,,,,,,,,,,,,,Greater,Smaller,,0.284040996,-0.5234375,1,0,0,RightButton,"[""RightButton""]",,,,,,,,,,,,,91.11392106,3.6096,space,6.224026502,4.7844,0,15,15,15,1,1,both_wrong.png,3,RandomDot40.png,No answer,21,,,0.4664,,,,,,
,,,,,,,,,,,,,,,,,,,,,,,,,,,,,,,R_5ZUNCbLeFy8Pq4V,1,2024-05-31_12h50.01.367,interaction task,2021.2.3,Win32,60.24096386,120161,,,,,,,,,,,,,,,,,Greater,Smaller,,0.332357247,-0.466145833,1,0,0,RightButton,"[""RightButton""]",,,,,,,,,,,,,85.34614076,3.8776,space,9.181862549,5.1478,0,16,16,16,1,3,only_sub_wrong.png,3,RandomDot8.png,No answer,21,,,2.0693,,,,,,
,,,,,,,,,,,,,,,,,,,,,,,,,,,,,,,R_5ZUNCbLeFy8Pq4V,1,2024-05-31_12h50.01.367,interaction task,2021.2.3,Win32,60.24096386,120161,,,,,,,,,,,,,,,,,Smaller,Greater,,0.285505124,-0.481770833,1,0,0,RightButton,"[""RightButton""]",,,,,,,,7,3.9506,space,5,5.3207,,,,,,0,17,17,17,1,1,both_wrong.png,2,RandomDot8.png,No answer,20,0.7232,,,,,,,,
,,,,,,,,,,,,,,,,,,,,,,,,,,,,,,,R_5ZUNCbLeFy8Pq4V,1,2024-05-31_12h50.01.367,interaction task,2021.2.3,Win32,60.24096386,120161,,,,,,,,,,,,,,,,,Greater,Smaller,,0.263543192,-0.502604167,1,0,0,RightButton,"[""RightButton""]",3,2.6416,space,,,,,,,,,,,,,,,0,18,18,18,1,1,both_wrong.png,0,RandomDot24.png,No answer,21,,0.6886,,,,,,,
,,,,,,,,,,,,,,,,,,,,,,,,,,,,,,,R_5ZUNCbLeFy8Pq4V,1,2024-05-31_12h50.01.367,interaction task,2021.2.3,Win32,60.24096386,120161,,,,,,,,,,,,,,,,,Smaller,Greater,,0.320644217,-0.4921875,1,0,0,RightButton,"[""RightButton""]",,,,,,,,,,,,,93.48018989,3.9402,space,13.76650842,4.9811,0,19,19,19,1,1,both_wrong.png,3,RandomDot25.png,No answer,21,,,0.6179,,,,,,
,,,,,,,,,,,,,,,,,,,,,,,,,,,,,,,R_5ZUNCbLeFy8Pq4V,1,2024-05-31_12h50.01.367,interaction task,2021.2.3,Win32,60.24096386,120161,,,,,,,,,,,,,,,,,Greater,Smaller,,0.279648609,-0.520833333,1,0,0,RightButton,"[""RightButton""]",2,3.2617,space,,,,,,,,,,,,,,,0,20,20,20,1,3,only_sub_wrong.png,0,RandomDot24.png,No answer,20,,0.689,,,,,,,
,,,,,,,,,,,,,,,,,,,,,,,,,,,,,,,R_5ZUNCbLeFy8Pq4V,1,2024-05-31_12h50.01.367,interaction task,2021.2.3,Win32,60.24096386,120161,,,,,,,,,,,,,,,,,Greater,Smaller,,0.276720351,-0.46875,1,0,0,RightButton,"[""RightButton""]",,,,,,,,,,,,,,,,,,0,21,21,21,1,0,both_right.png,0,RandomDot36.png,No answer,21,,,,,,,,,
,,,,,,,,,,,,,,,,,,,,,,,,,,,,,,,R_5ZUNCbLeFy8Pq4V,1,2024-05-31_12h50.01.367,interaction task,2021.2.3,Win32,60.24096386,120161,,,,,,,,,,,,,,,,,Smaller,Greater,,0.194729136,-0.486979167,1,0,0,RightButton,"[""RightButton""]",,,,2.463396779,8.6917,space,0.458,,,,,,,,,,,0,22,22,22,1,2,only_sub_right.png,1,RandomDot15.png,No answer,19,,,,,,,,,
,,,,,,,,,,,,,,,,,,,,,,,,,,,,,,,R_5ZUNCbLeFy8Pq4V,1,2024-05-31_12h50.01.367,interaction task,2021.2.3,Win32,60.24096386,120161,,,,,,,,,,,,,,,,,Smaller,Greater,,0.330893119,-0.515625,1,0,0,RightButton,"[""RightButton""]",1,2.1543,space,,,,,,,,,,,,,,,0,23,23,23,1,2,only_sub_right.png,0,RandomDot29.png,No answer,20,,0.4777,,,,,,,
,,,,,,,,,,,,,,,,,,,,,,,,,,,,,,,R_5ZUNCbLeFy8Pq4V,1,2024-05-31_12h50.01.367,interaction task,2021.2.3,Win32,60.24096386,120161,,,,,,,,,,,,,,,,,Smaller,Greater,,-0.322108346,-0.502604167,1,0,0,LeftButton,"[""LeftButton""]",,,,2.5,6.062,space,0.4864,,,,,,,,,,,0,24,24,24,1,2,only_sub_right.png,1,RandomDot27.png,No answer,21,,,,,,,,,
,,,,,,,,,,,,,,,,,,,,,,,,,,,,,,,R_5ZUNCbLeFy8Pq4V,1,2024-05-31_12h50.01.367,interaction task,2021.2.3,Win32,60.24096386,120161,,,,,,,,,,,,,,,,,Smaller,Greater,,-0.311859444,-0.5078125,1,0,0,LeftButton,"[""LeftButton""]",,,,,,,,,,,,,82.83198012,5.7553,space,4.597216676,9.0384,0,25,25,25,1,2,only_sub_right.png,3,RandomDot7.png,No answer,20,,,0.4168,,,,,,
,,,,,,,,,,,,,,,,,,,,,,,,,,,,,,,R_5ZUNCbLeFy8Pq4V,1,2024-05-31_12h50.01.367,interaction task,2021.2.3,Win32,60.24096386,120161,,,,,,,,,,,,,,,,,Greater,Smaller,,-0.330893119,-0.4921875,1,0,0,LeftButton,"[""LeftButton""]",,,,,,,,2,5.7667,space,9,7.0245,,,,,,0,26,26,26,1,1,both_wrong.png,2,RandomDot24.png,No answer,19,0.2607,,,,,,,,
,,,,,,,,,,,,,,,,,,,,,,,,,,,,,,,R_5ZUNCbLeFy8Pq4V,1,2024-05-31_12h50.01.367,interaction task,2021.2.3,Win32,60.24096386,120161,,,,,,,,,,,,,,,,,Greater,Smaller,,0.285505124,-0.518229167,1,0,0,RightButton,"[""RightButton""]",,,,,,,,2,4.5436,space,8,5.5792,,,,,,0,27,27,27,1,3,only_sub_wrong.png,2,RandomDot20.png,No answer,19,0.7909,,,,,,,,
,,,,,,,,,,,,,,,,,,,,,,,,,,,,,,,R_5ZUNCbLeFy8Pq4V,1,2024-05-31_12h50.01.367,interaction task,2021.2.3,Win32,60.24096386,120161,,,,,,,,,,,,,,,,,Smaller,Greater,,0.301610542,-0.455729167,1,0,0,RightButton,"[""RightButton""]",1,3.1844,space,,,,,,,,,,,,,,,0,28,28,28,1,3,only_sub_wrong.png,0,RandomDot25.png,No answer,21,,1.0666,,,,,,,
,,,,,,,,,,,,,,,,,,,,,,,,,,,,,,,R_5ZUNCbLeFy8Pq4V,1,2024-05-31_12h50.01.367,interaction task,2021.2.3,Win32,60.24096386,120161,,,,,,,,,,,,,,,,,Smaller,Greater,,0.320644217,-0.5,1,0,0,RightButton,"[""RightButton""]",,,,,,,,6,1.9887,space,11,2.5864,,,,,,0,29,29,29,1,3,only_sub_wrong.png,2,RandomDot15.png,No answer,21,0.4968,,,,,,,,
,,,,,,,,,,,,,,,,,,,,,,,,,,,,,,,R_5ZUNCbLeFy8Pq4V,1,2024-05-31_12h50.01.367,interaction task,2021.2.3,Win32,60.24096386,120161,,,,,,,,,,,,,,,,,Smaller,Greater,,0.29136164,-0.5078125,1,0,0,RightButton,"[""RightButton""]",,,,,,,,3,4.6042,space,7,3.4711,,,,,,0,30,30,30,1,3,only_sub_wrong.png,2,RandomDot17.png,No answer,19,2.7777,,,,,,,,
,,,,,,,,,,,,,,,,,,,,,,,,,,,,,,,R_5ZUNCbLeFy8Pq4V,1,2024-05-31_12h50.01.367,interaction task,2021.2.3,Win32,60.24096386,120161,,,,,,,,,,,,,,,,,Smaller,Greater,,-0.35431918,-0.486979167,1,0,0,LeftButton,"[""LeftButton""]",,,,,,,,,,,,,10.36499697,8.0853,space,12.87915761,9.1695,0,31,31,31,1,1,both_wrong.png,3,RandomDot29.png,No answer,19,,,0.4611,,,,,,
,,,,,,,,,,,,,,,,,,,,,,,,,,,,,,,R_5ZUNCbLeFy8Pq4V,1,2024-05-31_12h50.01.367,interaction task,2021.2.3,Win32,60.24096386,120161,,,,,,,,,,,,,,,,,Greater,Smaller,,0.303074671,-0.513020833,1,0,0,RightButton,"[""RightButton""]",,,,,,,,,,,,,86.08559978,3.8466,space,9.921321561,5.1776,0,32,32,32,1,2,only_sub_right.png,3,RandomDot36.png,No answer,20,,,0.7722,,,,,,
,,,,,,,,,,,,,,,,,,,,,,,,,,,,,,,R_5ZUNCbLeFy8Pq4V,1,2024-05-31_12h50.01.367,interaction task,2021.2.3,Win32,60.24096386,120161,,,,,,,,,,,,,,,,,Smaller,Greater,,-0.313323572,-0.518229167,1,0,0,LeftButton,"[""LeftButton""]",,,,,,,,,,,,,,,,,,0,33,33,33,1,5,both_right.png,10,RandomDot42.png,LeftButton,19,,,,,,,,,
,,,,,,,,,,,,,,,,,,,,,,,,,,,,,,,R_5ZUNCbLeFy8Pq4V,1,2024-05-31_12h50.01.367,interaction task,2021.2.3,Win32,60.24096386,120161,,,,,,,,,,,,,,,,,Smaller,Greater,,-0.29136164,-0.53125,1,0,0,LeftButton,"[""LeftButton""]",,,,,,,,,,,,,,,,,,0,34,34,34,1,0,both_right.png,1,RandomDot5.png,No answer,19,,,,,,,,,
,,,,,,,,,,,,,,,,,,,,,,,,,,,,,,,R_5ZUNCbLeFy8Pq4V,1,2024-05-31_12h50.01.367,interaction task,2021.2.3,Win32,60.24096386,120161,,,,,,,,,,,,,,,,,Greater,Smaller,,-0.29136164,-0.53125,1,0,0,LeftButton,"[""LeftButton""]",,,,2.441434846,4.4831,space,0.5644,,,,,,,,,,,0,35,35,35,1,3,only_sub_wrong.png,1,RandomDot1.png,No answer,19,,,,,,,,,
,,,,,,,,,,,,,,,,,,,,,,,,,,,,,,,R_5ZUNCbLeFy8Pq4V,1,2024-05-31_12h50.01.367,interaction task,2021.2.3,Win32,60.24096386,120161,,,,,,,,,,,,,,,,,Smaller,Greater,,-0.294289898,-0.520833333,1,0,0,LeftButton,"[""LeftButton""]",0,2.4767,space,,,,,,,,,,,,,,,0,36,36,36,1,2,only_sub_right.png,0,RandomDot16.png,No answer,21,,1.1015,,,,,,,
,,,,,,,,,,,,,,,,,,,,,,,,,,,,,,,R_5ZUNCbLeFy8Pq4V,1,2024-05-31_12h50.01.367,interaction task,2021.2.3,Win32,60.24096386,120161,,,,,,,,,,,,,,,,,Greater,Smaller,,-0.310395315,-0.510416667,1,0,0,LeftButton,"[""LeftButton""]",4,2.1358,space,,,,,,,,,,,,,,,0,37,37,37,1,3,only_sub_wrong.png,0,RandomDot38.png,No answer,21,,0.8278,,,,,,,
,,,,,,,,,,,,,,,,,,,,,,,,,,,,,,,R_5ZUNCbLeFy8Pq4V,1,2024-05-31_12h50.01.367,interaction task,2021.2.3,Win32,60.24096386,120161,,,,,,,,,,,,,,,,,Smaller,Greater,,-0.339677892,-0.46875,1,0,0,LeftButton,"[""LeftButton""]",,,,,,,,,,,,,83.86722274,30.5177,space,10.51288877,32.1806,0,38,38,38,1,3,only_sub_wrong.png,3,RandomDot18.png,No answer,21,,,0.5389,,,,,,
,,,,,,,,,,,,,,,,,,,,,,,,,,,,,,,R_5ZUNCbLeFy8Pq4V,1,2024-05-31_12h50.01.367,interaction task,2021.2.3,Win32,60.24096386,120161,,,,,,,,,,,,,,,,,Smaller,Greater,,-0.294289898,-0.53125,1,0,0,LeftButton,"[""LeftButton""]",2,15.5344,space,,,,,,,,,,,,,,,0,39,39,39,1,1,both_wrong.png,0,RandomDot14.png,No answer,21,,0.6829,,,,,,,
,,,,,,,,,,,,,,,,,,,,,,,,,,,,,,,R_5ZUNCbLeFy8Pq4V,1,2024-05-31_12h50.01.367,interaction task,2021.2.3,Win32,60.24096386,120161,,,,,,,,,,,,,,,,,Greater,Smaller,,0.285505124,-0.518229167,1,0,0,RightButton,"[""RightButton""]",,,,2.507320644,1.6969,space,0.5151,,,,,,,,,,,0,40,40,40,1,2,only_sub_right.png,1,RandomDot6.png,No answer,21,,,,,,,,,
,,,,,,,,,,,,,,,,,,,,,,,,,,,,,,,R_5ZUNCbLeFy8Pq4V,1,2024-05-31_12h50.01.367,interaction task,2021.2.3,Win32,60.24096386,120161,,,,,,,,,,,,,,,,,Smaller,Greater,,-0.461200586,-0.856770833,0,0,0,,[],,,,,,,,,,,,,,,,,,0,41,41,41,1,3,only_sub_wrong.png,3,RandomDot22.png,No answer,21,,,,188,,,,,
,,,,,,,,,,,,,,,,,,,,,,,,,,,,,,,R_5ZUNCbLeFy8Pq4V,1,2024-05-31_12h50.01.367,interaction task,2021.2.3,Win32,60.24096386,120161,,,,,,,,,,,,,,,,,Smaller,Greater,,-0.330893119,-0.513020833,1,0,0,LeftButton,"[""LeftButton""]",,,,,,,,,,,,,82.09252111,1.9081,space,15.83699366,2.6142,,,,,,3,only_sub_wrong.png,3,RandomDot22.png,No answer,21,,,0.7998,,0,0,0,0,1
