choose_trial,key_resp.keys,key_resp.rt,key_resp_4.keys,key_resp_4.rt,session_trait,slider_face_judge.response,slider_face_judge.rt,key_resp_3.keys,key_resp_3.rt,face_loop.thisRepN,face_loop.thisTrialN,face_loop.thisN,face_loop.thisIndex,face_loop.ran,face_serial,image_name,isCheck,answer,check_question,participant,session,date,expName,psychopyVersion,OS,frameRate,SONAid,session.thisRepN,session.thisTrialN,session.thisN,session.thisIndex,session.ran,session_serial,slider_judge_img
"[0,1,2,3,4,5,6,7,8,9,10,11,12,13,14,15,16,17,18,19,20,21,22,23,24,25,26,27,28,29,30,31,32,33,34,35,36,37,38,39,40,41,42,43,44,45,46,47,48,49,60,58,60]",space,61.1733,space,588.6703,friendly,3.905344828,8.5566,space,7.6043,0,0,0,4,1,5,image/5.jpg,0,0,,R_61d7Su0GZhtK1nx,2,2024-05-26_21h49.35.242,face trait task,2021.2.3,MacIntel,59.88023952,120983,,,,,,,
,,,,,,4.050883621,2.0259,space,1.7176,0,1,1,11,1,12,image/12.jpg,0,0,,R_61d7Su0GZhtK1nx,2,2024-05-26_21h49.35.242,face trait task,2021.2.3,MacIntel,59.88023952,120983,,,,,,,
,,,,,,3.019342672,2.2716,space,1.5179,0,2,2,14,1,15,image/15.jpg,0,0,,R_61d7Su0GZhtK1nx,2,2024-05-26_21h49.35.242,face trait task,2021.2.3,MacIntel,59.88023952,120983,,,,,,,
,,,,,,2.951616379,8.348,space,1.0461,0,3,3,33,1,34,image/34.jpg,0,0,,R_61d7Su0GZhtK1nx,2,2024-05-26_21h49.35.242,face trait task,2021.2.3,MacIntel,59.88023952,120983,,,,,,,
,,,,,,2.032704741,3.9272,space,0.5668,0,4,4,0,1,1,image/1.jpg,0,0,,R_61d7Su0GZhtK1nx,2,2024-05-26_21h49.35.242,face trait task,2021.2.3,MacIntel,59.88023952,120983,,,,,,,
,,,,,,3.134105603,6.8029,space,2.7191,0,5,5,32,1,33,image/33.jpg,0,0,,R_61d7Su0GZhtK1nx,2,2024-05-26_21h49.35.242,face trait task,2021.2.3,MacIntel,59.88023952,120983,,,,,,,
,,,,,,1.107618534,4.44,space,2.2013,0,6,6,36,1,37,image/37.jpg,0,0,,R_61d7Su0GZhtK1nx,2,2024-05-26_21h49.35.242,face trait task,2021.2.3,MacIntel,59.88023952,120983,,,,,,,
,,,,,,1.016099138,1.8998,space,0.3342,0,7,7,45,1,46,image/46.jpg,0,0,,R_61d7Su0GZhtK1nx,2,2024-05-26_21h49.35.242,face trait task,2021.2.3,MacIntel,59.88023952,120983,,,,,,,
,,,,,,1.0215625,2.649,space,0.2238,0,8,8,46,1,47,image/47.jpg,0,0,,R_61d7Su0GZhtK1nx,2,2024-05-26_21h49.35.242,face trait task,2021.2.3,MacIntel,59.88023952,120983,,,,,,,
,,,,,,2.948771552,2.6349,space,2.0845,0,9,9,15,1,16,image/16.jpg,0,0,,R_61d7Su0GZhtK1nx,2,2024-05-26_21h49.35.242,face trait task,2021.2.3,MacIntel,59.88023952,120983,,,,,,,
,,,,,,3.054482759,2.784,space,0.2197,0,10,10,13,1,14,image/14.jpg,0,0,,R_61d7Su0GZhtK1nx,2,2024-05-26_21h49.35.242,face trait task,2021.2.3,MacIntel,59.88023952,120983,,,,,,,
,,,,,,1.073318966,3.6177,space,1.802,0,11,11,19,1,20,image/20.jpg,0,0,,R_61d7Su0GZhtK1nx,2,2024-05-26_21h49.35.242,face trait task,2021.2.3,MacIntel,59.88023952,120983,,,,,,,
,,,,,,4.973706897,2.9663,space,0.4299,0,12,12,18,1,19,image/19.jpg,0,0,,R_61d7Su0GZhtK1nx,2,2024-05-26_21h49.35.242,face trait task,2021.2.3,MacIntel,59.88023952,120983,,,,,,,
,,,,,,1.073609914,1.5543,space,0.2353,0,13,13,42,1,43,image/43.jpg,0,0,,R_61d7Su0GZhtK1nx,2,2024-05-26_21h49.35.242,face trait task,2021.2.3,MacIntel,59.88023952,120983,,,,,,,
,,,,,,6.003663793,2.2651,space,0.4017,0,14,14,17,1,18,image/18.jpg,0,0,,R_61d7Su0GZhtK1nx,2,2024-05-26_21h49.35.242,face trait task,2021.2.3,MacIntel,59.88023952,120983,,,,,,,
,,,,,,2.071821121,3.2245,space,0.323,0,15,15,41,1,42,image/42.jpg,0,0,,R_61d7Su0GZhtK1nx,2,2024-05-26_21h49.35.242,face trait task,2021.2.3,MacIntel,59.88023952,120983,,,,,,,
,,,,,,4.100053879,2.9316,space,0.7548,0,16,16,7,1,8,image/8.jpg,0,0,,R_61d7Su0GZhtK1nx,2,2024-05-26_21h49.35.242,face trait task,2021.2.3,MacIntel,59.88023952,120983,,,,,,,
,,,,,,2.869407328,1.4498,space,0.3752,0,17,17,1,1,2,image/2.jpg,0,0,,R_61d7Su0GZhtK1nx,2,2024-05-26_21h49.35.242,face trait task,2021.2.3,MacIntel,59.88023952,120983,,,,,,,
,,,,,,2.025851293,1.9144,space,0.5392,0,18,18,25,1,26,image/26.jpg,0,0,,R_61d7Su0GZhtK1nx,2,2024-05-26_21h49.35.242,face trait task,2021.2.3,MacIntel,59.88023952,120983,,,,,,,
,,,,,,5.986142241,1.9897,space,0.2014,0,19,19,24,1,25,image/25.jpg,0,0,,R_61d7Su0GZhtK1nx,2,2024-05-26_21h49.35.242,face trait task,2021.2.3,MacIntel,59.88023952,120983,,,,,,,
,,,,,,6.074784483,3.022,space,0.1486,0,20,20,35,1,36,image/36.jpg,0,0,,R_61d7Su0GZhtK1nx,2,2024-05-26_21h49.35.242,face trait task,2021.2.3,MacIntel,59.88023952,120983,,,,,,,
,,,,,,2.953329741,4.6407,space,0.124,0,21,21,10,1,11,image/11.jpg,0,0,,R_61d7Su0GZhtK1nx,2,2024-05-26_21h49.35.242,face trait task,2021.2.3,MacIntel,59.88023952,120983,,,,,,,
,,,,,,2.64799569,5.5007,space,0.8188,0,22,22,43,1,44,image/44.jpg,0,0,,R_61d7Su0GZhtK1nx,2,2024-05-26_21h49.35.242,face trait task,2021.2.3,MacIntel,59.88023952,120983,,,,,,,
,,,,,,6.938836207,2.3139,space,0.1376,0,23,23,20,1,21,image/21.jpg,0,0,,R_61d7Su0GZhtK1nx,2,2024-05-26_21h49.35.242,face trait task,2021.2.3,MacIntel,59.88023952,120983,,,,,,,
,,,,,,3.945689655,2.7305,space,0.6848,0,24,24,12,1,13,image/13.jpg,0,0,,R_61d7Su0GZhtK1nx,2,2024-05-26_21h49.35.242,face trait task,2021.2.3,MacIntel,59.88023952,120983,,,,,,,
,,,,,,1.918394397,3.0226,space,1.0588,0,25,25,40,1,41,image/41.jpg,0,0,,R_61d7Su0GZhtK1nx,2,2024-05-26_21h49.35.242,face trait task,2021.2.3,MacIntel,59.88023952,120983,,,,,,,
,,,,,,5.059310345,2.2032,space,4.1678,0,26,26,6,1,7,image/7.jpg,0,0,,R_61d7Su0GZhtK1nx,2,2024-05-26_21h49.35.242,face trait task,2021.2.3,MacIntel,59.88023952,120983,,,,,,,
,,,,,,1.093168103,3.1868,space,0.5338,0,27,27,29,1,30,image/30.jpg,0,0,,R_61d7Su0GZhtK1nx,2,2024-05-26_21h49.35.242,face trait task,2021.2.3,MacIntel,59.88023952,120983,,,,,,,
,,,,,,2.069461207,2.7442,space,0.2347,0,28,28,27,1,28,image/28.jpg,0,0,,R_61d7Su0GZhtK1nx,2,2024-05-26_21h49.35.242,face trait task,2021.2.3,MacIntel,59.88023952,120983,,,,,,,
,,,,,,1.909989224,2.2831,space,0.3682,0,29,29,16,1,17,image/17.jpg,0,0,,R_61d7Su0GZhtK1nx,2,2024-05-26_21h49.35.242,face trait task,2021.2.3,MacIntel,59.88023952,120983,,,,,,,
,,,,,,6.971034483,2.3696,space,0.168,0,30,30,26,1,27,image/27.jpg,0,0,,R_61d7Su0GZhtK1nx,2,2024-05-26_21h49.35.242,face trait task,2021.2.3,MacIntel,59.88023952,120983,,,,,,,
,,,,,,7,8.024,space,2.6849,0,31,31,52,1,61,image/fill_img.png,1,7,Please move the slider all the way to the RIGHT to show that you are paying attention.,R_61d7Su0GZhtK1nx,2,2024-05-26_21h49.35.242,face trait task,2021.2.3,MacIntel,59.88023952,120983,,,,,,,
,,,,,,1.079881466,48.4697,space,0.4018,0,32,32,48,1,49,image/49.jpg,0,0,,R_61d7Su0GZhtK1nx,2,2024-05-26_21h49.35.242,face trait task,2021.2.3,MacIntel,59.88023952,120983,,,,,,,
,,,,,,2.017219828,2.7425,space,0.3515,0,33,33,31,1,32,image/32.jpg,0,0,,R_61d7Su0GZhtK1nx,2,2024-05-26_21h49.35.242,face trait task,2021.2.3,MacIntel,59.88023952,120983,,,,,,,
,,,,,,1.002974138,3.316,space,0.5567,0,34,34,34,1,35,image/35.jpg,0,0,,R_61d7Su0GZhtK1nx,2,2024-05-26_21h49.35.242,face trait task,2021.2.3,MacIntel,59.88023952,120983,,,,,,,
,,,,,,1.002974138,1.4383,space,1.0075,0,35,35,49,1,50,image/50.jpg,0,0,,R_61d7Su0GZhtK1nx,2,2024-05-26_21h49.35.242,face trait task,2021.2.3,MacIntel,59.88023952,120983,,,,,,,
,,,,,,1.021271552,4.4846,space,0.4861,0,36,36,28,1,29,image/29.jpg,0,0,,R_61d7Su0GZhtK1nx,2,2024-05-26_21h49.35.242,face trait task,2021.2.3,MacIntel,59.88023952,120983,,,,,,,
,,,,,,3.977887931,3.9641,space,0.2467,0,37,37,3,1,4,image/4.jpg,0,0,,R_61d7Su0GZhtK1nx,2,2024-05-26_21h49.35.242,face trait task,2021.2.3,MacIntel,59.88023952,120983,,,,,,,
,,,,,,3.978405172,2.7817,space,0.7085,0,38,38,8,1,9,image/9.jpg,0,0,,R_61d7Su0GZhtK1nx,2,2024-05-26_21h49.35.242,face trait task,2021.2.3,MacIntel,59.88023952,120983,,,,,,,
,,,,,,3.005959052,3.023,space,0.2686,0,39,39,30,1,31,image/31.jpg,0,0,,R_61d7Su0GZhtK1nx,2,2024-05-26_21h49.35.242,face trait task,2021.2.3,MacIntel,59.88023952,120983,,,,,,,
,,,,,,4.909310345,4.3707,space,0.2402,0,40,40,21,1,22,image/22.jpg,0,0,,R_61d7Su0GZhtK1nx,2,2024-05-26_21h49.35.242,face trait task,2021.2.3,MacIntel,59.88023952,120983,,,,,,,
,,,,,,6.940840517,6.5284,space,8.2179,0,41,41,22,1,23,image/23.jpg,0,0,,R_61d7Su0GZhtK1nx,2,2024-05-26_21h49.35.242,face trait task,2021.2.3,MacIntel,59.88023952,120983,,,,,,,
,,,,,,1.990517241,2.255,space,3.8021,0,42,42,44,1,45,image/45.jpg,0,0,,R_61d7Su0GZhtK1nx,2,2024-05-26_21h49.35.242,face trait task,2021.2.3,MacIntel,59.88023952,120983,,,,,,,
,,,,,,6.995215517,5.7425,space,3.2341,0,43,43,50,1,61,image/fill_img.png,1,7,Please move the slider all the way to the RIGHT to show that you are paying attention.,R_61d7Su0GZhtK1nx,2,2024-05-26_21h49.35.242,face trait task,2021.2.3,MacIntel,59.88023952,120983,,,,,,,
,,,,,,4.976713362,5.8547,space,3.5861,0,44,44,38,1,39,image/39.jpg,0,0,,R_61d7Su0GZhtK1nx,2,2024-05-26_21h49.35.242,face trait task,2021.2.3,MacIntel,59.88023952,120983,,,,,,,
,,,,,,6.019278017,4.6659,space,2.5579,0,45,45,37,1,38,image/38.jpg,0,0,,R_61d7Su0GZhtK1nx,2,2024-05-26_21h49.35.242,face trait task,2021.2.3,MacIntel,59.88023952,120983,,,,,,,
,,,,,,6.978793103,3.4865,space,0.5364,0,46,46,2,1,3,image/3.jpg,0,0,,R_61d7Su0GZhtK1nx,2,2024-05-26_21h49.35.242,face trait task,2021.2.3,MacIntel,59.88023952,120983,,,,,,,
,,,,,,3.965571121,9.2758,space,6.9463,0,47,47,47,1,48,image/48.jpg,0,0,,R_61d7Su0GZhtK1nx,2,2024-05-26_21h49.35.242,face trait task,2021.2.3,MacIntel,59.88023952,120983,,,,,,,
,,,,,,1.034913793,4.2803,space,0.5512,0,48,48,39,1,40,image/40.jpg,0,0,,R_61d7Su0GZhtK1nx,2,2024-05-26_21h49.35.242,face trait task,2021.2.3,MacIntel,59.88023952,120983,,,,,,,
,,,,,,6.992079741,3.2406,space,1.1344,0,49,49,23,1,24,image/24.jpg,0,0,,R_61d7Su0GZhtK1nx,2,2024-05-26_21h49.35.242,face trait task,2021.2.3,MacIntel,59.88023952,120983,,,,,,,
,,,,,,5.947575431,4.0241,space,0.5686,0,50,50,9,1,10,image/10.jpg,0,0,,R_61d7Su0GZhtK1nx,2,2024-05-26_21h49.35.242,face trait task,2021.2.3,MacIntel,59.88023952,120983,,,,,,,
,,,,,,6.998480603,17.0986,space,3.0167,0,51,51,51,1,59,image/fill_img.png,1,7,Please move the slider all the way to the RIGHT to show that you are paying attention.,R_61d7Su0GZhtK1nx,2,2024-05-26_21h49.35.242,face trait task,2021.2.3,MacIntel,59.88023952,120983,,,,,,,
,,,,,,3.991853448,2.9827,space,1.9688,0,52,52,5,1,6,image/6.jpg,0,0,,R_61d7Su0GZhtK1nx,2,2024-05-26_21h49.35.242,face trait task,2021.2.3,MacIntel,59.88023952,120983,,,,,,,
,,,,,,,,,,,,,,,,,,,,R_61d7Su0GZhtK1nx,2,2024-05-26_21h49.35.242,face trait task,2021.2.3,MacIntel,59.88023952,120983,0,0,0,3,1,3,friendly.png
,,,,,trustworthy,1.982435345,8.2343,space,3.5842,0,0,0,29,1,30,image/30.jpg,0,0,,R_61d7Su0GZhtK1nx,2,2024-05-26_21h49.35.242,face trait task,2021.2.3,MacIntel,59.88023952,120983,,,,,,,
,,,,,,4.061099138,2.9217,space,0.4566,0,1,1,11,1,12,image/12.jpg,0,0,,R_61d7Su0GZhtK1nx,2,2024-05-26_21h49.35.242,face trait task,2021.2.3,MacIntel,59.88023952,120983,,,,,,,
,,,,,,2.931282328,2.2657,space,3.8344,0,2,2,36,1,37,image/37.jpg,0,0,,R_61d7Su0GZhtK1nx,2,2024-05-26_21h49.35.242,face trait task,2021.2.3,MacIntel,59.88023952,120983,,,,,,,
,,,,,,4.933265086,5.0056,space,0.8023,0,3,3,37,1,38,image/38.jpg,0,0,,R_61d7Su0GZhtK1nx,2,2024-05-26_21h49.35.242,face trait task,2021.2.3,MacIntel,59.88023952,120983,,,,,,,
,,,,,,6.977758621,3.1881,space,0.6114,0,4,4,4,1,5,image/5.jpg,0,0,,R_61d7Su0GZhtK1nx,2,2024-05-26_21h49.35.242,face trait task,2021.2.3,MacIntel,59.88023952,120983,,,,,,,
,,,,,,6.988329741,4.9973,space,0.5362,0,5,5,52,1,61,image/fill_img.png,1,7,Please move the slider all the way to the RIGHT to show that you are paying attention.,R_61d7Su0GZhtK1nx,2,2024-05-26_21h49.35.242,face trait task,2021.2.3,MacIntel,59.88023952,120983,,,,,,,
,,,,,,3.943071121,1.9839,space,0.6726,0,6,6,41,1,42,image/42.jpg,0,0,,R_61d7Su0GZhtK1nx,2,2024-05-26_21h49.35.242,face trait task,2021.2.3,MacIntel,59.88023952,120983,,,,,,,
,,,,,,2.035711207,3.0682,space,0.2001,0,7,7,7,1,8,image/8.jpg,0,0,,R_61d7Su0GZhtK1nx,2,2024-05-26_21h49.35.242,face trait task,2021.2.3,MacIntel,59.88023952,120983,,,,,,,
,,,,,,6.965991379,9.0089,space,0.3854,0,8,8,22,1,23,image/23.jpg,0,0,,R_61d7Su0GZhtK1nx,2,2024-05-26_21h49.35.242,face trait task,2021.2.3,MacIntel,59.88023952,120983,,,,,,,
,,,,,,1.882510776,2.6317,space,0.7859,0,9,9,45,1,46,image/46.jpg,0,0,,R_61d7Su0GZhtK1nx,2,2024-05-26_21h49.35.242,face trait task,2021.2.3,MacIntel,59.88023952,120983,,,,,,,
,,,,,,5.05362069,3.3639,space,0.2707,0,10,10,23,1,24,image/24.jpg,0,0,,R_61d7Su0GZhtK1nx,2,2024-05-26_21h49.35.242,face trait task,2021.2.3,MacIntel,59.88023952,120983,,,,,,,
,,,,,,1.030096983,3.1992,space,0.3342,0,11,11,8,1,9,image/9.jpg,0,0,,R_61d7Su0GZhtK1nx,2,2024-05-26_21h49.35.242,face trait task,2021.2.3,MacIntel,59.88023952,120983,,,,,,,
,,,,,,6.998060345,3.4533,space,0.4089,0,12,12,50,1,61,image/fill_img.png,1,7,Please move the slider all the way to the RIGHT to show that you are paying attention.,R_61d7Su0GZhtK1nx,2,2024-05-26_21h49.35.242,face trait task,2021.2.3,MacIntel,59.88023952,120983,,,,,,,
,,,,,,1.073060345,3.4725,space,0.6815,0,13,13,30,1,31,image/31.jpg,0,0,,R_61d7Su0GZhtK1nx,2,2024-05-26_21h49.35.242,face trait task,2021.2.3,MacIntel,59.88023952,120983,,,,,,,
,,,,,,1.028577586,3.9906,space,0.2518,0,14,14,16,1,17,image/17.jpg,0,0,,R_61d7Su0GZhtK1nx,2,2024-05-26_21h49.35.242,face trait task,2021.2.3,MacIntel,59.88023952,120983,,,,,,,
,,,,,,1.047424569,2.1741,space,0.2343,0,15,15,18,1,19,image/19.jpg,0,0,,R_61d7Su0GZhtK1nx,2,2024-05-26_21h49.35.242,face trait task,2021.2.3,MacIntel,59.88023952,120983,,,,,,,
,,,,,,1.014773707,4.2717,space,0.0793,0,16,16,2,1,3,image/3.jpg,0,0,,R_61d7Su0GZhtK1nx,2,2024-05-26_21h49.35.242,face trait task,2021.2.3,MacIntel,59.88023952,120983,,,,,,,
,,,,,,1.012704741,7.5211,space,5.7656,0,17,17,48,1,49,image/49.jpg,0,0,,R_61d7Su0GZhtK1nx,2,2024-05-26_21h49.35.242,face trait task,2021.2.3,MacIntel,59.88023952,120983,,,,,,,
,,,,,,1.038987069,1.5549,space,2.7849,0,18,18,20,1,21,image/21.jpg,0,0,,R_61d7Su0GZhtK1nx,2,2024-05-26_21h49.35.242,face trait task,2021.2.3,MacIntel,59.88023952,120983,,,,,,,
,,,,,,1.027963362,3.2978,space,0.4517,0,19,19,49,1,50,image/50.jpg,0,0,,R_61d7Su0GZhtK1nx,2,2024-05-26_21h49.35.242,face trait task,2021.2.3,MacIntel,59.88023952,120983,,,,,,,
,,,,,,1.020140086,2.6018,space,0.1189,0,20,20,46,1,47,image/47.jpg,0,0,,R_61d7Su0GZhtK1nx,2,2024-05-26_21h49.35.242,face trait task,2021.2.3,MacIntel,59.88023952,120983,,,,,,,
,,,,,,3.017015086,1.363,space,0.7565,0,21,21,31,1,32,image/32.jpg,0,0,,R_61d7Su0GZhtK1nx,2,2024-05-26_21h49.35.242,face trait task,2021.2.3,MacIntel,59.88023952,120983,,,,,,,
,,,,,,1.031713362,1.7892,space,0.1313,0,22,22,42,1,43,image/43.jpg,0,0,,R_61d7Su0GZhtK1nx,2,2024-05-26_21h49.35.242,face trait task,2021.2.3,MacIntel,59.88023952,120983,,,,,,,
,,,,,,6.01481681,4.9934,space,0.1831,0,23,23,33,1,34,image/34.jpg,0,0,,R_61d7Su0GZhtK1nx,2,2024-05-26_21h49.35.242,face trait task,2021.2.3,MacIntel,59.88023952,120983,,,,,,,
,,,,,,1.0384375,5.2628,space,4.3016,0,24,24,34,1,35,image/35.jpg,0,0,,R_61d7Su0GZhtK1nx,2,2024-05-26_21h49.35.242,face trait task,2021.2.3,MacIntel,59.88023952,120983,,,,,,,
,,,,,,2.017834052,2.2071,space,0.149,0,25,25,21,1,22,image/22.jpg,0,0,,R_61d7Su0GZhtK1nx,2,2024-05-26_21h49.35.242,face trait task,2021.2.3,MacIntel,59.88023952,120983,,,,,,,
,,,,,,1.009795259,2.0206,space,0.2048,0,26,26,1,1,2,image/2.jpg,0,0,,R_61d7Su0GZhtK1nx,2,2024-05-26_21h49.35.242,face trait task,2021.2.3,MacIntel,59.88023952,120983,,,,,,,
,,,,,,3.956487069,3.6753,space,0.3379,0,27,27,13,1,14,image/14.jpg,0,0,,R_61d7Su0GZhtK1nx,2,2024-05-26_21h49.35.242,face trait task,2021.2.3,MacIntel,59.88023952,120983,,,,,,,
,,,,,,2.011174569,2.6646,space,0.1349,0,28,28,44,1,45,image/45.jpg,0,0,,R_61d7Su0GZhtK1nx,2,2024-05-26_21h49.35.242,face trait task,2021.2.3,MacIntel,59.88023952,120983,,,,,,,
,,,,,,2.964709052,2.6716,space,0.4024,0,29,29,10,1,11,image/11.jpg,0,0,,R_61d7Su0GZhtK1nx,2,2024-05-26_21h49.35.242,face trait task,2021.2.3,MacIntel,59.88023952,120983,,,,,,,
,,,,,,6.94856681,3.4247,space,0.2244,0,30,30,43,1,44,image/44.jpg,0,0,,R_61d7Su0GZhtK1nx,2,2024-05-26_21h49.35.242,face trait task,2021.2.3,MacIntel,59.88023952,120983,,,,,,,
,,,,,,5.986950431,3.3158,space,0.1526,0,31,31,9,1,10,image/10.jpg,0,0,,R_61d7Su0GZhtK1nx,2,2024-05-26_21h49.35.242,face trait task,2021.2.3,MacIntel,59.88023952,120983,,,,,,,
,,,,,,1.012672414,2.6539,space,0.1512,0,32,32,47,1,48,image/48.jpg,0,0,,R_61d7Su0GZhtK1nx,2,2024-05-26_21h49.35.242,face trait task,2021.2.3,MacIntel,59.88023952,120983,,,,,,,
,,,,,,6.965959052,4.9819,space,3.3208,0,33,33,17,1,18,image/18.jpg,0,0,,R_61d7Su0GZhtK1nx,2,2024-05-26_21h49.35.242,face trait task,2021.2.3,MacIntel,59.88023952,120983,,,,,,,
,,,,,,2.011982759,1.8894,space,0.1844,0,34,34,38,1,39,image/39.jpg,0,0,,R_61d7Su0GZhtK1nx,2,2024-05-26_21h49.35.242,face trait task,2021.2.3,MacIntel,59.88023952,120983,,,,,,,
,,,,,,3.996734914,2.1476,space,0.4849,0,35,35,39,1,40,image/40.jpg,0,0,,R_61d7Su0GZhtK1nx,2,2024-05-26_21h49.35.242,face trait task,2021.2.3,MacIntel,59.88023952,120983,,,,,,,
,,,,,,3.996734914,1.5903,space,0.1318,0,36,36,19,1,20,image/20.jpg,0,0,,R_61d7Su0GZhtK1nx,2,2024-05-26_21h49.35.242,face trait task,2021.2.3,MacIntel,59.88023952,120983,,,,,,,
,,,,,,4.990161638,3.0397,space,0.1309,0,37,37,25,1,26,image/26.jpg,0,0,,R_61d7Su0GZhtK1nx,2,2024-05-26_21h49.35.242,face trait task,2021.2.3,MacIntel,59.88023952,120983,,,,,,,
,,,,,,6.988265086,7.5383,space,5.6182,0,38,38,32,1,33,image/33.jpg,0,0,,R_61d7Su0GZhtK1nx,2,2024-05-26_21h49.35.242,face trait task,2021.2.3,MacIntel,59.88023952,120983,,,,,,,
,,,,,,6.953836207,3.2984,space,0.4209,0,39,39,35,1,36,image/36.jpg,0,0,,R_61d7Su0GZhtK1nx,2,2024-05-26_21h49.35.242,face trait task,2021.2.3,MacIntel,59.88023952,120983,,,,,,,
,,,,,,6.953836207,1.8006,space,0.9121,0,40,40,15,1,16,image/16.jpg,0,0,,R_61d7Su0GZhtK1nx,2,2024-05-26_21h49.35.242,face trait task,2021.2.3,MacIntel,59.88023952,120983,,,,,,,
,,,,,,1.006109914,4.9329,space,3.8554,0,41,41,6,1,7,image/7.jpg,0,0,,R_61d7Su0GZhtK1nx,2,2024-05-26_21h49.35.242,face trait task,2021.2.3,MacIntel,59.88023952,120983,,,,,,,
,,,,,,1.946357759,2.547,space,0.2099,0,42,42,26,1,27,image/27.jpg,0,0,,R_61d7Su0GZhtK1nx,2,2024-05-26_21h49.35.242,face trait task,2021.2.3,MacIntel,59.88023952,120983,,,,,,,
,,,,,,6.998286638,3.3572,space,0.2512,0,43,43,51,1,59,image/fill_img.png,1,7,Please move the slider all the way to the RIGHT to show that you are paying attention.,R_61d7Su0GZhtK1nx,2,2024-05-26_21h49.35.242,face trait task,2021.2.3,MacIntel,59.88023952,120983,,,,,,,
,,,,,,1.036400862,3.2488,space,0.1857,0,44,44,27,1,28,image/28.jpg,0,0,,R_61d7Su0GZhtK1nx,2,2024-05-26_21h49.35.242,face trait task,2021.2.3,MacIntel,59.88023952,120983,,,,,,,
,,,,,,2.022618534,3.2598,space,0.1817,0,45,45,12,1,13,image/13.jpg,0,0,,R_61d7Su0GZhtK1nx,2,2024-05-26_21h49.35.242,face trait task,2021.2.3,MacIntel,59.88023952,120983,,,,,,,
,,,,,,2.022618534,2.6545,space,0.3679,0,46,46,0,1,1,image/1.jpg,0,0,,R_61d7Su0GZhtK1nx,2,2024-05-26_21h49.35.242,face trait task,2021.2.3,MacIntel,59.88023952,120983,,,,,,,
,,,,,,2.022618534,1.407,space,0.1702,0,47,47,24,1,25,image/25.jpg,0,0,,R_61d7Su0GZhtK1nx,2,2024-05-26_21h49.35.242,face trait task,2021.2.3,MacIntel,59.88023952,120983,,,,,,,
,,,,,,2.022618534,1.331,space,0.1233,0,48,48,28,1,29,image/29.jpg,0,0,,R_61d7Su0GZhtK1nx,2,2024-05-26_21h49.35.242,face trait task,2021.2.3,MacIntel,59.88023952,120983,,,,,,,
,,,,,,1.037338362,6.427,space,0.1074,0,49,49,40,1,41,image/41.jpg,0,0,,R_61d7Su0GZhtK1nx,2,2024-05-26_21h49.35.242,face trait task,2021.2.3,MacIntel,59.88023952,120983,,,,,,,
,,,,,,6.005862069,4.459,space,0.1676,0,50,50,5,1,6,image/6.jpg,0,0,,R_61d7Su0GZhtK1nx,2,2024-05-26_21h49.35.242,face trait task,2021.2.3,MacIntel,59.88023952,120983,,,,,,,
,,,,,,6.984224138,3.2927,space,0.4177,0,51,51,3,1,4,image/4.jpg,0,0,,R_61d7Su0GZhtK1nx,2,2024-05-26_21h49.35.242,face trait task,2021.2.3,MacIntel,59.88023952,120983,,,,,,,
,,,,,,1.050948276,2.5693,space,0.1503,0,52,52,14,1,15,image/15.jpg,0,0,,R_61d7Su0GZhtK1nx,2,2024-05-26_21h49.35.242,face trait task,2021.2.3,MacIntel,59.88023952,120983,,,,,,,
,,,,,,,,,,,,,,,,,,,,R_61d7Su0GZhtK1nx,2,2024-05-26_21h49.35.242,face trait task,2021.2.3,MacIntel,59.88023952,120983,0,1,1,2,1,2,trustworthy.png
,,,,,critical,3.969450431,3.0779,space,0.6892,0,0,0,16,1,17,image/17.jpg,0,0,,R_61d7Su0GZhtK1nx,2,2024-05-26_21h49.35.242,face trait task,2021.2.3,MacIntel,59.88023952,120983,,,,,,,
,,,,,,1.028868534,4.156,space,0.4442,0,1,1,13,1,14,image/14.jpg,0,0,,R_61d7Su0GZhtK1nx,2,2024-05-26_21h49.35.242,face trait task,2021.2.3,MacIntel,59.88023952,120983,,,,,,,
,,,,,,1.071896552,1.7987,space,0.239,0,2,2,18,1,19,image/19.jpg,0,0,,R_61d7Su0GZhtK1nx,2,2024-05-26_21h49.35.242,face trait task,2021.2.3,MacIntel,59.88023952,120983,,,,,,,
,,,,,,2.984364224,2.314,space,0.1653,0,3,3,12,1,13,image/13.jpg,0,0,,R_61d7Su0GZhtK1nx,2,2024-05-26_21h49.35.242,face trait task,2021.2.3,MacIntel,59.88023952,120983,,,,,,,
,,,,,,1.05544181,3.6916,space,0.2339,0,4,4,23,1,24,image/24.jpg,0,0,,R_61d7Su0GZhtK1nx,2,2024-05-26_21h49.35.242,face trait task,2021.2.3,MacIntel,59.88023952,120983,,,,,,,
,,,,,,5.987532328,3.4983,space,0.3857,0,5,5,17,1,18,image/18.jpg,0,0,,R_61d7Su0GZhtK1nx,2,2024-05-26_21h49.35.242,face trait task,2021.2.3,MacIntel,59.88023952,120983,,,,,,,
,,,,,,1.062036638,2.8309,space,0.3348,0,6,6,7,1,8,image/8.jpg,0,0,,R_61d7Su0GZhtK1nx,2,2024-05-26_21h49.35.242,face trait task,2021.2.3,MacIntel,59.88023952,120983,,,,,,,
,,,,,,6.980959052,2.1895,space,0.5863,0,7,7,29,1,30,image/30.jpg,0,0,,R_61d7Su0GZhtK1nx,2,2024-05-26_21h49.35.242,face trait task,2021.2.3,MacIntel,59.88023952,120983,,,,,,,
,,,,,,6.980959052,1.4077,space,0.3172,0,8,8,50,1,61,image/fill_img.png,1,7,Please move the slider all the way to the RIGHT to show that you are paying attention.,R_61d7Su0GZhtK1nx,2,2024-05-26_21h49.35.242,face trait task,2021.2.3,MacIntel,59.88023952,120983,,,,,,,
,,,,,,4.909989224,2.2933,space,0.3676,0,9,9,4,1,5,image/5.jpg,0,0,,R_61d7Su0GZhtK1nx,2,2024-05-26_21h49.35.242,face trait task,2021.2.3,MacIntel,59.88023952,120983,,,,,,,
,,,,,,6.986939655,2.0498,space,0.3692,0,10,10,51,1,59,image/fill_img.png,1,7,Please move the slider all the way to the RIGHT to show that you are paying attention.,R_61d7Su0GZhtK1nx,2,2024-05-26_21h49.35.242,face trait task,2021.2.3,MacIntel,59.88023952,120983,,,,,,,
,,,,,,3.964084052,3.0036,space,0.0902,0,11,11,36,1,37,image/37.jpg,0,0,,R_61d7Su0GZhtK1nx,2,2024-05-26_21h49.35.242,face trait task,2021.2.3,MacIntel,59.88023952,120983,,,,,,,
,,,,,,4.982338362,4.2646,space,2.6333,0,12,12,22,1,23,image/23.jpg,0,0,,R_61d7Su0GZhtK1nx,2,2024-05-26_21h49.35.242,face trait task,2021.2.3,MacIntel,59.88023952,120983,,,,,,,
,,,,,,5.983297414,3.1144,space,0.9698,0,13,13,37,1,38,image/38.jpg,0,0,,R_61d7Su0GZhtK1nx,2,2024-05-26_21h49.35.242,face trait task,2021.2.3,MacIntel,59.88023952,120983,,,,,,,
,,,,,,2.00862069,2.266,space,0.9183,0,14,14,6,1,7,image/7.jpg,0,0,,R_61d7Su0GZhtK1nx,2,2024-05-26_21h49.35.242,face trait task,2021.2.3,MacIntel,59.88023952,120983,,,,,,,
,,,,,,3.101357759,1.9325,space,0.3223,0,15,15,48,1,49,image/49.jpg,0,0,,R_61d7Su0GZhtK1nx,2,2024-05-26_21h49.35.242,face trait task,2021.2.3,MacIntel,59.88023952,120983,,,,,,,
,,,,,,5.99112069,3.3721,space,0.1689,0,16,16,15,1,16,image/16.jpg,0,0,,R_61d7Su0GZhtK1nx,2,2024-05-26_21h49.35.242,face trait task,2021.2.3,MacIntel,59.88023952,120983,,,,,,,
,,,,,,6.981637931,2.2404,space,1.0179,0,17,17,52,1,61,image/fill_img.png,1,7,Please move the slider all the way to the RIGHT to show that you are paying attention.,R_61d7Su0GZhtK1nx,2,2024-05-26_21h49.35.242,face trait task,2021.2.3,MacIntel,59.88023952,120983,,,,,,,
,,,,,,6.985290948,4.9765,space,0.3005,0,18,18,3,1,4,image/4.jpg,0,0,,R_61d7Su0GZhtK1nx,2,2024-05-26_21h49.35.242,face trait task,2021.2.3,MacIntel,59.88023952,120983,,,,,,,
,,,,,,6.985290948,1.2017,space,0.1863,0,19,19,25,1,26,image/26.jpg,0,0,,R_61d7Su0GZhtK1nx,2,2024-05-26_21h49.35.242,face trait task,2021.2.3,MacIntel,59.88023952,120983,,,,,,,
,,,,,,1.05237069,7.8718,space,6.6044,0,20,20,9,1,10,image/10.jpg,0,0,,R_61d7Su0GZhtK1nx,2,2024-05-26_21h49.35.242,face trait task,2021.2.3,MacIntel,59.88023952,120983,,,,,,,
,,,,,,1.009084052,4.7302,space,1.0814,0,21,21,20,1,21,image/21.jpg,0,0,,R_61d7Su0GZhtK1nx,2,2024-05-26_21h49.35.242,face trait task,2021.2.3,MacIntel,59.88023952,120983,,,,,,,
,,,,,,4.055668103,3.1816,space,1.2698,0,22,22,35,1,36,image/36.jpg,0,0,,R_61d7Su0GZhtK1nx,2,2024-05-26_21h49.35.242,face trait task,2021.2.3,MacIntel,59.88023952,120983,,,,,,,
,,,,,,6.994439655,2.726,space,0.4513,0,23,23,1,1,2,image/2.jpg,0,0,,R_61d7Su0GZhtK1nx,2,2024-05-26_21h49.35.242,face trait task,2021.2.3,MacIntel,59.88023952,120983,,,,,,,
,,,,,,6.036637931,4.4721,space,0.1831,0,24,24,41,1,42,image/42.jpg,0,0,,R_61d7Su0GZhtK1nx,2,2024-05-26_21h49.35.242,face trait task,2021.2.3,MacIntel,59.88023952,120983,,,,,,,
,,,,,,6.036637931,1.9584,space,0.9852,0,25,25,19,1,20,image/20.jpg,0,0,,R_61d7Su0GZhtK1nx,2,2024-05-26_21h49.35.242,face trait task,2021.2.3,MacIntel,59.88023952,120983,,,,,,,
,,,,,,4.028512931,2.2815,space,0.5031,0,26,26,38,1,39,image/39.jpg,0,0,,R_61d7Su0GZhtK1nx,2,2024-05-26_21h49.35.242,face trait task,2021.2.3,MacIntel,59.88023952,120983,,,,,,,
,,,,,,4.028512931,1.9169,space,1.4013,0,27,27,46,1,47,image/47.jpg,0,0,,R_61d7Su0GZhtK1nx,2,2024-05-26_21h49.35.242,face trait task,2021.2.3,MacIntel,59.88023952,120983,,,,,,,
,,,,,,2.016153017,3.27,space,1.4385,0,28,28,2,1,3,image/3.jpg,0,0,,R_61d7Su0GZhtK1nx,2,2024-05-26_21h49.35.242,face trait task,2021.2.3,MacIntel,59.88023952,120983,,,,,,,
,,,,,,1.991713362,2.7576,space,0.2836,0,29,29,24,1,25,image/25.jpg,0,0,,R_61d7Su0GZhtK1nx,2,2024-05-26_21h49.35.242,face trait task,2021.2.3,MacIntel,59.88023952,120983,,,,,,,
,,,,,,2.006713362,1.9325,space,0.2023,0,30,30,45,1,46,image/46.jpg,0,0,,R_61d7Su0GZhtK1nx,2,2024-05-26_21h49.35.242,face trait task,2021.2.3,MacIntel,59.88023952,120983,,,,,,,
,,,,,,6.942618534,3.6147,space,0.6844,0,31,31,30,1,31,image/31.jpg,0,0,,R_61d7Su0GZhtK1nx,2,2024-05-26_21h49.35.242,face trait task,2021.2.3,MacIntel,59.88023952,120983,,,,,,,
,,,,,,6.974202586,4.81,space,1.3396,0,32,32,44,1,45,image/45.jpg,0,0,,R_61d7Su0GZhtK1nx,2,2024-05-26_21h49.35.242,face trait task,2021.2.3,MacIntel,59.88023952,120983,,,,,,,
,,,,,,6.974202586,1.319,space,0.7184,0,33,33,8,1,9,image/9.jpg,0,0,,R_61d7Su0GZhtK1nx,2,2024-05-26_21h49.35.242,face trait task,2021.2.3,MacIntel,59.88023952,120983,,,,,,,
,,,,,,6.933793103,4.0839,space,0.6857,0,34,34,39,1,40,image/40.jpg,0,0,,R_61d7Su0GZhtK1nx,2,2024-05-26_21h49.35.242,face trait task,2021.2.3,MacIntel,59.88023952,120983,,,,,,,
,,,,,,2.053717672,2.9471,space,0.335,0,35,35,33,1,34,image/34.jpg,0,0,,R_61d7Su0GZhtK1nx,2,2024-05-26_21h49.35.242,face trait task,2021.2.3,MacIntel,59.88023952,120983,,,,,,,
,,,,,,6.99330819,3.5755,space,0.1174,0,36,36,42,1,43,image/43.jpg,0,0,,R_61d7Su0GZhtK1nx,2,2024-05-26_21h49.35.242,face trait task,2021.2.3,MacIntel,59.88023952,120983,,,,,,,
,,,,,,6.99330819,1.9221,space,0.4143,0,37,37,10,1,11,image/11.jpg,0,0,,R_61d7Su0GZhtK1nx,2,2024-05-26_21h49.35.242,face trait task,2021.2.3,MacIntel,59.88023952,120983,,,,,,,
,,,,,,6.123340517,9.3276,space,6.1681,0,38,38,14,1,15,image/15.jpg,0,0,,R_61d7Su0GZhtK1nx,2,2024-05-26_21h49.35.242,face trait task,2021.2.3,MacIntel,59.88023952,120983,,,,,,,
,,,,,,5.99125,1.2677,space,4.4222,0,39,39,43,1,44,image/44.jpg,0,0,,R_61d7Su0GZhtK1nx,2,2024-05-26_21h49.35.242,face trait task,2021.2.3,MacIntel,59.88023952,120983,,,,,,,
,,,,,,5.99125,3.6833,space,0.6034,0,40,40,31,1,32,image/32.jpg,0,0,,R_61d7Su0GZhtK1nx,2,2024-05-26_21h49.35.242,face trait task,2021.2.3,MacIntel,59.88023952,120983,,,,,,,
,,,,,,6.954903017,2.798,space,0.4349,0,41,41,27,1,28,image/28.jpg,0,0,,R_61d7Su0GZhtK1nx,2,2024-05-26_21h49.35.242,face trait task,2021.2.3,MacIntel,59.88023952,120983,,,,,,,
,,,,,,1.001163793,3.4811,space,0.3489,0,42,42,49,1,50,image/50.jpg,0,0,,R_61d7Su0GZhtK1nx,2,2024-05-26_21h49.35.242,face trait task,2021.2.3,MacIntel,59.88023952,120983,,,,,,,
,,,,,,4.044612069,80.7572,space,0.9076,0,43,43,0,1,1,image/1.jpg,0,0,,R_61d7Su0GZhtK1nx,2,2024-05-26_21h49.35.242,face trait task,2021.2.3,MacIntel,59.88023952,120983,,,,,,,
,,,,,,1.016002155,5.3695,space,0.5816,0,44,44,11,1,12,image/12.jpg,0,0,,R_61d7Su0GZhtK1nx,2,2024-05-26_21h49.35.242,face trait task,2021.2.3,MacIntel,59.88023952,120983,,,,,,,
,,,,,,6.846443966,3.7939,space,0.4572,0,45,45,21,1,22,image/22.jpg,0,0,,R_61d7Su0GZhtK1nx,2,2024-05-26_21h49.35.242,face trait task,2021.2.3,MacIntel,59.88023952,120983,,,,,,,
,,,,,,1.064073276,1.5421,space,0.1503,0,46,46,32,1,33,image/33.jpg,0,0,,R_61d7Su0GZhtK1nx,2,2024-05-26_21h49.35.242,face trait task,2021.2.3,MacIntel,59.88023952,120983,,,,,,,
,,,,,,5.016508621,3.2558,space,0.1097,0,47,47,26,1,27,image/27.jpg,0,0,,R_61d7Su0GZhtK1nx,2,2024-05-26_21h49.35.242,face trait task,2021.2.3,MacIntel,59.88023952,120983,,,,,,,
,,,,,,6.972295259,5.6982,space,1.2048,0,48,48,28,1,29,image/29.jpg,0,0,,R_61d7Su0GZhtK1nx,2,2024-05-26_21h49.35.242,face trait task,2021.2.3,MacIntel,59.88023952,120983,,,,,,,
,,,,,,2.15512931,2.7983,space,0.8883,0,49,49,5,1,6,image/6.jpg,0,0,,R_61d7Su0GZhtK1nx,2,2024-05-26_21h49.35.242,face trait task,2021.2.3,MacIntel,59.88023952,120983,,,,,,,
,,,,,,1,1.2905,space,0.768,0,50,50,40,1,41,image/41.jpg,0,0,,R_61d7Su0GZhtK1nx,2,2024-05-26_21h49.35.242,face trait task,2021.2.3,MacIntel,59.88023952,120983,,,,,,,
,,,,,,6.950635776,4.2312,space,0.0979,0,51,51,34,1,35,image/35.jpg,0,0,,R_61d7Su0GZhtK1nx,2,2024-05-26_21h49.35.242,face trait task,2021.2.3,MacIntel,59.88023952,120983,,,,,,,
,,,,,,5.971821121,2.6327,space,1.207,0,52,52,47,1,48,image/48.jpg,0,0,,R_61d7Su0GZhtK1nx,2,2024-05-26_21h49.35.242,face trait task,2021.2.3,MacIntel,59.88023952,120983,,,,,,,
,,,,,,,,,,,,,,,,,,,,R_61d7Su0GZhtK1nx,2,2024-05-26_21h49.35.242,face trait task,2021.2.3,MacIntel,59.88023952,120983,0,2,2,0,1,0,critical.png
,,,,,competent,4.017844828,127.6595,space,0.4584,0,0,0,10,1,11,image/11.jpg,0,0,,R_61d7Su0GZhtK1nx,2,2024-05-26_21h49.35.242,face trait task,2021.2.3,MacIntel,59.88023952,120983,,,,,,,
,,,,,,4.015872845,0.949,space,0.1866,0,1,1,26,1,27,image/27.jpg,0,0,,R_61d7Su0GZhtK1nx,2,2024-05-26_21h49.35.242,face trait task,2021.2.3,MacIntel,59.88023952,120983,,,,,,,
,,,,,,6.979375,2.4635,space,0.7186,0,2,2,51,1,59,image/fill_img.png,1,7,Please move the slider all the way to the RIGHT to show that you are paying attention.,R_61d7Su0GZhtK1nx,2,2024-05-26_21h49.35.242,face trait task,2021.2.3,MacIntel,59.88023952,120983,,,,,,,
,,,,,,3.032241379,6.6688,space,4.4718,0,3,3,15,1,16,image/16.jpg,0,0,,R_61d7Su0GZhtK1nx,2,2024-05-26_21h49.35.242,face trait task,2021.2.3,MacIntel,59.88023952,120983,,,,,,,
,,,,,,6.091853448,3.3212,space,0.477,0,4,4,19,1,20,image/20.jpg,0,0,,R_61d7Su0GZhtK1nx,2,2024-05-26_21h49.35.242,face trait task,2021.2.3,MacIntel,59.88023952,120983,,,,,,,
,,,,,,6.989073276,2.1555,space,0.2984,0,5,5,12,1,13,image/13.jpg,0,0,,R_61d7Su0GZhtK1nx,2,2024-05-26_21h49.35.242,face trait task,2021.2.3,MacIntel,59.88023952,120983,,,,,,,
,,,,,,2.0021875,3.8075,space,2.5007,0,6,6,36,1,37,image/37.jpg,0,0,,R_61d7Su0GZhtK1nx,2,2024-05-26_21h49.35.242,face trait task,2021.2.3,MacIntel,59.88023952,120983,,,,,,,
,,,,,,1.100377155,1.8316,space,1.9054,0,7,7,45,1,46,image/46.jpg,0,0,,R_61d7Su0GZhtK1nx,2,2024-05-26_21h49.35.242,face trait task,2021.2.3,MacIntel,59.88023952,120983,,,,,,,
,,,,,,5.950905172,3.3772,space,0.5184,0,8,8,25,1,26,image/26.jpg,0,0,,R_61d7Su0GZhtK1nx,2,2024-05-26_21h49.35.242,face trait task,2021.2.3,MacIntel,59.88023952,120983,,,,,,,
,,,,,,4.991810345,2.572,space,0.3788,0,9,9,31,1,32,image/32.jpg,0,0,,R_61d7Su0GZhtK1nx,2,2024-05-26_21h49.35.242,face trait task,2021.2.3,MacIntel,59.88023952,120983,,,,,,,
,,,,,,6.989299569,2.9158,space,0.2186,0,10,10,34,1,35,image/35.jpg,0,0,,R_61d7Su0GZhtK1nx,2,2024-05-26_21h49.35.242,face trait task,2021.2.3,MacIntel,59.88023952,120983,,,,,,,
,,,,,,6.985420259,3.1728,space,0.2455,0,11,11,44,1,45,image/45.jpg,0,0,,R_61d7Su0GZhtK1nx,2,2024-05-26_21h49.35.242,face trait task,2021.2.3,MacIntel,59.88023952,120983,,,,,,,
,,,,,,6.006314655,3.0981,space,0.2049,0,12,12,48,1,49,image/49.jpg,0,0,,R_61d7Su0GZhtK1nx,2,2024-05-26_21h49.35.242,face trait task,2021.2.3,MacIntel,59.88023952,120983,,,,,,,
,,,,,,1.047618534,5.2753,space,0.304,0,13,13,30,1,31,image/31.jpg,0,0,,R_61d7Su0GZhtK1nx,2,2024-05-26_21h49.35.242,face trait task,2021.2.3,MacIntel,59.88023952,120983,,,,,,,
,,,,,,6.01762931,4.8492,space,0.3012,0,14,14,22,1,23,image/23.jpg,0,0,,R_61d7Su0GZhtK1nx,2,2024-05-26_21h49.35.242,face trait task,2021.2.3,MacIntel,59.88023952,120983,,,,,,,
,,,,,,6.01762931,24.4988,space,0.8857,0,15,15,18,1,19,image/19.jpg,0,0,,R_61d7Su0GZhtK1nx,2,2024-05-26_21h49.35.242,face trait task,2021.2.3,MacIntel,59.88023952,120983,,,,,,,
,,,,,,6.986648707,3.1136,space,0.1691,0,16,16,2,1,3,image/3.jpg,0,0,,R_61d7Su0GZhtK1nx,2,2024-05-26_21h49.35.242,face trait task,2021.2.3,MacIntel,59.88023952,120983,,,,,,,
,,,,,,6.967931034,33.0143,space,0.6362,0,17,17,50,1,61,image/fill_img.png,1,7,Please move the slider all the way to the RIGHT to show that you are paying attention.,R_61d7Su0GZhtK1nx,2,2024-05-26_21h49.35.242,face trait task,2021.2.3,MacIntel,59.88023952,120983,,,,,,,
,,,,,,6.005506466,3.0739,space,1.6478,0,18,18,9,1,10,image/10.jpg,0,0,,R_61d7Su0GZhtK1nx,2,2024-05-26_21h49.35.242,face trait task,2021.2.3,MacIntel,59.88023952,120983,,,,,,,
,,,,,,1.076551724,2.3804,space,1.3678,0,19,19,40,1,41,image/41.jpg,0,0,,R_61d7Su0GZhtK1nx,2,2024-05-26_21h49.35.242,face trait task,2021.2.3,MacIntel,59.88023952,120983,,,,,,,
,,,,,,5.021778017,4.7556,space,2.3552,0,20,20,11,1,12,image/12.jpg,0,0,,R_61d7Su0GZhtK1nx,2,2024-05-26_21h49.35.242,face trait task,2021.2.3,MacIntel,59.88023952,120983,,,,,,,
,,,,,,6.96330819,2.2918,space,0.1682,0,21,21,5,1,6,image/6.jpg,0,0,,R_61d7Su0GZhtK1nx,2,2024-05-26_21h49.35.242,face trait task,2021.2.3,MacIntel,59.88023952,120983,,,,,,,
,,,,,,6.954838362,3.7578,space,1.2852,0,22,22,39,1,40,image/40.jpg,0,0,,R_61d7Su0GZhtK1nx,2,2024-05-26_21h49.35.242,face trait task,2021.2.3,MacIntel,59.88023952,120983,,,,,,,
,,,,,,4.980204741,2.5006,space,0.4655,0,23,23,38,1,39,image/39.jpg,0,0,,R_61d7Su0GZhtK1nx,2,2024-05-26_21h49.35.242,face trait task,2021.2.3,MacIntel,59.88023952,120983,,,,,,,
,,,,,,5.982198276,2.8148,space,0.7504,0,24,24,43,1,44,image/44.jpg,0,0,,R_61d7Su0GZhtK1nx,2,2024-05-26_21h49.35.242,face trait task,2021.2.3,MacIntel,59.88023952,120983,,,,,,,
,,,,,,4.068954741,2.1197,space,0.3342,0,25,25,8,1,9,image/9.jpg,0,0,,R_61d7Su0GZhtK1nx,2,2024-05-26_21h49.35.242,face trait task,2021.2.3,MacIntel,59.88023952,120983,,,,,,,
,,,,,,6.99518319,2.0824,space,0.7361,0,26,26,7,1,8,image/8.jpg,0,0,,R_61d7Su0GZhtK1nx,2,2024-05-26_21h49.35.242,face trait task,2021.2.3,MacIntel,59.88023952,120983,,,,,,,
,,,,,,1.011605603,2.2409,space,0.7516,0,27,27,42,1,43,image/43.jpg,0,0,,R_61d7Su0GZhtK1nx,2,2024-05-26_21h49.35.242,face trait task,2021.2.3,MacIntel,59.88023952,120983,,,,,,,
,,,,,,6.963890086,2.416,space,1.1696,0,28,28,4,1,5,image/5.jpg,0,0,,R_61d7Su0GZhtK1nx,2,2024-05-26_21h49.35.242,face trait task,2021.2.3,MacIntel,59.88023952,120983,,,,,,,
,,,,,,6.96731681,2.1156,space,0.352,0,29,29,37,1,38,image/38.jpg,0,0,,R_61d7Su0GZhtK1nx,2,2024-05-26_21h49.35.242,face trait task,2021.2.3,MacIntel,59.88023952,120983,,,,,,,
,,,,,,6.975625,2.4309,space,0.4316,0,30,30,27,1,28,image/28.jpg,0,0,,R_61d7Su0GZhtK1nx,2,2024-05-26_21h49.35.242,face trait task,2021.2.3,MacIntel,59.88023952,120983,,,,,,,
,,,,,,6.975625,2.7498,space,2.069,0,31,31,35,1,36,image/36.jpg,0,0,,R_61d7Su0GZhtK1nx,2,2024-05-26_21h49.35.242,face trait task,2021.2.3,MacIntel,59.88023952,120983,,,,,,,
,,,,,,6.975625,1.4728,space,0.1699,0,32,32,24,1,25,image/25.jpg,0,0,,R_61d7Su0GZhtK1nx,2,2024-05-26_21h49.35.242,face trait task,2021.2.3,MacIntel,59.88023952,120983,,,,,,,
,,,,,,2.79356681,3.4482,space,2.9692,0,33,33,1,1,2,image/2.jpg,0,0,,R_61d7Su0GZhtK1nx,2,2024-05-26_21h49.35.242,face trait task,2021.2.3,MacIntel,59.88023952,120983,,,,,,,
,,,,,,6.979698276,16.8806,space,15.9056,0,34,34,49,1,50,image/50.jpg,0,0,,R_61d7Su0GZhtK1nx,2,2024-05-26_21h49.35.242,face trait task,2021.2.3,MacIntel,59.88023952,120983,,,,,,,
,,,,,,1.069698276,3.5722,space,0.7746,0,35,35,29,1,30,image/30.jpg,0,0,,R_61d7Su0GZhtK1nx,2,2024-05-26_21h49.35.242,face trait task,2021.2.3,MacIntel,59.88023952,120983,,,,,,,
,,,,,,6.058653017,8.0312,space,0.9617,0,36,36,13,1,14,image/14.jpg,0,0,,R_61d7Su0GZhtK1nx,2,2024-05-26_21h49.35.242,face trait task,2021.2.3,MacIntel,59.88023952,120983,,,,,,,
,,,,,,1.075226293,9.4897,space,7.9013,0,37,37,16,1,17,image/17.jpg,0,0,,R_61d7Su0GZhtK1nx,2,2024-05-26_21h49.35.242,face trait task,2021.2.3,MacIntel,59.88023952,120983,,,,,,,
,,,,,,6.986842672,2.2019,space,0.8386,0,38,38,33,1,34,image/34.jpg,0,0,,R_61d7Su0GZhtK1nx,2,2024-05-26_21h49.35.242,face trait task,2021.2.3,MacIntel,59.88023952,120983,,,,,,,
,,,,,,6.9803125,2.029,space,0.1679,0,39,39,46,1,47,image/47.jpg,0,0,,R_61d7Su0GZhtK1nx,2,2024-05-26_21h49.35.242,face trait task,2021.2.3,MacIntel,59.88023952,120983,,,,,,,
,,,,,,6.985872845,6.8398,space,5.8751,0,40,40,20,1,21,image/21.jpg,0,0,,R_61d7Su0GZhtK1nx,2,2024-05-26_21h49.35.242,face trait task,2021.2.3,MacIntel,59.88023952,120983,,,,,,,
,,,,,,1.023502155,3.4329,space,0.4352,0,41,41,6,1,7,image/7.jpg,0,0,,R_61d7Su0GZhtK1nx,2,2024-05-26_21h49.35.242,face trait task,2021.2.3,MacIntel,59.88023952,120983,,,,,,,
,,,,,,6.986842672,29.5289,space,11.6668,0,42,42,23,1,24,image/24.jpg,0,0,,R_61d7Su0GZhtK1nx,2,2024-05-26_21h49.35.242,face trait task,2021.2.3,MacIntel,59.88023952,120983,,,,,,,
,,,,,,6.986842672,2.499,space,0.2694,0,43,43,32,1,33,image/33.jpg,0,0,,R_61d7Su0GZhtK1nx,2,2024-05-26_21h49.35.242,face trait task,2021.2.3,MacIntel,59.88023952,120983,,,,,,,
,,,,,,2.039137931,9.8432,space,3.3682,0,44,44,28,1,29,image/29.jpg,0,0,,R_61d7Su0GZhtK1nx,2,2024-05-26_21h49.35.242,face trait task,2021.2.3,MacIntel,59.88023952,120983,,,,,,,
,,,,,,6.982413793,9.7058,space,1.7456,0,45,45,14,1,15,image/15.jpg,0,0,,R_61d7Su0GZhtK1nx,2,2024-05-26_21h49.35.242,face trait task,2021.2.3,MacIntel,59.88023952,120983,,,,,,,
,,,,,,6.938286638,3.594,space,0.2694,0,46,46,52,1,61,image/fill_img.png,1,7,Please move the slider all the way to the RIGHT to show that you are paying attention.,R_61d7Su0GZhtK1nx,2,2024-05-26_21h49.35.242,face trait task,2021.2.3,MacIntel,59.88023952,120983,,,,,,,
,,,,,,6.938286638,1.4829,space,0.1316,0,47,47,41,1,42,image/42.jpg,0,0,,R_61d7Su0GZhtK1nx,2,2024-05-26_21h49.35.242,face trait task,2021.2.3,MacIntel,59.88023952,120983,,,,,,,
,,,,,,6.938286638,1.5239,space,0.4862,0,48,48,3,1,4,image/4.jpg,0,0,,R_61d7Su0GZhtK1nx,2,2024-05-26_21h49.35.242,face trait task,2021.2.3,MacIntel,59.88023952,120983,,,,,,,
,,,,,,5.042047414,5.2078,space,1.031,0,49,49,0,1,1,image/1.jpg,0,0,,R_61d7Su0GZhtK1nx,2,2024-05-26_21h49.35.242,face trait task,2021.2.3,MacIntel,59.88023952,120983,,,,,,,
,,,,,,2.018512931,2.0021,space,0.4904,0,50,50,47,1,48,image/48.jpg,0,0,,R_61d7Su0GZhtK1nx,2,2024-05-26_21h49.35.242,face trait task,2021.2.3,MacIntel,59.88023952,120983,,,,,,,
,,,,,,2.018512931,1.4886,space,2.8333,0,51,51,21,1,22,image/22.jpg,0,0,,R_61d7Su0GZhtK1nx,2,2024-05-26_21h49.35.242,face trait task,2021.2.3,MacIntel,59.88023952,120983,,,,,,,
,,,,,,5.984525862,6.1728,space,16.3858,0,52,52,17,1,18,image/18.jpg,0,0,,R_61d7Su0GZhtK1nx,2,2024-05-26_21h49.35.242,face trait task,2021.2.3,MacIntel,59.88023952,120983,,,,,,,
,,,,,,,,,,,,,,,,,,,,R_61d7Su0GZhtK1nx,2,2024-05-26_21h49.35.242,face trait task,2021.2.3,MacIntel,59.88023952,120983,0,3,3,1,1,1,competent.png
