chooserow,ParID,pre_instru_resp_2.keys,pre_instru_resp_2.rt,pre_instru_resp_3.keys,pre_instru_resp_3.rt,pre_instru_resp_9.keys,pre_instru_resp_9.rt,pre_instru_resp_8.keys,pre_instru_resp_8.rt,pre_instru_resp_4.keys,pre_instru_resp_4.rt,pre_instru_resp_5.keys,pre_instru_resp_5.rt,pre_instru_resp_6.keys,pre_instru_resp_6.rt,key_resp_3.keys,key_resp_3.rt,key_resp_4.keys,key_resp_4.rt,key_resp_5.keys,key_resp_5.rt,key_resp_6.keys,key_resp_6.rt,key_resp_7.keys,key_resp_7.rt,trials_2.thisRepN,trials_2.thisTrialN,trials_2.thisN,trials_2.thisIndex,trials_2.ran,participant,session,date,expName,psychopyVersion,OS,frameRate,SONAid,pre_instru_resp.keys,pre_instru_resp.rt,clicked,judge_2.x,judge_2.y,judge_2.leftButton,judge_2.midButton,judge_2.rightButton,judge_2.clicked_name,trials.thisRepN,trials.thisTrialN,trials.thisN,trials.thisIndex,trials.ran,prac_answer,prac_dot_sti,dotlefttext,dotrighttext,prac_acc,judge.x,judge.y,judge.leftButton,judge.midButton,judge.rightButton,judge.clicked_name,clicked_guilt,slider_guilt.response,slider_guilt.rt,key_guilt.keys,share_slider.response,share_slider.rt,key_share.keys,slider_apology.response,slider_apology.rt,key_apology.keys,slider_hide.response,slider_hide.rt,slider_forgiveness.response,slider_forgiveness.rt,key_forgiveness.keys,key_forgiveness.rt,slider_mad.response,slider_mad.rt,trialseq.thisRepN,trialseq.thisTrialN,trialseq.thisN,trialseq.thisIndex,trialseq.ran,type_trial,stipic,DV,picture,answer,number,key_share.rt,key_guilt.rt,key_apology.rt,incompleteTrials,trials_redo.thisRepN,trials_redo.thisTrialN,trials_redo.thisN,trials_redo.thisIndex,trials_redo.ran
"[141,143,158,91,145,100,173,53,110,103,194,95,157,8,73,125,160,116,130,127,132,68,185,177,181,94,61,152,62,24,104,76,168,148,57,184,75,117,54,47,16,202]",R_61d7Su0GZhtK1nx,space,5.923,space,2.9209,space,9.0145,space,16.0046,space,32.0618,space,5.6891,space,6.3448,3,9.3767,2,10.4202,3,6.2869,1,12.537,2,4.5585,0,0,0,0,1,R_61d7Su0GZhtK1nx,1,2024-05-26_21h38.19.404,interaction task,2021.2.3,MacIntel,59.52380952,120983,,,,,,,,,,,,,,,,,,,,,,,,,,,,,,,,,,,,,,,,,,,,,,,,,,,,,,,,,,,,,,,
,,,,space,0.9208,space,0.4987,space,0.381,space,0.5324,space,0.734,space,0.4668,3,1.7173,2,20.5531,3,5.314,3,2.1016,2,1.5145,1,0,1,0,1,R_61d7Su0GZhtK1nx,1,2024-05-26_21h38.19.404,interaction task,2021.2.3,MacIntel,59.52380952,120983,,,,,,,,,,,,,,,,,,,,,,,,,,,,,,,,,,,,,,,,,,,,,,,,,,,,,,,,,,,,,,,
,,,,space,0.2866,space,0.2337,space,0.2037,space,0.4483,space,1.8309,space,0.4686,3,1.4528,1,1.5653,3,2.2643,2,2.8377,2,0.9144,2,0,2,0,1,R_61d7Su0GZhtK1nx,1,2024-05-26_21h38.19.404,interaction task,2021.2.3,MacIntel,59.52380952,120983,,,,,,,,,,,,,,,,,,,,,,,,,,,,,,,,,,,,,,,,,,,,,,,,,,,,,,,,,,,,,,,
,,,,,,,,,,,,,,,,,,,,,,,,,,,,,,,R_61d7Su0GZhtK1nx,1,2024-05-26_21h38.19.404,interaction task,2021.2.3,MacIntel,59.52380952,120983,space,1.0424,"[""LeftButton_2""]",-0.239737457,-0.312952586,1,0,0,LeftButton_2,0,0,0,2,1,LeftButton_2,11dot2.png,Greater,Smaller,,,,,,,,,,,,,,,,,,,,,,,,,,,,,,,,,,,,,,,,,,,,,
,,,,,,,,,,,,,,,,,,,,,,,,,,,,,,,R_61d7Su0GZhtK1nx,1,2024-05-26_21h38.19.404,interaction task,2021.2.3,MacIntel,59.52380952,120983,,,"[""RightButton_2""]",0.325111607,-0.317521552,1,0,0,RightButton_2,0,1,1,0,1,RightButton_2,11dot2.png,Smaller,Greater,,,,,,,,,,,,,,,,,,,,,,,,,,,,,,,,,,,,,,,,,,,,,
,,,,,,,,,,,,,,,,,,,,,,,,,,,,,,,R_61d7Su0GZhtK1nx,1,2024-05-26_21h38.19.404,interaction task,2021.2.3,MacIntel,59.52380952,120983,,,"[""RightButton_2""]",0.239955357,-0.332284483,1,0,0,RightButton_2,0,2,2,1,1,LeftButton_2,11dot1.png,Greater,Smaller,,,,,,,,,,,,,,,,,,,,,,,,,,,,,,,,,,,,,,,,,,,,,
,,,,,,,,,,,,,,,,,,,,,,,,,,,,,,,R_61d7Su0GZhtK1nx,1,2024-05-26_21h38.19.404,interaction task,2021.2.3,MacIntel,59.52380952,120983,,,,,,,,,,,,,,,,,Smaller,Greater,0.4,0.280808886,-0.522381466,1,0,0,RightButton,"[""RightButton""]",,,,,,,,,,,,23.93363911,20.3647,space,4.2345,20.25795798,18.3972,0,0,0,0,1,2,only_sub_right.png,3,RandomDot7.png,No answer,20,,,,,,,,,
,,,,,,,,,,,,,,,,,,,,,,,,,,,,,,,R_61d7Su0GZhtK1nx,1,2024-05-26_21h38.19.404,interaction task,2021.2.3,MacIntel,59.52380952,120983,,,,,,,,,,,,,,,,,Smaller,Greater,,-0.287122662,-0.470915948,1,0,0,LeftButton,"[""LeftButton""]",,,,,,,,,,,,16.06745602,4.8538,space,2.2017,57.34545712,7.9697,0,1,1,1,1,2,only_sub_right.png,3,RandomDot31.png,No answer,19,,,,,,,,,
,,,,,,,,,,,,,,,,,,,,,,,,,,,,,,,R_61d7Su0GZhtK1nx,1,2024-05-26_21h38.19.404,interaction task,2021.2.3,MacIntel,59.52380952,120983,,,,,,,,,,,,,,,,,Greater,Smaller,,0.271210672,-0.501831897,1,0,0,RightButton,"[""RightButton""]",,,,1.960406037,32.4494,space,,,,,,,,,,,,0,2,2,2,1,3,only_sub_wrong.png,1,RandomDot1.png,No answer,19,7.1386,,,,,,,,
,,,,,,,,,,,,,,,,,,,,,,,,,,,,,,,R_61d7Su0GZhtK1nx,1,2024-05-26_21h38.19.404,interaction task,2021.2.3,MacIntel,59.52380952,120983,,,,,,,,,,,,,,,,,Smaller,Greater,,-0.254852253,-0.5115625,1,0,0,LeftButton,"[""LeftButton""]",,,,,,,,,,,,30.39869357,4.0575,space,0.8865,61.01254896,8.0295,0,3,3,3,1,1,both_wrong.png,3,RandomDot23.png,No answer,20,,,,,,,,,
,,,,,,,,,,,,,,,,,,,,,,,,,,,,,,,R_61d7Su0GZhtK1nx,1,2024-05-26_21h38.19.404,interaction task,2021.2.3,MacIntel,59.52380952,120983,,,,,,,,,,,,,,,,,Greater,Smaller,,-0.269260204,-0.499407328,1,0,0,LeftButton,"[""LeftButton""]",80,4.5254,space,,,,,,,,,,,,,,,0,4,4,4,1,3,only_sub_wrong.png,0,RandomDot15.png,No answer,20,,3.2516,,,,,,,
,,,,,,,,,,,,,,,,,,,,,,,,,,,,,,,R_61d7Su0GZhtK1nx,1,2024-05-26_21h38.19.404,interaction task,2021.2.3,MacIntel,59.52380952,120983,,,,,,,,,,,,,,,,,Greater,Smaller,,0.291023597,-0.505592672,1,0,0,RightButton,"[""RightButton""]",79,2.4297,space,,,,,,,,,,,,,,,0,5,5,5,1,2,only_sub_right.png,0,RandomDot33.png,No answer,21,,2.6902,,,,,,,
,,,,,,,,,,,,,,,,,,,,,,,,,,,,,,,R_61d7Su0GZhtK1nx,1,2024-05-26_21h38.19.404,interaction task,2021.2.3,MacIntel,59.52380952,120983,,,,,,,,,,,,,,,,,Greater,Smaller,,-0.276605017,-0.536206897,1,0,0,LeftButton,"[""LeftButton""]",,,,,,,89,5.4509,space,64,8.7813,,,,,,,0,6,6,6,1,3,only_sub_wrong.png,2,RandomDot20.png,No answer,19,,,0.6887,,,,,,
,,,,,,,,,,,,,,,,,,,,,,,,,,,,,,,R_61d7Su0GZhtK1nx,1,2024-05-26_21h38.19.404,interaction task,2021.2.3,MacIntel,59.52380952,120983,,,,,,,,,,,,,,,,,Greater,Smaller,,0.337670068,-0.488771552,1,0,0,RightButton,"[""RightButton""]",93,1.5677,space,,,,,,,,,,,,,,,0,7,7,7,1,1,both_wrong.png,0,RandomDot32.png,No answer,19,,0.8517,,,,,,,
,,,,,,,,,,,,,,,,,,,,,,,,,,,,,,,R_61d7Su0GZhtK1nx,1,2024-05-26_21h38.19.404,interaction task,2021.2.3,MacIntel,59.52380952,120983,,,,,,,,,,,,,,,,,Greater,Smaller,,0.275334821,-0.48075431,1,0,0,RightButton,"[""RightButton""]",,,,2.901227679,17.6418,space,,,,,,,,,,,,0,8,8,8,1,2,only_sub_right.png,1,RandomDot6.png,No answer,21,2.9857,,,,,,,,
,,,,,,,,,,,,,,,,,,,,,,,,,,,,,,,R_61d7Su0GZhtK1nx,1,2024-05-26_21h38.19.404,interaction task,2021.2.3,MacIntel,59.52380952,120983,,,,,,,,,,,,,,,,,Smaller,Greater,,-0.295918367,-0.50762931,1,0,0,LeftButton,"[""LeftButton""]",80,2.1694,space,,,,,,,,,,,,,,,0,9,9,9,1,2,only_sub_right.png,0,RandomDot21.png,No answer,21,,0.7337,,,,,,,
,,,,,,,,,,,,,,,,,,,,,,,,,,,,,,,R_61d7Su0GZhtK1nx,1,2024-05-26_21h38.19.404,interaction task,2021.2.3,MacIntel,59.52380952,120983,,,,,,,,,,,,,,,,,Greater,Smaller,,0.184848002,-0.476950431,1,0,0,RightButton,"[""RightButton""]",,,,,,,,,,,,,,,,,,0,10,10,10,1,4,both_right.png,10,RandomDot41.png,LeftButton,5,,,,,,,,,
,,,,,,,,,,,,,,,,,,,,,,,,,,,,,,,R_61d7Su0GZhtK1nx,1,2024-05-26_21h38.19.404,interaction task,2021.2.3,MacIntel,59.52380952,120983,,,,,,,,,,,,,,,,,Smaller,Greater,,0.283684099,-0.472672414,1,0,0,RightButton,"[""RightButton""]",,,,,,,,,,,,36.4444831,4.8109,space,1.9715,80.51829949,3.7431,0,11,11,11,1,1,both_wrong.png,3,RandomDot12.png,No answer,19,,,,,,,,,
,,,,,,,,,,,,,,,,,,,,,,,,,,,,,,,R_61d7Su0GZhtK1nx,1,2024-05-26_21h38.19.404,interaction task,2021.2.3,MacIntel,59.52380952,120983,,,,,,,,,,,,,,,,,Greater,Smaller,,0.375478316,-0.544806034,1,0,0,RightButton,"[""RightButton""]",,,,3.992293793,2.4929,space,,,,,,,,,,,,0,12,12,12,1,3,only_sub_wrong.png,1,RandomDot8.png,No answer,21,0.9518,,,,,,,,
,,,,,,,,,,,,,,,,,,,,,,,,,,,,,,,R_61d7Su0GZhtK1nx,1,2024-05-26_21h38.19.404,interaction task,2021.2.3,MacIntel,59.52380952,120983,,,,,,,,,,,,,,,,,Smaller,Greater,,-0.283700043,-0.482446121,1,0,0,LeftButton,"[""LeftButton""]",,,,,,,,,,,,,,,,,,0,13,13,13,1,0,both_right.png,0,RandomDot15.png,No answer,21,,,,,,,,,
,,,,,,,,,,,,,,,,,,,,,,,,,,,,,,,R_61d7Su0GZhtK1nx,1,2024-05-26_21h38.19.404,interaction task,2021.2.3,MacIntel,59.52380952,120983,,,,,,,,,,,,,,,,,Greater,Smaller,,-0.280341199,-0.51875,1,0,0,LeftButton,"[""LeftButton""]",,,,,,,49,8.2725,space,79,3.7626,,,,,,,0,14,14,14,1,1,both_wrong.png,2,RandomDot24.png,No answer,19,,,4.6704,,,,,,
,,,,,,,,,,,,,,,,,,,,,,,,,,,,,,,R_61d7Su0GZhtK1nx,1,2024-05-26_21h38.19.404,interaction task,2021.2.3,MacIntel,59.52380952,120983,,,,,,,,,,,,,,,,,Greater,Smaller,,-0.269786352,-0.489665948,1,0,0,LeftButton,"[""LeftButton""]",,,,,,,57,1.2568,space,71,10.5354,,,,,,,0,15,15,15,1,2,only_sub_right.png,2,RandomDot36.png,No answer,21,,,0.9016,,,,,,
,,,,,,,,,,,,,,,,,,,,,,,,,,,,,,,R_61d7Su0GZhtK1nx,1,2024-05-26_21h38.19.404,interaction task,2021.2.3,MacIntel,59.52380952,120983,,,,,,,,,,,,,,,,,Greater,Smaller,,-0.235645196,-0.4903125,1,0,0,LeftButton,"[""LeftButton""]",,,,4.986607143,2.9137,space,,,,,,,,,,,,0,16,16,16,1,3,only_sub_wrong.png,1,RandomDot22.png,No answer,19,0.6681,,,,,,,,
,,,,,,,,,,,,,,,,,,,,,,,,,,,,,,,R_61d7Su0GZhtK1nx,1,2024-05-26_21h38.19.404,interaction task,2021.2.3,MacIntel,59.52380952,120983,,,,,,,,,,,,,,,,,Smaller,Greater,,0.486229804,0.892715517,0,0,0,,[],,,,,,,,,,,,,,,,,,0,17,17,17,1,2,only_sub_right.png,1,RandomDot25.png,No answer,19,,,,116,,,,,
,,,,,,,,,,,,,,,,,,,,,,,,,,,,,,,R_61d7Su0GZhtK1nx,1,2024-05-26_21h38.19.404,interaction task,2021.2.3,MacIntel,59.52380952,120983,,,,,,,,,,,,,,,,,Smaller,Greater,,0.486229804,0.892715517,0,0,0,,[],,,,,,,,,,,,,,,,,,0,18,18,18,1,2,only_sub_right.png,2,RandomDot8.png,No answer,21,,,,130,,,,,
,,,,,,,,,,,,,,,,,,,,,,,,,,,,,,,R_61d7Su0GZhtK1nx,1,2024-05-26_21h38.19.404,interaction task,2021.2.3,MacIntel,59.52380952,120983,,,,,,,,,,,,,,,,,Smaller,Greater,,0.486229804,0.892715517,0,0,0,,[],,,,,,,,,,,,,,,,,,0,19,19,19,1,2,only_sub_right.png,2,RandomDot22.png,No answer,19,,,,127,,,,,
,,,,,,,,,,,,,,,,,,,,,,,,,,,,,,,R_61d7Su0GZhtK1nx,1,2024-05-26_21h38.19.404,interaction task,2021.2.3,MacIntel,59.52380952,120983,,,,,,,,,,,,,,,,,Greater,Smaller,,0.486229804,0.892715517,0,0,0,,[],,,,,,,,,,,,,,,,,,0,20,20,20,1,2,only_sub_right.png,3,RandomDot20.png,No answer,21,,,,132,,,,,
,,,,,,,,,,,,,,,,,,,,,,,,,,,,,,,R_61d7Su0GZhtK1nx,1,2024-05-26_21h38.19.404,interaction task,2021.2.3,MacIntel,59.52380952,120983,,,,,,,,,,,,,,,,,Smaller,Greater,,0.486229804,0.892715517,0,0,0,,[],,,,,,,,,,,,,,,,,,0,21,21,21,1,1,both_wrong.png,1,RandomDot8.png,No answer,21,,,,68,,,,,
,,,,,,,,,,,,,,,,,,,,,,,,,,,,,,,R_61d7Su0GZhtK1nx,1,2024-05-26_21h38.19.404,interaction task,2021.2.3,MacIntel,59.52380952,120983,,,,,,,,,,,,,,,,,Greater,Smaller,,0.486229804,0.892715517,0,0,0,,[],,,,,,,,,,,,,,,,,,0,22,22,22,1,3,only_sub_wrong.png,3,RandomDot34.png,No answer,20,,,,185,,,,,
,,,,,,,,,,,,,,,,,,,,,,,,,,,,,,,R_61d7Su0GZhtK1nx,1,2024-05-26_21h38.19.404,interaction task,2021.2.3,MacIntel,59.52380952,120983,,,,,,,,,,,,,,,,,Smaller,Greater,,0.486229804,0.892715517,0,0,0,,[],,,,,,,,,,,,,,,,,,0,23,23,23,1,3,only_sub_wrong.png,2,RandomDot31.png,No answer,19,,,,177,,,,,
,,,,,,,,,,,,,,,,,,,,,,,,,,,,,,,R_61d7Su0GZhtK1nx,1,2024-05-26_21h38.19.404,interaction task,2021.2.3,MacIntel,59.52380952,120983,,,,,,,,,,,,,,,,,Greater,Smaller,,0.486229804,0.892715517,0,0,0,,[],,,,,,,,,,,,,,,,,,0,24,24,24,1,3,only_sub_wrong.png,3,RandomDot3.png,No answer,19,,,,181,,,,,
,,,,,,,,,,,,,,,,,,,,,,,,,,,,,,,R_61d7Su0GZhtK1nx,1,2024-05-26_21h38.19.404,interaction task,2021.2.3,MacIntel,59.52380952,120983,,,,,,,,,,,,,,,,,Smaller,Greater,,0.486229804,0.892715517,0,0,0,,[],,,,,,,,,,,,,,,,,,0,25,25,25,1,1,both_wrong.png,3,RandomDot25.png,No answer,21,,,,94,,,,,
,,,,,,,,,,,,,,,,,,,,,,,,,,,,,,,R_61d7Su0GZhtK1nx,1,2024-05-26_21h38.19.404,interaction task,2021.2.3,MacIntel,59.52380952,120983,,,,,,,,,,,,,,,,,Greater,Smaller,,0.486229804,0.892715517,0,0,0,,[],,,,,,,,,,,,,,,,,,0,26,26,26,1,1,both_wrong.png,1,RandomDot23.png,No answer,21,,,,61,,,,,
,,,,,,,,,,,,,,,,,,,,,,,,,,,,,,,R_61d7Su0GZhtK1nx,1,2024-05-26_21h38.19.404,interaction task,2021.2.3,MacIntel,59.52380952,120983,,,,,,,,,,,,,,,,,Smaller,Greater,,0.486229804,0.892715517,0,0,0,,[],,,,,,,,,,,,,,,,,,0,27,27,27,1,3,only_sub_wrong.png,0,RandomDot9.png,No answer,19,,,,152,,,,,
,,,,,,,,,,,,,,,,,,,,,,,,,,,,,,,R_61d7Su0GZhtK1nx,1,2024-05-26_21h38.19.404,interaction task,2021.2.3,MacIntel,59.52380952,120983,,,,,,,,,,,,,,,,,Greater,Smaller,,0.486229804,0.892715517,0,0,0,,[],,,,,,,,,,,,,,,,,,0,28,28,28,1,1,both_wrong.png,1,RandomDot28.png,No answer,21,,,,62,,,,,
,,,,,,,,,,,,,,,,,,,,,,,,,,,,,,,R_61d7Su0GZhtK1nx,1,2024-05-26_21h38.19.404,interaction task,2021.2.3,MacIntel,59.52380952,120983,,,,,,,,,,,,,,,,,Greater,Smaller,,0.486229804,0.892715517,0,0,0,,[],,,,,,,,,,,,,,,,,,0,29,29,29,1,0,both_right.png,2,RandomDot25.png,No answer,19,,,,24,,,,,
,,,,,,,,,,,,,,,,,,,,,,,,,,,,,,,R_61d7Su0GZhtK1nx,1,2024-05-26_21h38.19.404,interaction task,2021.2.3,MacIntel,59.52380952,120983,,,,,,,,,,,,,,,,,Smaller,Greater,,0.486229804,0.892715517,0,0,0,,[],,,,,,,,,,,,,,,,,,0,30,30,30,1,2,only_sub_right.png,0,RandomDot29.png,No answer,20,,,,104,,,,,
,,,,,,,,,,,,,,,,,,,,,,,,,,,,,,,R_61d7Su0GZhtK1nx,1,2024-05-26_21h38.19.404,interaction task,2021.2.3,MacIntel,59.52380952,120983,,,,,,,,,,,,,,,,,Greater,Smaller,,0.486229804,0.892715517,0,0,0,,[],,,,,,,,,,,,,,,,,,0,31,31,31,1,1,both_wrong.png,2,RandomDot9.png,No answer,21,,,,76,,,,,
,,,,,,,,,,,,,,,,,,,,,,,,,,,,,,,R_61d7Su0GZhtK1nx,1,2024-05-26_21h38.19.404,interaction task,2021.2.3,MacIntel,59.52380952,120983,,,,,,,,,,,,,,,,,Greater,Smaller,,0.486229804,0.892715517,0,0,0,,[],,,,,,,,,,,,,,,,,,0,32,32,32,1,3,only_sub_wrong.png,2,RandomDot13.png,No answer,21,,,,168,,,,,
,,,,,,,,,,,,,,,,,,,,,,,,,,,,,,,R_61d7Su0GZhtK1nx,1,2024-05-26_21h38.19.404,interaction task,2021.2.3,MacIntel,59.52380952,120983,,,,,,,,,,,,,,,,,Greater,Smaller,,0.486229804,0.892715517,0,0,0,,[],,,,,,,,,,,,,,,,,,0,33,33,33,1,3,only_sub_wrong.png,0,RandomDot12.png,No answer,20,,,,148,,,,,
,,,,,,,,,,,,,,,,,,,,,,,,,,,,,,,R_61d7Su0GZhtK1nx,1,2024-05-26_21h38.19.404,interaction task,2021.2.3,MacIntel,59.52380952,120983,,,,,,,,,,,,,,,,,Smaller,Greater,,0.486229804,0.892715517,0,0,0,,[],,,,,,,,,,,,,,,,,,0,34,34,34,1,1,both_wrong.png,0,RandomDot22.png,No answer,21,,,,57,,,,,
,,,,,,,,,,,,,,,,,,,,,,,,,,,,,,,R_61d7Su0GZhtK1nx,1,2024-05-26_21h38.19.404,interaction task,2021.2.3,MacIntel,59.52380952,120983,,,,,,,,,,,,,,,,,Greater,Smaller,,0.486229804,0.892715517,0,0,0,,[],,,,,,,,,,,,,,,,,,0,35,35,35,1,3,only_sub_wrong.png,3,RandomDot20.png,No answer,20,,,,184,,,,,
,,,,,,,,,,,,,,,,,,,,,,,,,,,,,,,R_61d7Su0GZhtK1nx,1,2024-05-26_21h38.19.404,interaction task,2021.2.3,MacIntel,59.52380952,120983,,,,,,,,,,,,,,,,,Greater,Smaller,,0.486229804,0.892715517,0,0,0,,[],,,,,,,,,,,,,,,,,,0,36,36,36,1,1,both_wrong.png,2,RandomDot10.png,No answer,20,,,,75,,,,,
,,,,,,,,,,,,,,,,,,,,,,,,,,,,,,,R_61d7Su0GZhtK1nx,1,2024-05-26_21h38.19.404,interaction task,2021.2.3,MacIntel,59.52380952,120983,,,,,,,,,,,,,,,,,Smaller,Greater,,0.486229804,0.892715517,0,0,0,,[],,,,,,,,,,,,,,,,,,0,37,37,37,1,2,only_sub_right.png,1,RandomDot27.png,No answer,21,,,,117,,,,,
,,,,,,,,,,,,,,,,,,,,,,,,,,,,,,,R_61d7Su0GZhtK1nx,1,2024-05-26_21h38.19.404,interaction task,2021.2.3,MacIntel,59.52380952,120983,,,,,,,,,,,,,,,,,Smaller,Greater,,0.486229804,0.892715517,0,0,0,,[],,,,,,,,,,,,,,,,,,0,38,38,38,1,1,both_wrong.png,0,RandomDot23.png,No answer,20,,,,54,,,,,
,,,,,,,,,,,,,,,,,,,,,,,,,,,,,,,R_61d7Su0GZhtK1nx,1,2024-05-26_21h38.19.404,interaction task,2021.2.3,MacIntel,59.52380952,120983,,,,,,,,,,,,,,,,,Smaller,Greater,,0.486229804,0.892715517,0,0,0,,[],,,,,,,,,,,,,,,,,,0,39,39,39,1,0,both_right.png,3,RandomDot13.png,No answer,19,,,,47,,,,,
,,,,,,,,,,,,,,,,,,,,,,,,,,,,,,,R_61d7Su0GZhtK1nx,1,2024-05-26_21h38.19.404,interaction task,2021.2.3,MacIntel,59.52380952,120983,,,,,,,,,,,,,,,,,Greater,Smaller,,0.486229804,0.892715517,0,0,0,,[],,,,,,,,,,,,,,,,,,0,40,40,40,1,0,both_right.png,1,RandomDot12.png,No answer,21,,,,16,,,,,
,,,,,,,,,,,,,,,,,,,,,,,,,,,,,,,R_61d7Su0GZhtK1nx,1,2024-05-26_21h38.19.404,interaction task,2021.2.3,MacIntel,59.52380952,120983,,,,,,,,,,,,,,,,,Smaller,Greater,,0.486229804,0.892715517,0,0,0,,[],,,,,,,,,,,,,,,,,,0,41,41,41,1,5,both_right.png,10,RandomDot42.png,LeftButton,21,,,,202,,,,,
,,,,,,,,,,,,,,,,,,,,,,,,,,,,,,,R_61d7Su0GZhtK1nx,1,2024-05-26_21h38.19.404,interaction task,2021.2.3,MacIntel,59.52380952,120983,,,,,,,,,,,,,,,,,Greater,Smaller,,0.486229804,0.892715517,0,0,0,,[],,,,,,,,,,,,,,,,,,,,,,,3,only_sub_wrong.png,0,RandomDot12.png,No answer,20,,,,202,0,0,0,16,1
,,,,,,,,,,,,,,,,,,,,,,,,,,,,,,,R_61d7Su0GZhtK1nx,1,2024-05-26_21h38.19.404,interaction task,2021.2.3,MacIntel,59.52380952,120983,,,,,,,,,,,,,,,,,Smaller,Greater,,0.486229804,0.892715517,0,0,0,,[],,,,,,,,,,,,,,,,,,,,,,,1,both_wrong.png,0,RandomDot23.png,No answer,20,,,,202,0,1,1,21,1
,,,,,,,,,,,,,,,,,,,,,,,,,,,,,,,R_61d7Su0GZhtK1nx,1,2024-05-26_21h38.19.404,interaction task,2021.2.3,MacIntel,59.52380952,120983,,,,,,,,,,,,,,,,,Smaller,Greater,,0.486229804,0.892715517,0,0,0,,[],,,,,,,,,,,,,,,,,,,,,,,0,both_right.png,3,RandomDot13.png,No answer,19,,,,202,0,2,2,22,1
,,,,,,,,,,,,,,,,,,,,,,,,,,,,,,,R_61d7Su0GZhtK1nx,1,2024-05-26_21h38.19.404,interaction task,2021.2.3,MacIntel,59.52380952,120983,,,,,,,,,,,,,,,,,Greater,Smaller,,0.486229804,0.892715517,0,0,0,,[],,,,,,,,,,,,,,,,,,,,,,,3,only_sub_wrong.png,3,RandomDot3.png,No answer,19,,,,202,0,3,3,7,1
,,,,,,,,,,,,,,,,,,,,,,,,,,,,,,,R_61d7Su0GZhtK1nx,1,2024-05-26_21h38.19.404,interaction task,2021.2.3,MacIntel,59.52380952,120983,,,,,,,,,,,,,,,,,Smaller,Greater,,0.486229804,0.892715517,0,0,0,,[],,,,,,,,,,,,,,,,,,,,,,,2,only_sub_right.png,2,RandomDot8.png,No answer,21,,,,202,0,4,4,1,1
,,,,,,,,,,,,,,,,,,,,,,,,,,,,,,,R_61d7Su0GZhtK1nx,1,2024-05-26_21h38.19.404,interaction task,2021.2.3,MacIntel,59.52380952,120983,,,,,,,,,,,,,,,,,Smaller,Greater,,0.486229804,0.892715517,0,0,0,,[],,,,,,,,,,,,,,,,,,,,,,,5,both_right.png,10,RandomDot42.png,LeftButton,21,,,,202,0,5,5,24,1
,,,,,,,,,,,,,,,,,,,,,,,,,,,,,,,R_61d7Su0GZhtK1nx,1,2024-05-26_21h38.19.404,interaction task,2021.2.3,MacIntel,59.52380952,120983,,,,,,,,,,,,,,,,,Smaller,Greater,,0.486229804,0.892715517,0,0,0,,[],,,,,,,,,,,,,,,,,,,,,,,2,only_sub_right.png,1,RandomDot25.png,No answer,19,,,,202,0,6,6,0,1
,,,,,,,,,,,,,,,,,,,,,,,,,,,,,,,R_61d7Su0GZhtK1nx,1,2024-05-26_21h38.19.404,interaction task,2021.2.3,MacIntel,59.52380952,120983,,,,,,,,,,,,,,,,,Smaller,Greater,,0.486229804,0.892715517,0,0,0,,[],,,,,,,,,,,,,,,,,,,,,,,1,both_wrong.png,3,RandomDot25.png,No answer,21,,,,202,0,7,7,8,1
,,,,,,,,,,,,,,,,,,,,,,,,,,,,,,,R_61d7Su0GZhtK1nx,1,2024-05-26_21h38.19.404,interaction task,2021.2.3,MacIntel,59.52380952,120983,,,,,,,,,,,,,,,,,Smaller,Greater,,0.486229804,0.892715517,0,0,0,,[],,,,,,,,,,,,,,,,,,,,,,,2,only_sub_right.png,2,RandomDot22.png,No answer,19,,,,202,0,8,8,2,1
,,,,,,,,,,,,,,,,,,,,,,,,,,,,,,,R_61d7Su0GZhtK1nx,1,2024-05-26_21h38.19.404,interaction task,2021.2.3,MacIntel,59.52380952,120983,,,,,,,,,,,,,,,,,Greater,Smaller,,0.486229804,0.892715517,0,0,0,,[],,,,,,,,,,,,,,,,,,,,,,,1,both_wrong.png,2,RandomDot10.png,No answer,20,,,,202,0,9,9,19,1
,,,,,,,,,,,,,,,,,,,,,,,,,,,,,,,R_61d7Su0GZhtK1nx,1,2024-05-26_21h38.19.404,interaction task,2021.2.3,MacIntel,59.52380952,120983,,,,,,,,,,,,,,,,,Smaller,Greater,,0.486229804,0.892715517,0,0,0,,[],,,,,,,,,,,,,,,,,,,,,,,3,only_sub_wrong.png,2,RandomDot31.png,No answer,19,,,,202,0,10,10,6,1
,,,,,,,,,,,,,,,,,,,,,,,,,,,,,,,R_61d7Su0GZhtK1nx,1,2024-05-26_21h38.19.404,interaction task,2021.2.3,MacIntel,59.52380952,120983,,,,,,,,,,,,,,,,,Smaller,Greater,,0.486229804,0.892715517,0,0,0,,[],,,,,,,,,,,,,,,,,,,,,,,2,only_sub_right.png,0,RandomDot29.png,No answer,20,,,,202,0,11,11,13,1
,,,,,,,,,,,,,,,,,,,,,,,,,,,,,,,R_61d7Su0GZhtK1nx,1,2024-05-26_21h38.19.404,interaction task,2021.2.3,MacIntel,59.52380952,120983,,,,,,,,,,,,,,,,,Smaller,Greater,,0.486229804,0.892715517,0,0,0,,[],,,,,,,,,,,,,,,,,,,,,,,1,both_wrong.png,0,RandomDot22.png,No answer,21,,,,202,0,12,12,17,1
,,,,,,,,,,,,,,,,,,,,,,,,,,,,,,,R_61d7Su0GZhtK1nx,1,2024-05-26_21h38.19.404,interaction task,2021.2.3,MacIntel,59.52380952,120983,,,,,,,,,,,,,,,,,Greater,Smaller,,0.486229804,0.892715517,0,0,0,,[],,,,,,,,,,,,,,,,,,,,,,,3,only_sub_wrong.png,2,RandomDot13.png,No answer,21,,,,202,0,13,13,15,1
,,,,,,,,,,,,,,,,,,,,,,,,,,,,,,,R_61d7Su0GZhtK1nx,1,2024-05-26_21h38.19.404,interaction task,2021.2.3,MacIntel,59.52380952,120983,,,,,,,,,,,,,,,,,Greater,Smaller,,0.486229804,0.892715517,0,0,0,,[],,,,,,,,,,,,,,,,,,,,,,,0,both_right.png,1,RandomDot12.png,No answer,21,,,,202,0,14,14,23,1
,,,,,,,,,,,,,,,,,,,,,,,,,,,,,,,R_61d7Su0GZhtK1nx,1,2024-05-26_21h38.19.404,interaction task,2021.2.3,MacIntel,59.52380952,120983,,,,,,,,,,,,,,,,,Greater,Smaller,,0.486229804,0.892715517,0,0,0,,[],,,,,,,,,,,,,,,,,,,,,,,0,both_right.png,2,RandomDot25.png,No answer,19,,,,202,0,15,15,12,1
,,,,,,,,,,,,,,,,,,,,,,,,,,,,,,,R_61d7Su0GZhtK1nx,1,2024-05-26_21h38.19.404,interaction task,2021.2.3,MacIntel,59.52380952,120983,,,,,,,,,,,,,,,,,Greater,Smaller,,0.486229804,0.892715517,0,0,0,,[],,,,,,,,,,,,,,,,,,,,,,,1,both_wrong.png,1,RandomDot23.png,No answer,21,,,,202,0,16,16,9,1
,,,,,,,,,,,,,,,,,,,,,,,,,,,,,,,R_61d7Su0GZhtK1nx,1,2024-05-26_21h38.19.404,interaction task,2021.2.3,MacIntel,59.52380952,120983,,,,,,,,,,,,,,,,,Smaller,Greater,,0.486229804,0.892715517,0,0,0,,[],,,,,,,,,,,,,,,,,,,,,,,2,only_sub_right.png,1,RandomDot27.png,No answer,21,,,,202,0,17,17,20,1
,,,,,,,,,,,,,,,,,,,,,,,,,,,,,,,R_61d7Su0GZhtK1nx,1,2024-05-26_21h38.19.404,interaction task,2021.2.3,MacIntel,59.52380952,120983,,,,,,,,,,,,,,,,,Smaller,Greater,,0.486229804,0.892715517,0,0,0,,[],,,,,,,,,,,,,,,,,,,,,,,1,both_wrong.png,1,RandomDot8.png,No answer,21,,,,202,0,18,18,4,1
,,,,,,,,,,,,,,,,,,,,,,,,,,,,,,,R_61d7Su0GZhtK1nx,1,2024-05-26_21h38.19.404,interaction task,2021.2.3,MacIntel,59.52380952,120983,,,,,,,,,,,,,,,,,Smaller,Greater,,0.486229804,0.892715517,0,0,0,,[],,,,,,,,,,,,,,,,,,,,,,,3,only_sub_wrong.png,0,RandomDot9.png,No answer,19,,,,202,0,19,19,10,1
,,,,,,,,,,,,,,,,,,,,,,,,,,,,,,,R_61d7Su0GZhtK1nx,1,2024-05-26_21h38.19.404,interaction task,2021.2.3,MacIntel,59.52380952,120983,,,,,,,,,,,,,,,,,Greater,Smaller,,0.486229804,0.892715517,0,0,0,,[],,,,,,,,,,,,,,,,,,,,,,,3,only_sub_wrong.png,3,RandomDot20.png,No answer,20,,,,202,0,20,20,18,1
,,,,,,,,,,,,,,,,,,,,,,,,,,,,,,,R_61d7Su0GZhtK1nx,1,2024-05-26_21h38.19.404,interaction task,2021.2.3,MacIntel,59.52380952,120983,,,,,,,,,,,,,,,,,Greater,Smaller,,0.486229804,0.892715517,0,0,0,,[],,,,,,,,,,,,,,,,,,,,,,,2,only_sub_right.png,3,RandomDot20.png,No answer,21,,,,202,0,21,21,3,1
,,,,,,,,,,,,,,,,,,,,,,,,,,,,,,,R_61d7Su0GZhtK1nx,1,2024-05-26_21h38.19.404,interaction task,2021.2.3,MacIntel,59.52380952,120983,,,,,,,,,,,,,,,,,Greater,Smaller,,0.486229804,0.892715517,0,0,0,,[],,,,,,,,,,,,,,,,,,,,,,,1,both_wrong.png,1,RandomDot28.png,No answer,21,,,,202,0,22,22,11,1
,,,,,,,,,,,,,,,,,,,,,,,,,,,,,,,R_61d7Su0GZhtK1nx,1,2024-05-26_21h38.19.404,interaction task,2021.2.3,MacIntel,59.52380952,120983,,,,,,,,,,,,,,,,,Greater,Smaller,,0.486229804,0.892715517,0,0,0,,[],,,,,,,,,,,,,,,,,,,,,,,1,both_wrong.png,2,RandomDot9.png,No answer,21,,,,202,0,23,23,14,1
,,,,,,,,,,,,,,,,,,,,,,,,,,,,,,,R_61d7Su0GZhtK1nx,1,2024-05-26_21h38.19.404,interaction task,2021.2.3,MacIntel,59.52380952,120983,,,,,,,,,,,,,,,,,Greater,Smaller,,0.486229804,0.892715517,0,0,0,,[],,,,,,,,,,,,,,,,,,,,,,,3,only_sub_wrong.png,3,RandomDot34.png,No answer,20,,,,202,0,24,24,5,1
