chooserow,ParID,pre_instru_resp_2.keys,pre_instru_resp_2.rt,pre_instru_resp_3.keys,pre_instru_resp_3.rt,pre_instru_resp_9.keys,pre_instru_resp_9.rt,pre_instru_resp_8.keys,pre_instru_resp_8.rt,pre_instru_resp_4.keys,pre_instru_resp_4.rt,pre_instru_resp_5.keys,pre_instru_resp_5.rt,pre_instru_resp_6.keys,pre_instru_resp_6.rt,key_resp_3.keys,key_resp_3.rt,key_resp_4.keys,key_resp_4.rt,key_resp_5.keys,key_resp_5.rt,key_resp_6.keys,key_resp_6.rt,key_resp_7.keys,key_resp_7.rt,trials_2.thisRepN,trials_2.thisTrialN,trials_2.thisN,trials_2.thisIndex,trials_2.ran,participant,session,date,expName,psychopyVersion,OS,frameRate,SONAid,pre_instru_resp.keys,pre_instru_resp.rt,clicked,judge_2.x,judge_2.y,judge_2.leftButton,judge_2.midButton,judge_2.rightButton,trials.thisRepN,trials.thisTrialN,trials.thisN,trials.thisIndex,trials.ran,prac_answer,prac_dot_sti,dotlefttext,dotrighttext,judge_2.clicked_name,prac_acc,judge.x,judge.y,judge.leftButton,judge.midButton,judge.rightButton,judge.clicked_name,clicked_guilt,slider_guilt.response,slider_guilt.rt,key_guilt.keys,share_slider.response,share_slider.rt,key_share.keys,key_share.rt,slider_apology.response,slider_apology.rt,key_apology.keys,slider_hide.response,slider_hide.rt,slider_forgiveness.response,slider_forgiveness.rt,key_forgiveness.keys,slider_mad.response,slider_mad.rt,trialseq.thisRepN,trialseq.thisTrialN,trialseq.thisN,trialseq.thisIndex,trialseq.ran,type_trial,stipic,DV,picture,answer,number,key_forgiveness.rt,key_apology.rt,key_guilt.rt,incompleteTrials,trials_redo.thisRepN,trials_redo.thisTrialN,trials_redo.thisN,trials_redo.thisIndex,trials_redo.ran
"[114,92,201,2,77,91,195,132,60,130,75,137,152,176,136,65,149,187,119,146,52,111,89,127,50,180,191,168,99,20,177,128,159,68,24,160,74,53,164,105,104,41]",R_68i7aYrs5yFNwB3,space,10.681,space,6.182,space,25.928,space,32.888,space,43.394,space,20.803,space,5.569,4,10.443,3,9.675,3,9.888,2,7.732,2,3.154,0,0,0,0,1,R_68i7aYrs5yFNwB3,1,2024-05-23_14h52.29.750,interaction task,2021.2.3,MacIntel,30.3030303,120464,,,,,,,,,,,,,,,,,,,,,,,,,,,,,,,,,,,,,,,,,,,,,,,,,,,,,,,,,,,,,,,
,,,,space,3.59,space,11.917,space,3.749,space,0.789,space,2.567,space,0.875,3,8.556,1,13.087,3,2.489,2,1.601,2,1.036,1,0,1,0,1,R_68i7aYrs5yFNwB3,1,2024-05-23_14h52.29.750,interaction task,2021.2.3,MacIntel,30.3030303,120464,,,,,,,,,,,,,,,,,,,,,,,,,,,,,,,,,,,,,,,,,,,,,,,,,,,,,,,,,,,,,,,
,,,,,,,,,,,,,,,,,,,,,,,,,,,,,,,R_68i7aYrs5yFNwB3,1,2024-05-23_14h52.29.750,interaction task,2021.2.3,MacIntel,30.3030303,120464,space,4.237,[],0.348611111,-0.324444444,0,0,0,0,0,0,1,1,LeftButton_2,11dot1.png,Greater,Smaller,,,,,,,,,,,,,,,,,,,,,,,,,,,,,,,,,,,,,,,,,,,,,,
,,,,,,,,,,,,,,,,,,,,,,,,,,,,,,,R_68i7aYrs5yFNwB3,1,2024-05-23_14h52.29.750,interaction task,2021.2.3,MacIntel,30.3030303,120464,,,"[""RightButton_2""]",0.334722222,-0.324444444,1,0,0,0,1,1,0,1,RightButton_2,9dot1.png,Greater,Smaller,RightButton_2,,,,,,,,,,,,,,,,,,,,,,,,,,,,,,,,,,,,,,,,,,,,,
,,,,,,,,,,,,,,,,,,,,,,,,,,,,,,,R_68i7aYrs5yFNwB3,1,2024-05-23_14h52.29.750,interaction task,2021.2.3,MacIntel,30.3030303,120464,,,[],0.336111111,-0.326666667,0,0,0,0,2,2,2,1,RightButton_2,11dot1.png,Smaller,Greater,,,,,,,,,,,,,,,,,,,,,,,,,,,,,,,,,,,,,,,,,,,,,,
,,,,,,,,,,,,,,,,,,,,,,,,,,,,,,,R_68i7aYrs5yFNwB3,1,2024-05-23_14h52.29.750,interaction task,2021.2.3,MacIntel,30.3030303,120464,,,,,,,,,,,,,,,,Smaller,Greater,,0.2,0.275,-0.542222222,1,0,0,RightButton,"[""RightButton""]",,,,1.972222222,12.307,space,4.799,,,,,,,,,,,0,0,0,0,1,2,only_sub_right.png,1,RandomDot15.png,No answer,19,,,,,,,,,
,,,,,,,,,,,,,,,,,,,,,,,,,,,,,,,R_68i7aYrs5yFNwB3,1,2024-05-23_14h52.29.750,interaction task,2021.2.3,MacIntel,30.3030303,120464,,,,,,,,,,,,,,,,Smaller,Greater,,,-0.241666667,-0.477777778,1,0,0,LeftButton,"[""LeftButton""]",,,,,,,,,,,,,40.31986532,16.329,space,80.3030303,12.145,0,1,1,1,1,1,both_wrong.png,3,RandomDot7.png,No answer,21,5.019,,,,,,,,
,,,,,,,,,,,,,,,,,,,,,,,,,,,,,,,R_68i7aYrs5yFNwB3,1,2024-05-23_14h52.29.750,interaction task,2021.2.3,MacIntel,30.3030303,120464,,,,,,,,,,,,,,,,Smaller,Greater,,,-0.277777778,-0.54,1,0,0,LeftButton,"[""LeftButton""]",,,,,,,,,,,,,,,,,,0,2,2,2,1,5,both_right.png,10,RandomDot42.png,LeftButton,19,,,,,,,,,
,,,,,,,,,,,,,,,,,,,,,,,,,,,,,,,R_68i7aYrs5yFNwB3,1,2024-05-23_14h52.29.750,interaction task,2021.2.3,MacIntel,30.3030303,120464,,,,,,,,,,,,,,,,Greater,Smaller,,,0.245833333,-0.506666667,1,0,0,RightButton,"[""RightButton""]",,,,,,,,,,,,,,,,,,0,3,3,3,1,0,both_right.png,0,RandomDot3.png,No answer,21,,,,,,,,,
,,,,,,,,,,,,,,,,,,,,,,,,,,,,,,,R_68i7aYrs5yFNwB3,1,2024-05-23_14h52.29.750,interaction task,2021.2.3,MacIntel,30.3030303,120464,,,,,,,,,,,,,,,,Greater,Smaller,,,-0.256944444,-0.508888889,1,0,0,LeftButton,"[""LeftButton""]",,,,,,,,50,13.682,space,70,10.251,,,,,,0,4,4,4,1,1,both_wrong.png,2,RandomDot13.png,No answer,21,,6.573,,,,,,,
,,,,,,,,,,,,,,,,,,,,,,,,,,,,,,,R_68i7aYrs5yFNwB3,1,2024-05-23_14h52.29.750,interaction task,2021.2.3,MacIntel,30.3030303,120464,,,,,,,,,,,,,,,,Smaller,Greater,,,0.265277778,-0.522222222,1,0,0,RightButton,"[""RightButton""]",,,,,,,,,,,,,59.11896745,6.861,space,80.02244669,9.597,0,5,5,5,1,1,both_wrong.png,3,RandomDot23.png,No answer,20,0.7,,,,,,,,
,,,,,,,,,,,,,,,,,,,,,,,,,,,,,,,R_68i7aYrs5yFNwB3,1,2024-05-23_14h52.29.750,interaction task,2021.2.3,MacIntel,30.3030303,120464,,,,,,,,,,,,,,,,Smaller,Greater,,,0.265277778,-0.524444444,1,0,0,RightButton,"[""RightButton""]",,,,,,,,,,,,,,,,,,0,6,6,6,1,4,both_right.png,10,RandomDot41.png,RightButton,5,,,,,,,,,
,,,,,,,,,,,,,,,,,,,,,,,,,,,,,,,R_68i7aYrs5yFNwB3,1,2024-05-23_14h52.29.750,interaction task,2021.2.3,MacIntel,30.3030303,120464,,,,,,,,,,,,,,,,Greater,Smaller,,,-0.248611111,-0.506666667,1,0,0,LeftButton,"[""LeftButton""]",,,,,,,,,,,,,48.73737374,4.177,space,68.93939394,7.983,0,7,7,7,1,2,only_sub_right.png,3,RandomDot20.png,No answer,21,0.897,,,,,,,,
,,,,,,,,,,,,,,,,,,,,,,,,,,,,,,,R_68i7aYrs5yFNwB3,1,2024-05-23_14h52.29.750,interaction task,2021.2.3,MacIntel,30.3030303,120464,,,,,,,,,,,,,,,,Greater,Smaller,,,-0.270833333,-0.517777778,1,0,0,LeftButton,"[""LeftButton""]",,,,1.965277778,8.63,space,2.658,,,,,,,,,,,0,8,8,8,1,1,both_wrong.png,1,RandomDot13.png,No answer,19,,,,,,,,,
,,,,,,,,,,,,,,,,,,,,,,,,,,,,,,,R_68i7aYrs5yFNwB3,1,2024-05-23_14h52.29.750,interaction task,2021.2.3,MacIntel,30.3030303,120464,,,,,,,,,,,,,,,,Smaller,Greater,,,0.309722222,-0.515555556,1,0,0,RightButton,"[""RightButton""]",,,,,,,,49,4.951,space,50,12.299,,,,,,0,9,9,9,1,2,only_sub_right.png,2,RandomDot8.png,No answer,21,,0.651,,,,,,,
,,,,,,,,,,,,,,,,,,,,,,,,,,,,,,,R_68i7aYrs5yFNwB3,1,2024-05-23_14h52.29.750,interaction task,2021.2.3,MacIntel,30.3030303,120464,,,,,,,,,,,,,,,,Greater,Smaller,,,-0.316666667,-0.5,1,0,0,LeftButton,"[""LeftButton""]",,,,,,,,55,3.801,space,64,6.319,,,,,,0,10,10,10,1,1,both_wrong.png,2,RandomDot10.png,No answer,20,,2.327,,,,,,,
,,,,,,,,,,,,,,,,,,,,,,,,,,,,,,,R_68i7aYrs5yFNwB3,1,2024-05-23_14h52.29.750,interaction task,2021.2.3,MacIntel,30.3030303,120464,,,,,,,,,,,,,,,,Greater,Smaller,,,0.306944444,-0.528888889,1,0,0,RightButton,"[""RightButton""]",,,,,,,,,,,,,44.38832772,4.766,space,74.69135802,8.215,0,11,11,11,1,2,only_sub_right.png,3,RandomDot23.png,No answer,20,0.567,,,,,,,,
,,,,,,,,,,,,,,,,,,,,,,,,,,,,,,,R_68i7aYrs5yFNwB3,1,2024-05-23_14h52.29.750,interaction task,2021.2.3,MacIntel,30.3030303,120464,,,,,,,,,,,,,,,,Smaller,Greater,,,-0.327777778,-0.471111111,1,0,0,LeftButton,"[""LeftButton""]",86,3.035,space,,,,,,,,,,,,,,,0,12,12,12,1,3,only_sub_wrong.png,0,RandomDot9.png,No answer,19,,,1.054,,,,,,
,,,,,,,,,,,,,,,,,,,,,,,,,,,,,,,R_68i7aYrs5yFNwB3,1,2024-05-23_14h52.29.750,interaction task,2021.2.3,MacIntel,30.3030303,120464,,,,,,,,,,,,,,,,Smaller,Greater,,,-0.288888889,-0.5,1,0,0,LeftButton,"[""LeftButton""]",,,,,,,,45,6.645,space,75,11.581,,,,,,0,13,13,13,1,3,only_sub_wrong.png,2,RandomDot40.png,No answer,20,,3.371,,,,,,,
,,,,,,,,,,,,,,,,,,,,,,,,,,,,,,,R_68i7aYrs5yFNwB3,1,2024-05-23_14h52.29.750,interaction task,2021.2.3,MacIntel,30.3030303,120464,,,,,,,,,,,,,,,,Greater,Smaller,,,0.294444444,-0.457777778,1,0,0,RightButton,"[""RightButton""]",,,,,,,,,,,,,74.1301908,11.641,space,64.59034792,14.445,0,14,14,14,1,2,only_sub_right.png,3,RandomDot10.png,No answer,19,0.354,,,,,,,,
,,,,,,,,,,,,,,,,,,,,,,,,,,,,,,,R_68i7aYrs5yFNwB3,1,2024-05-23_14h52.29.750,interaction task,2021.2.3,MacIntel,30.3030303,120464,,,,,,,,,,,,,,,,Greater,Smaller,,,0.322222222,-0.48,1,0,0,RightButton,"[""RightButton""]",,,,2.013888889,3.851,space,2.006,,,,,,,,,,,0,15,15,15,1,1,both_wrong.png,1,RandomDot26.png,No answer,21,,,,,,,,,
,,,,,,,,,,,,,,,,,,,,,,,,,,,,,,,R_68i7aYrs5yFNwB3,1,2024-05-23_14h52.29.750,interaction task,2021.2.3,MacIntel,30.3030303,120464,,,,,,,,,,,,,,,,Greater,Smaller,,,0.2375,-0.484444444,1,0,0,RightButton,"[""RightButton""]",85,2.388,space,,,,,,,,,,,,,,,0,16,16,16,1,3,only_sub_wrong.png,0,RandomDot24.png,No answer,20,,,1.043,,,,,,
,,,,,,,,,,,,,,,,,,,,,,,,,,,,,,,R_68i7aYrs5yFNwB3,1,2024-05-23_14h52.29.750,interaction task,2021.2.3,MacIntel,30.3030303,120464,,,,,,,,,,,,,,,,Smaller,Greater,,,0.347222222,-0.462222222,1,0,0,RightButton,"[""RightButton""]",,,,,,,,,,,,,76.79573513,2.382,space,76.09427609,4.712,0,17,17,17,1,3,only_sub_wrong.png,3,RandomDot18.png,No answer,21,0.426,,,,,,,,
,,,,,,,,,,,,,,,,,,,,,,,,,,,,,,,R_68i7aYrs5yFNwB3,1,2024-05-23_14h52.29.750,interaction task,2021.2.3,MacIntel,30.3030303,120464,,,,,,,,,,,,,,,,Smaller,Greater,,,-0.238888889,-0.48,1,0,0,LeftButton,"[""LeftButton""]",,,,2.423611111,3.433,space,0.654,,,,,,,,,,,0,18,18,18,1,2,only_sub_right.png,1,RandomDot38.png,No answer,19,,,,,,,,,
,,,,,,,,,,,,,,,,,,,,,,,,,,,,,,,R_68i7aYrs5yFNwB3,1,2024-05-23_14h52.29.750,interaction task,2021.2.3,MacIntel,30.3030303,120464,,,,,,,,,,,,,,,,Greater,Smaller,,,0.343055556,-0.535555556,1,0,0,RightButton,"[""RightButton""]",65,6.509,space,,,,,,,,,,,,,,,0,19,19,19,1,3,only_sub_wrong.png,0,RandomDot38.png,No answer,21,,,4.621,,,,,,
,,,,,,,,,,,,,,,,,,,,,,,,,,,,,,,R_68i7aYrs5yFNwB3,1,2024-05-23_14h52.29.750,interaction task,2021.2.3,MacIntel,30.3030303,120464,,,,,,,,,,,,,,,,Greater,Smaller,,,0.316666667,-0.482222222,1,0,0,RightButton,"[""RightButton""]",76,7.854,space,,,,,,,,,,,,,,,0,20,20,20,1,1,both_wrong.png,0,RandomDot10.png,No answer,20,,,0.367,,,,,,
,,,,,,,,,,,,,,,,,,,,,,,,,,,,,,,R_68i7aYrs5yFNwB3,1,2024-05-23_14h52.29.750,interaction task,2021.2.3,MacIntel,30.3030303,120464,,,,,,,,,,,,,,,,Greater,Smaller,,,0.302777778,0.224444444,0,0,0,,[],,,,,,,,,,,,,,,,,,0,21,21,21,1,2,only_sub_right.png,1,RandomDot4.png,No answer,19,,,,111,,,,,
,,,,,,,,,,,,,,,,,,,,,,,,,,,,,,,R_68i7aYrs5yFNwB3,1,2024-05-23_14h52.29.750,interaction task,2021.2.3,MacIntel,30.3030303,120464,,,,,,,,,,,,,,,,Greater,Smaller,,,-0.258333333,-0.513333333,0,0,0,,[],,,,,,,,,,,,,,,,,,0,22,22,22,1,1,both_wrong.png,3,RandomDot6.png,No answer,21,,,,89,,,,,
,,,,,,,,,,,,,,,,,,,,,,,,,,,,,,,R_68i7aYrs5yFNwB3,1,2024-05-23_14h52.29.750,interaction task,2021.2.3,MacIntel,30.3030303,120464,,,,,,,,,,,,,,,,Smaller,Greater,,,-0.326388889,-0.533333333,1,0,0,LeftButton,"[""LeftButton""]",,,,,,,,54,6.434,space,43,8.55,,,,,,0,23,23,23,1,2,only_sub_right.png,2,RandomDot22.png,No answer,19,,0.585,,,,,,,
,,,,,,,,,,,,,,,,,,,,,,,,,,,,,,,R_68i7aYrs5yFNwB3,1,2024-05-23_14h52.29.750,interaction task,2021.2.3,MacIntel,30.3030303,120464,,,,,,,,,,,,,,,,Greater,Smaller,,,0.305555556,-0.52,1,0,0,RightButton,"[""RightButton""]",69,3.207,space,,,,,,,,,,,,,,,0,24,24,24,1,1,both_wrong.png,0,RandomDot12.png,No answer,21,,,1.87,,,,,,
,,,,,,,,,,,,,,,,,,,,,,,,,,,,,,,R_68i7aYrs5yFNwB3,1,2024-05-23_14h52.29.750,interaction task,2021.2.3,MacIntel,30.3030303,120464,,,,,,,,,,,,,,,,Greater,Smaller,,,-0.301388889,-0.502222222,1,0,0,LeftButton,"[""LeftButton""]",,,,,,,,,,,,,68.51851852,3.195,space,85.49382716,6.176,0,25,25,25,1,3,only_sub_wrong.png,3,RandomDot20.png,No answer,19,0.496,,,,,,,,
,,,,,,,,,,,,,,,,,,,,,,,,,,,,,,,R_68i7aYrs5yFNwB3,1,2024-05-23_14h52.29.750,interaction task,2021.2.3,MacIntel,30.3030303,120464,,,,,,,,,,,,,,,,Smaller,Greater,,,-0.3,-0.504444444,1,0,0,LeftButton,"[""LeftButton""]",,,,,,,,,,,,,63.74859708,2.698,space,83.52974186,5.914,0,26,26,26,1,3,only_sub_wrong.png,3,RandomDot36.png,No answer,21,0.588,,,,,,,,
,,,,,,,,,,,,,,,,,,,,,,,,,,,,,,,R_68i7aYrs5yFNwB3,1,2024-05-23_14h52.29.750,interaction task,2021.2.3,MacIntel,30.3030303,120464,,,,,,,,,,,,,,,,Greater,Smaller,,,0.2875,-0.477777778,1,0,0,RightButton,"[""RightButton""]",,,,,,,,45,2.589,space,43,4.72,,,,,,0,27,27,27,1,3,only_sub_wrong.png,2,RandomDot13.png,No answer,21,,0.433,,,,,,,
,,,,,,,,,,,,,,,,,,,,,,,,,,,,,,,R_68i7aYrs5yFNwB3,1,2024-05-23_14h52.29.750,interaction task,2021.2.3,MacIntel,30.3030303,120464,,,,,,,,,,,,,,,,Greater,Smaller,,,-0.265277778,-0.515555556,1,0,0,LeftButton,"[""LeftButton""]",74,4.391,space,,,,,,,,,,,,,,,0,28,28,28,1,2,only_sub_right.png,0,RandomDot21.png,No answer,19,,,0.522,,,,,,
,,,,,,,,,,,,,,,,,,,,,,,,,,,,,,,R_68i7aYrs5yFNwB3,1,2024-05-23_14h52.29.750,interaction task,2021.2.3,MacIntel,30.3030303,120464,,,,,,,,,,,,,,,,Smaller,Greater,,,0.293055556,-0.473333333,1,0,0,RightButton,"[""RightButton""]",,,,,,,,,,,,,,,,,,0,29,29,29,1,0,both_right.png,1,RandomDot3.png,No answer,19,,,,,,,,,
,,,,,,,,,,,,,,,,,,,,,,,,,,,,,,,R_68i7aYrs5yFNwB3,1,2024-05-23_14h52.29.750,interaction task,2021.2.3,MacIntel,30.3030303,120464,,,,,,,,,,,,,,,,Smaller,Greater,,,-0.245833333,-0.537777778,1,0,0,LeftButton,"[""LeftButton""]",,,,,,,,46,3.63,space,36,9.229,,,,,,0,30,30,30,1,3,only_sub_wrong.png,2,RandomDot31.png,No answer,19,,2.467,,,,,,,
,,,,,,,,,,,,,,,,,,,,,,,,,,,,,,,R_68i7aYrs5yFNwB3,1,2024-05-23_14h52.29.750,interaction task,2021.2.3,MacIntel,30.3030303,120464,,,,,,,,,,,,,,,,Smaller,Greater,,,-0.3125,-0.54,1,0,0,LeftButton,"[""LeftButton""]",,,,,,,,45,1.783,space,26,4.568,,,,,,0,31,31,31,1,2,only_sub_right.png,2,RandomDot22.png,No answer,20,,2.705,,,,,,,
,,,,,,,,,,,,,,,,,,,,,,,,,,,,,,,R_68i7aYrs5yFNwB3,1,2024-05-23_14h52.29.750,interaction task,2021.2.3,MacIntel,30.3030303,120464,,,,,,,,,,,,,,,,Greater,Smaller,,,-0.311111111,-0.475555556,1,0,0,LeftButton,"[""LeftButton""]",,,,1.472222222,2.166,space,0.552,,,,,,,,,,,0,32,32,32,1,3,only_sub_wrong.png,1,RandomDot11.png,No answer,20,,,,,,,,,
,,,,,,,,,,,,,,,,,,,,,,,,,,,,,,,R_68i7aYrs5yFNwB3,1,2024-05-23_14h52.29.750,interaction task,2021.2.3,MacIntel,30.3030303,120464,,,,,,,,,,,,,,,,Smaller,Greater,,,-0.277777778,-0.533333333,1,0,0,LeftButton,"[""LeftButton""]",,,,1.611111111,1.336,space,0.355,,,,,,,,,,,0,33,33,33,1,1,both_wrong.png,1,RandomDot8.png,No answer,21,,,,,,,,,
,,,,,,,,,,,,,,,,,,,,,,,,,,,,,,,R_68i7aYrs5yFNwB3,1,2024-05-23_14h52.29.750,interaction task,2021.2.3,MacIntel,30.3030303,120464,,,,,,,,,,,,,,,,Greater,Smaller,,,0.322222222,-0.533333333,1,0,0,RightButton,"[""RightButton""]",,,,,,,,,,,,,,,,,,0,34,34,34,1,0,both_right.png,2,RandomDot25.png,No answer,19,,,,,,,,,
,,,,,,,,,,,,,,,,,,,,,,,,,,,,,,,R_68i7aYrs5yFNwB3,1,2024-05-23_14h52.29.750,interaction task,2021.2.3,MacIntel,30.3030303,120464,,,,,,,,,,,,,,,,Greater,Smaller,,,0.297222222,-0.477777778,1,0,0,RightButton,"[""RightButton""]",,,,1.486111111,1.821,space,0.534,,,,,,,,,,,0,35,35,35,1,3,only_sub_wrong.png,1,RandomDot22.png,No answer,19,,,,,,,,,
,,,,,,,,,,,,,,,,,,,,,,,,,,,,,,,R_68i7aYrs5yFNwB3,1,2024-05-23_14h52.29.750,interaction task,2021.2.3,MacIntel,30.3030303,120464,,,,,,,,,,,,,,,,Greater,Smaller,,,0.254166667,-0.491111111,1,0,0,RightButton,"[""RightButton""]",,,,,,,,43,3.749,space,55,7.497,,,,,,0,36,36,36,1,1,both_wrong.png,2,RandomDot16.png,No answer,20,,0.37,,,,,,,
,,,,,,,,,,,,,,,,,,,,,,,,,,,,,,,R_68i7aYrs5yFNwB3,1,2024-05-23_14h52.29.750,interaction task,2021.2.3,MacIntel,30.3030303,120464,,,,,,,,,,,,,,,,Greater,Smaller,,,0.213888889,-0.504444444,1,0,0,RightButton,"[""RightButton""]",75,2.456,space,,,,,,,,,,,,,,,0,37,37,37,1,1,both_wrong.png,0,RandomDot32.png,No answer,19,,,0.255,,,,,,
,,,,,,,,,,,,,,,,,,,,,,,,,,,,,,,R_68i7aYrs5yFNwB3,1,2024-05-23_14h52.29.750,interaction task,2021.2.3,MacIntel,30.3030303,120464,,,,,,,,,,,,,,,,Smaller,Greater,,,0.280555556,-0.531111111,1,0,0,RightButton,"[""RightButton""]",,,,1.625,1.915,space,0.366,,,,,,,,,,,0,38,38,38,1,3,only_sub_wrong.png,1,RandomDot40.png,No answer,19,,,,,,,,,
,,,,,,,,,,,,,,,,,,,,,,,,,,,,,,,R_68i7aYrs5yFNwB3,1,2024-05-23_14h52.29.750,interaction task,2021.2.3,MacIntel,30.3030303,120464,,,,,,,,,,,,,,,,Smaller,Greater,,,-0.304166667,-0.531111111,1,0,0,LeftButton,"[""LeftButton""]",85,4.625,space,,,,,,,,,,,,,,,0,39,39,39,1,2,only_sub_right.png,0,RandomDot17.png,No answer,20,,,0.321,,,,,,
,,,,,,,,,,,,,,,,,,,,,,,,,,,,,,,R_68i7aYrs5yFNwB3,1,2024-05-23_14h52.29.750,interaction task,2021.2.3,MacIntel,30.3030303,120464,,,,,,,,,,,,,,,,Smaller,Greater,,,0.304166667,-0.484444444,1,0,0,RightButton,"[""RightButton""]",54,2.987,space,,,,,,,,,,,,,,,0,40,40,40,1,2,only_sub_right.png,0,RandomDot29.png,No answer,20,,,1.061,,,,,,
,,,,,,,,,,,,,,,,,,,,,,,,,,,,,,,R_68i7aYrs5yFNwB3,1,2024-05-23_14h52.29.750,interaction task,2021.2.3,MacIntel,30.3030303,120464,,,,,,,,,,,,,,,,Greater,Smaller,,,0.248611111,-0.511111111,1,0,0,RightButton,"[""RightButton""]",,,,,,,,,,,,,,,,,,0,41,41,41,1,0,both_right.png,3,RandomDot30.png,No answer,19,,,,,,,,,
,,,,,,,,,,,,,,,,,,,,,,,,,,,,,,,R_68i7aYrs5yFNwB3,1,2024-05-23_14h52.29.750,interaction task,2021.2.3,MacIntel,30.3030303,120464,,,,,,,,,,,,,,,,Greater,Smaller,,,0.258333333,-0.524444444,1,0,0,RightButton,"[""RightButton""]",,,,,,,,,,,,,56.17283951,5.45,space,73.84960718,8.094,,,,,,1,both_wrong.png,3,RandomDot6.png,No answer,21,0.53,,,,0,0,0,1,1
,,,,,,,,,,,,,,,,,,,,,,,,,,,,,,,R_68i7aYrs5yFNwB3,1,2024-05-23_14h52.29.750,interaction task,2021.2.3,MacIntel,30.3030303,120464,,,,,,,,,,,,,,,,Greater,Smaller,,,0.281944444,-0.486666667,1,0,0,RightButton,"[""RightButton""]",,,,1.173611111,2.203,space,0.359,,,,,,,,,,,,,,,,2,only_sub_right.png,1,RandomDot4.png,No answer,19,,,,,0,1,1,0,1
