chooserow,ParID,pre_instru_resp_2.keys,pre_instru_resp_2.rt,pre_instru_resp_3.keys,pre_instru_resp_3.rt,pre_instru_resp_9.keys,pre_instru_resp_9.rt,pre_instru_resp_8.keys,pre_instru_resp_8.rt,pre_instru_resp_4.keys,pre_instru_resp_4.rt,pre_instru_resp_5.keys,pre_instru_resp_5.rt,pre_instru_resp_6.keys,pre_instru_resp_6.rt,key_resp_3.keys,key_resp_3.rt,key_resp_4.keys,key_resp_4.rt,key_resp_5.keys,key_resp_5.rt,key_resp_6.keys,key_resp_6.rt,key_resp_7.keys,key_resp_7.rt,trials_2.thisRepN,trials_2.thisTrialN,trials_2.thisN,trials_2.thisIndex,trials_2.ran,participant,session,date,expName,psychopyVersion,OS,frameRate,SONAid,pre_instru_resp.keys,pre_instru_resp.rt,clicked,judge_2.x,judge_2.y,judge_2.leftButton,judge_2.midButton,judge_2.rightButton,judge_2.clicked_name,trials.thisRepN,trials.thisTrialN,trials.thisN,trials.thisIndex,trials.ran,prac_answer,prac_dot_sti,dotlefttext,dotrighttext,prac_acc,judge.x,judge.y,judge.leftButton,judge.midButton,judge.rightButton,judge.clicked_name,clicked_guilt,slider_guilt.response,slider_guilt.rt,key_guilt.keys,share_slider.response,share_slider.rt,key_share.keys,slider_apology.response,slider_apology.rt,key_apology.keys,slider_hide.response,slider_hide.rt,slider_forgiveness.response,slider_forgiveness.rt,key_forgiveness.keys,key_forgiveness.rt,slider_mad.response,slider_mad.rt,trialseq.thisRepN,trialseq.thisTrialN,trialseq.thisN,trialseq.thisIndex,trialseq.ran,type_trial,stipic,DV,picture,answer,number,key_apology.rt,incompleteTrials,key_share.rt,key_guilt.rt,trials_redo.thisRepN,trials_redo.thisTrialN,trials_redo.thisN,trials_redo.thisIndex,trials_redo.ran
"[184,78,143,79,4,71,100,132,56,15,77,108,171,169,70,32,85,43,146,153,63,131,135,202,182,109,49,164,130,120,99,162,189,89,107,53,166,152,112,93,193,168]",R_6FVQ6tVpIriVaju,space,1.5058,space,3.6436,space,12.7343,space,20.9625,space,24.0842,space,8.2265,space,3.6755,1,18.1431,1,7.9401,3,6.3702,3,19.3866,1,8.9516,0,0,0,0,1,R_6FVQ6tVpIriVaju,1,2024-05-30_21h47.31.691,interaction task,2021.2.3,MacIntel,58.82352941,115201,,,,,,,,,,,,,,,,,,,,,,,,,,,,,,,,,,,,,,,,,,,,,,,,,,,,,,,,,,,,,,,
,,,,space,1.7173,space,6.7182,space,4.6172,space,21.1749,space,3.8692,space,0.9786,3,3.5915,1,1.7312,3,4.3866,2,2.5847,2,1.6686,1,0,1,0,1,R_6FVQ6tVpIriVaju,1,2024-05-30_21h47.31.691,interaction task,2021.2.3,MacIntel,58.82352941,115201,,,,,,,,,,,,,,,,,,,,,,,,,,,,,,,,,,,,,,,,,,,,,,,,,,,,,,,,,,,,,,,
,,,,,,,,,,,,,,,,,,,,,,,,,,,,,,,R_6FVQ6tVpIriVaju,1,2024-05-30_21h47.31.691,interaction task,2021.2.3,MacIntel,58.82352941,115201,space,3.0666,"[""LeftButton_2""]",-0.22425198,-0.284978299,1,0,0,LeftButton_2,0,0,0,0,1,RightButton_2,11dot1.png,Smaller,Greater,,,,,,,,,,,,,,,,,,,,,,,,,,,,,,,,,,,,,,,,,,,,,
,,,,,,,,,,,,,,,,,,,,,,,,,,,,,,,R_6FVQ6tVpIriVaju,1,2024-05-30_21h47.31.691,interaction task,2021.2.3,MacIntel,58.82352941,115201,,,"[""RightButton_2""]",0.22554813,-0.286332058,1,0,0,RightButton_2,0,1,1,2,1,LeftButton_2,11dot1.png,Greater,Smaller,,,,,,,,,,,,,,,,,,,,,,,,,,,,,,,,,,,,,,,,,,,,,
,,,,,,,,,,,,,,,,,,,,,,,,,,,,,,,R_6FVQ6tVpIriVaju,1,2024-05-30_21h47.31.691,interaction task,2021.2.3,MacIntel,58.82352941,115201,,,"[""LeftButton_2""]",-0.257794359,-0.29621582,1,0,0,LeftButton_2,0,2,2,1,1,LeftButton_2,9dot1.png,Smaller,Greater,,,,,,,,,,,,,,,,,,,,,,,,,,,,,,,,,,,,,,,,,,,,,
,,,,,,,,,,,,,,,,,,,,,,,,,,,,,,,R_6FVQ6tVpIriVaju,1,2024-05-30_21h47.31.691,interaction task,2021.2.3,MacIntel,58.82352941,115201,,,,,,,,,,,,,,,,,Greater,Smaller,0.2,-0.245942858,-0.501026883,1,0,0,LeftButton,"[""LeftButton""]",,,,,,,,,,,,59.27426117,11.9575,space,1.1876,59.76208003,17.9904,0,0,0,0,1,3,only_sub_wrong.png,3,RandomDot20.png,No answer,20,,,,,,,,,
,,,,,,,,,,,,,,,,,,,,,,,,,,,,,,,R_6FVQ6tVpIriVaju,1,2024-05-30_21h47.31.691,interaction task,2021.2.3,MacIntel,58.82352941,115201,,,,,,,,,,,,,,,,,Smaller,Greater,,0.269883304,-0.512362196,1,0,0,RightButton,"[""RightButton""]",,,,,,,88,6.5763,space,34,8.8491,,,,,,,0,1,1,1,1,1,both_wrong.png,2,RandomDot19.png,No answer,19,0.8918,,,,,,,,
,,,,,,,,,,,,,,,,,,,,,,,,,,,,,,,R_6FVQ6tVpIriVaju,1,2024-05-30_21h47.31.691,interaction task,2021.2.3,MacIntel,58.82352941,115201,,,,,,,,,,,,,,,,,Smaller,Greater,,0.307115936,-0.494275581,0,0,0,,[],,,,,,,,,,,,,,,,,,0,2,2,2,1,2,only_sub_right.png,3,RandomDot31.png,No answer,19,,143,,,,,,,
,,,,,,,,,,,,,,,,,,,,,,,,,,,,,,,R_6FVQ6tVpIriVaju,1,2024-05-30_21h47.31.691,interaction task,2021.2.3,MacIntel,58.82352941,115201,,,,,,,,,,,,,,,,,Smaller,Greater,,0.276578606,-0.493532986,1,0,0,RightButton,"[""RightButton""]",,,,,,,86,2.2956,space,36,3.8897,,,,,,,0,3,3,3,1,1,both_wrong.png,2,RandomDot24.png,No answer,21,0.7007,,,,,,,,
,,,,,,,,,,,,,,,,,,,,,,,,,,,,,,,R_6FVQ6tVpIriVaju,1,2024-05-30_21h47.31.691,interaction task,2021.2.3,MacIntel,58.82352941,115201,,,,,,,,,,,,,,,,,Greater,Smaller,,-0.32789065,-0.515070394,1,0,0,LeftButton,"[""LeftButton""]",,,,,,,,,,,,,,,,,,0,4,4,4,1,0,both_right.png,0,RandomDot20.png,No answer,19,,,,,,,,,
,,,,,,,,,,,,,,,,,,,,,,,,,,,,,,,R_6FVQ6tVpIriVaju,1,2024-05-30_21h47.31.691,interaction task,2021.2.3,MacIntel,58.82352941,115201,,,,,,,,,,,,,,,,,Smaller,Greater,,0.206233724,-0.455829264,1,0,0,RightButton,"[""RightButton""]",,,,3.026017931,13.8112,space,,,,,,,,,,,,0,5,5,5,1,1,both_wrong.png,1,RandomDot14.png,No answer,20,,,2.7557,,,,,,
,,,,,,,,,,,,,,,,,,,,,,,,,,,,,,,R_6FVQ6tVpIriVaju,1,2024-05-30_21h47.31.691,interaction task,2021.2.3,MacIntel,58.82352941,115201,,,,,,,,,,,,,,,,,Greater,Smaller,,0.274142541,-0.515189345,1,0,0,RightButton,"[""RightButton""]",29,5.2355,space,,,,,,,,,,,,,,,0,6,6,6,1,2,only_sub_right.png,0,RandomDot33.png,No answer,21,,,,1.8215,,,,,
,,,,,,,,,,,,,,,,,,,,,,,,,,,,,,,R_6FVQ6tVpIriVaju,1,2024-05-30_21h47.31.691,interaction task,2021.2.3,MacIntel,58.82352941,115201,,,,,,,,,,,,,,,,,Greater,Smaller,,0.25747189,-0.529419217,1,0,0,RightButton,"[""RightButton""]",,,,,,,,,,,,35.12033448,4.6525,space,0.4668,33.58514788,5.8411,0,7,7,7,1,2,only_sub_right.png,3,RandomDot20.png,No answer,21,,,,,,,,,
,,,,,,,,,,,,,,,,,,,,,,,,,,,,,,,R_6FVQ6tVpIriVaju,1,2024-05-30_21h47.31.691,interaction task,2021.2.3,MacIntel,58.82352941,115201,,,,,,,,,,,,,,,,,Smaller,Greater,,0.312040117,-0.5263109,1,0,0,RightButton,"[""RightButton""]",70,2.6133,space,,,,,,,,,,,,,,,0,8,8,8,1,1,both_wrong.png,0,RandomDot39.png,No answer,21,,,,0.5842,,,,,
,,,,,,,,,,,,,,,,,,,,,,,,,,,,,,,R_6FVQ6tVpIriVaju,1,2024-05-30_21h47.31.691,interaction task,2021.2.3,MacIntel,58.82352941,115201,,,,,,,,,,,,,,,,,Greater,Smaller,,0.277589247,-0.477743598,1,0,0,RightButton,"[""RightButton""]",,,,,,,,,,,,,,,,,,0,9,9,9,1,0,both_right.png,1,RandomDot35.png,No answer,21,,,,,,,,,
,,,,,,,,,,,,,,,,,,,,,,,,,,,,,,,R_6FVQ6tVpIriVaju,1,2024-05-30_21h47.31.691,interaction task,2021.2.3,MacIntel,58.82352941,115201,,,,,,,,,,,,,,,,,Greater,Smaller,,0.282620833,-0.499261475,1,0,0,RightButton,"[""RightButton""]",,,,,,,94,4.7414,space,31,5.9624,,,,,,,0,10,10,10,1,1,both_wrong.png,2,RandomDot13.png,No answer,21,0.8834,,,,,,,,
,,,,,,,,,,,,,,,,,,,,,,,,,,,,,,,R_6FVQ6tVpIriVaju,1,2024-05-30_21h47.31.691,interaction task,2021.2.3,MacIntel,58.82352941,115201,,,,,,,,,,,,,,,,,Greater,Smaller,,0.224973975,-0.473121202,1,0,0,RightButton,"[""RightButton""]",,,,1.806676653,7.4257,space,,,,,,,,,,,,0,11,11,11,1,2,only_sub_right.png,1,RandomDot3.png,No answer,20,,,0.88,,,,,,
,,,,,,,,,,,,,,,,,,,,,,,,,,,,,,,R_6FVQ6tVpIriVaju,1,2024-05-30_21h47.31.691,interaction task,2021.2.3,MacIntel,58.82352941,115201,,,,,,,,,,,,,,,,,Greater,Smaller,,-0.289640003,-0.490972629,1,0,0,LeftButton,"[""LeftButton""]",,,,,,,85,1.9771,space,30,3.1943,,,,,,,0,12,12,12,1,3,only_sub_wrong.png,2,RandomDot23.png,No answer,20,0.3564,,,,,,,,
,,,,,,,,,,,,,,,,,,,,,,,,,,,,,,,R_6FVQ6tVpIriVaju,1,2024-05-30_21h47.31.691,interaction task,2021.2.3,MacIntel,58.82352941,115201,,,,,,,,,,,,,,,,,Greater,Smaller,,-0.300473743,-0.517639974,1,0,0,LeftButton,"[""LeftButton""]",,,,,,,85,2.1768,space,43,3.5598,,,,,,,0,13,13,13,1,3,only_sub_wrong.png,2,RandomDot1.png,No answer,20,0.9085,,,,,,,,
,,,,,,,,,,,,,,,,,,,,,,,,,,,,,,,R_6FVQ6tVpIriVaju,1,2024-05-30_21h47.31.691,interaction task,2021.2.3,MacIntel,58.82352941,115201,,,,,,,,,,,,,,,,,Smaller,Greater,,0.323713345,-0.518904351,1,0,0,RightButton,"[""RightButton""]",,,,0.79394065,4.8909,space,,,,,,,,,,,,0,14,14,14,1,1,both_wrong.png,1,RandomDot29.png,No answer,19,,,0.9397,,,,,,
,,,,,,,,,,,,,,,,,,,,,,,,,,,,,,,R_6FVQ6tVpIriVaju,1,2024-05-30_21h47.31.691,interaction task,2021.2.3,MacIntel,58.82352941,115201,,,,,,,,,,,,,,,,,Smaller,Greater,,0.323206668,-0.523253581,1,0,0,RightButton,"[""RightButton""]",,,,,,,,,,,,,,,,,,0,15,15,15,1,0,both_right.png,2,RandomDot29.png,No answer,20,,,,,,,,,
,,,,,,,,,,,,,,,,,,,,,,,,,,,,,,,R_6FVQ6tVpIriVaju,1,2024-05-30_21h47.31.691,interaction task,2021.2.3,MacIntel,58.82352941,115201,,,,,,,,,,,,,,,,,Greater,Smaller,,0.258125305,-0.503580458,1,0,0,RightButton,"[""RightButton""]",,,,,,,,,,,,63.68049767,4.5063,space,0.399,50.86861213,6.7968,0,16,16,16,1,1,both_wrong.png,3,RandomDot40.png,No answer,21,,,,,,,,,
,,,,,,,,,,,,,,,,,,,,,,,,,,,,,,,R_6FVQ6tVpIriVaju,1,2024-05-30_21h47.31.691,interaction task,2021.2.3,MacIntel,58.82352941,115201,,,,,,,,,,,,,,,,,Smaller,Greater,,-0.336326006,-0.506196425,1,0,0,LeftButton,"[""LeftButton""]",,,,,,,,,,,,,,,,,,0,17,17,17,1,0,both_right.png,3,RandomDot3.png,No answer,21,,,,,,,,,
,,,,,,,,,,,,,,,,,,,,,,,,,,,,,,,R_6FVQ6tVpIriVaju,1,2024-05-30_21h47.31.691,interaction task,2021.2.3,MacIntel,58.82352941,115201,,,,,,,,,,,,,,,,,Greater,Smaller,,0.287040965,-0.477634006,1,0,0,RightButton,"[""RightButton""]",80,4.3126,space,,,,,,,,,,,,,,,0,18,18,18,1,3,only_sub_wrong.png,0,RandomDot38.png,No answer,21,,,,0.9675,,,,,
,,,,,,,,,,,,,,,,,,,,,,,,,,,,,,,R_6FVQ6tVpIriVaju,1,2024-05-30_21h47.31.691,interaction task,2021.2.3,MacIntel,58.82352941,115201,,,,,,,,,,,,,,,,,Smaller,Greater,,-0.298756282,-0.474575195,1,0,0,LeftButton,"[""LeftButton""]",83,1.7625,space,,,,,,,,,,,,,,,0,19,19,19,1,3,only_sub_wrong.png,0,RandomDot25.png,No answer,20,,,,0.6342,,,,,
,,,,,,,,,,,,,,,,,,,,,,,,,,,,,,,R_6FVQ6tVpIriVaju,1,2024-05-30_21h47.31.691,interaction task,2021.2.3,MacIntel,58.82352941,115201,,,,,,,,,,,,,,,,,Greater,Smaller,,-0.250363753,-0.536413845,1,0,0,LeftButton,"[""LeftButton""]",,,,1.281137255,3.4413,space,,,,,,,,,,,,0,20,20,20,1,1,both_wrong.png,1,RandomDot27.png,No answer,19,,,0.784,,,,,,
,,,,,,,,,,,,,,,,,,,,,,,,,,,,,,,R_6FVQ6tVpIriVaju,1,2024-05-30_21h47.31.691,interaction task,2021.2.3,MacIntel,58.82352941,115201,,,,,,,,,,,,,,,,,Smaller,Greater,,-0.305793847,-0.517828776,1,0,0,LeftButton,"[""LeftButton""]",,,,,,,62,5.4084,space,44,8.0607,,,,,,,0,21,21,21,1,2,only_sub_right.png,2,RandomDot5.png,No answer,21,0.669,,,,,,,,
,,,,,,,,,,,,,,,,,,,,,,,,,,,,,,,R_6FVQ6tVpIriVaju,1,2024-05-30_21h47.31.691,interaction task,2021.2.3,MacIntel,58.82352941,115201,,,,,,,,,,,,,,,,,Greater,Smaller,,0.279268561,-0.518961724,1,0,0,RightButton,"[""RightButton""]",,,,,,,,,,,,64.27827058,3.3411,space,0.4309,65.05472202,7.0541,0,22,22,22,1,2,only_sub_right.png,3,RandomDot26.png,No answer,20,,,,,,,,,
,,,,,,,,,,,,,,,,,,,,,,,,,,,,,,,R_6FVQ6tVpIriVaju,1,2024-05-30_21h47.31.691,interaction task,2021.2.3,MacIntel,58.82352941,115201,,,,,,,,,,,,,,,,,Smaller,Greater,,-0.261254205,-0.541595323,1,0,0,LeftButton,"[""LeftButton""]",,,,,,,,,,,,,,,,,,0,23,23,23,1,5,both_right.png,10,RandomDot42.png,LeftButton,21,,,,,,,,,
,,,,,,,,,,,,,,,,,,,,,,,,,,,,,,,R_6FVQ6tVpIriVaju,1,2024-05-30_21h47.31.691,interaction task,2021.2.3,MacIntel,58.82352941,115201,,,,,,,,,,,,,,,,,Greater,Smaller,,0.236583032,-0.485133735,1,0,0,RightButton,"[""RightButton""]",,,,,,,,,,,,59.93971391,5.5566,space,0.3671,61.90665916,6.724,0,24,24,24,1,3,only_sub_wrong.png,3,RandomDot8.png,No answer,21,,,,,,,,,
,,,,,,,,,,,,,,,,,,,,,,,,,,,,,,,R_6FVQ6tVpIriVaju,1,2024-05-30_21h47.31.691,interaction task,2021.2.3,MacIntel,58.82352941,115201,,,,,,,,,,,,,,,,,Greater,Smaller,,-0.252025859,-0.485218641,1,0,0,LeftButton,"[""LeftButton""]",,,,1.279140049,2.5445,space,,,,,,,,,,,,0,25,25,25,1,2,only_sub_right.png,1,RandomDot3.png,No answer,19,,,1.1711,,,,,,
,,,,,,,,,,,,,,,,,,,,,,,,,,,,,,,R_6FVQ6tVpIriVaju,1,2024-05-30_21h47.31.691,interaction task,2021.2.3,MacIntel,58.82352941,115201,,,,,,,,,,,,,,,,,Greater,Smaller,,0.333398522,-0.486236437,1,0,0,RightButton,"[""RightButton""]",71,2.225,space,,,,,,,,,,,,,,,0,26,26,26,1,1,both_wrong.png,0,RandomDot16.png,No answer,19,,,,0.351,,,,,
,,,,,,,,,,,,,,,,,,,,,,,,,,,,,,,R_6FVQ6tVpIriVaju,1,2024-05-30_21h47.31.691,interaction task,2021.2.3,MacIntel,58.82352941,115201,,,,,,,,,,,,,,,,,Smaller,Greater,,0.264633094,-0.506127523,1,0,0,RightButton,"[""RightButton""]",,,,1.199687958,4.2152,space,,,,,,,,,,,,0,27,27,27,1,3,only_sub_wrong.png,1,RandomDot40.png,No answer,19,,,0.8376,,,,,,
,,,,,,,,,,,,,,,,,,,,,,,,,,,,,,,R_6FVQ6tVpIriVaju,1,2024-05-30_21h47.31.691,interaction task,2021.2.3,MacIntel,58.82352941,115201,,,,,,,,,,,,,,,,,Smaller,Greater,,-0.2900742,-0.514609918,1,0,0,LeftButton,"[""LeftButton""]",,,,,,,63,5.7737,space,51,7.9747,,,,,,,0,28,28,28,1,2,only_sub_right.png,2,RandomDot8.png,No answer,21,0.4296,,,,,,,,
,,,,,,,,,,,,,,,,,,,,,,,,,,,,,,,R_6FVQ6tVpIriVaju,1,2024-05-30_21h47.31.691,interaction task,2021.2.3,MacIntel,58.82352941,115201,,,,,,,,,,,,,,,,,Greater,Smaller,,0.337555355,-0.518506131,1,0,0,RightButton,"[""RightButton""]",,,,,,,62,4.4745,space,51,5.511,,,,,,,0,29,29,29,1,2,only_sub_right.png,2,RandomDot21.png,No answer,21,0.3391,,,,,,,,
,,,,,,,,,,,,,,,,,,,,,,,,,,,,,,,R_6FVQ6tVpIriVaju,1,2024-05-30_21h47.31.691,interaction task,2021.2.3,MacIntel,58.82352941,115201,,,,,,,,,,,,,,,,,Greater,Smaller,,0.250721063,-0.492853597,1,0,0,RightButton,"[""RightButton""]",69,3.044,space,,,,,,,,,,,,,,,0,30,30,30,1,2,only_sub_right.png,0,RandomDot21.png,No answer,19,,,,0.637,,,,,
,,,,,,,,,,,,,,,,,,,,,,,,,,,,,,,R_6FVQ6tVpIriVaju,1,2024-05-30_21h47.31.691,interaction task,2021.2.3,MacIntel,58.82352941,115201,,,,,,,,,,,,,,,,,Smaller,Greater,,-0.29494506,-0.51228814,1,0,0,LeftButton,"[""LeftButton""]",,,,2.005502489,6.1595,space,,,,,,,,,,,,0,31,31,31,1,3,only_sub_wrong.png,1,RandomDot15.png,No answer,21,,,3.2058,,,,,,
,,,,,,,,,,,,,,,,,,,,,,,,,,,,,,,R_6FVQ6tVpIriVaju,1,2024-05-30_21h47.31.691,interaction task,2021.2.3,MacIntel,58.82352941,115201,,,,,,,,,,,,,,,,,Smaller,Greater,,-0.20986362,-0.462180176,1,0,0,LeftButton,"[""LeftButton""]",,,,,,,,,,,,62.2014141,2.6572,space,0.5248,57.36499448,3.8409,0,32,32,32,1,3,only_sub_wrong.png,3,RandomDot38.png,No answer,20,,,,,,,,,
,,,,,,,,,,,,,,,,,,,,,,,,,,,,,,,R_6FVQ6tVpIriVaju,1,2024-05-30_21h47.31.691,interaction task,2021.2.3,MacIntel,58.82352941,115201,,,,,,,,,,,,,,,,,Greater,Smaller,,-0.331693395,-0.539093153,1,0,0,LeftButton,"[""LeftButton""]",,,,,,,,,,,,57.84865186,2.9264,space,0.2345,63.78768596,4.2749,0,33,33,33,1,1,both_wrong.png,3,RandomDot6.png,No answer,21,,,,,,,,,
,,,,,,,,,,,,,,,,,,,,,,,,,,,,,,,R_6FVQ6tVpIriVaju,1,2024-05-30_21h47.31.691,interaction task,2021.2.3,MacIntel,58.82352941,115201,,,,,,,,,,,,,,,,,Smaller,Greater,,-0.200477261,-0.537076009,1,0,0,LeftButton,"[""LeftButton""]",66,1.9795,space,,,,,,,,,,,,,,,0,34,34,34,1,2,only_sub_right.png,0,RandomDot37.png,No answer,21,,,,0.4519,,,,,
,,,,,,,,,,,,,,,,,,,,,,,,,,,,,,,R_6FVQ6tVpIriVaju,1,2024-05-30_21h47.31.691,interaction task,2021.2.3,MacIntel,58.82352941,115201,,,,,,,,,,,,,,,,,Greater,Smaller,,-0.267569902,-0.513133681,1,0,0,LeftButton,"[""LeftButton""]",70,2.6422,space,,,,,,,,,,,,,,,0,35,35,35,1,1,both_wrong.png,0,RandomDot32.png,No answer,19,,,,0.3521,,,,,
,,,,,,,,,,,,,,,,,,,,,,,,,,,,,,,R_6FVQ6tVpIriVaju,1,2024-05-30_21h47.31.691,interaction task,2021.2.3,MacIntel,58.82352941,115201,,,,,,,,,,,,,,,,,Smaller,Greater,,-0.32151858,-0.533876004,1,0,0,LeftButton,"[""LeftButton""]",,,,2.226876153,2.5637,space,,,,,,,,,,,,0,36,36,36,1,3,only_sub_wrong.png,1,RandomDot15.png,No answer,20,,,0.3843,,,,,,
,,,,,,,,,,,,,,,,,,,,,,,,,,,,,,,R_6FVQ6tVpIriVaju,1,2024-05-30_21h47.31.691,interaction task,2021.2.3,MacIntel,58.82352941,115201,,,,,,,,,,,,,,,,,Smaller,Greater,,0.209771983,-0.475575901,1,0,0,RightButton,"[""RightButton""]",73,2.0558,space,,,,,,,,,,,,,,,0,37,37,37,1,3,only_sub_wrong.png,0,RandomDot9.png,No answer,19,,,,0.5504,,,,,
,,,,,,,,,,,,,,,,,,,,,,,,,,,,,,,R_6FVQ6tVpIriVaju,1,2024-05-30_21h47.31.691,interaction task,2021.2.3,MacIntel,58.82352941,115201,,,,,,,,,,,,,,,,,Greater,Smaller,,-0.313290151,-0.520066732,1,0,0,LeftButton,"[""LeftButton""]",,,,2.355605231,2.4279,space,,,,,,,,,,,,0,38,38,38,1,2,only_sub_right.png,1,RandomDot32.png,No answer,19,,,0.3821,,,,,,
,,,,,,,,,,,,,,,,,,,,,,,,,,,,,,,R_6FVQ6tVpIriVaju,1,2024-05-30_21h47.31.691,interaction task,2021.2.3,MacIntel,58.82352941,115201,,,,,,,,,,,,,,,,,Smaller,Greater,,-0.265054152,-0.48199273,1,0,0,LeftButton,"[""LeftButton""]",,,,,,,,,,,,45.66316444,2.6928,space,0.299,62.63890978,3.7772,0,39,39,39,1,1,both_wrong.png,3,RandomDot12.png,No answer,21,,,,,,,,,
,,,,,,,,,,,,,,,,,,,,,,,,,,,,,,,R_6FVQ6tVpIriVaju,1,2024-05-30_21h47.31.691,interaction task,2021.2.3,MacIntel,58.82352941,115201,,,,,,,,,,,,,,,,,Greater,Smaller,,-0.249847582,-0.512676595,1,0,0,LeftButton,"[""LeftButton""]",,,,,,,,,,,,,,,,,,0,40,40,40,1,4,both_right.png,10,RandomDot41.png,LeftButton,5,,,,,,,,,
,,,,,,,,,,,,,,,,,,,,,,,,,,,,,,,R_6FVQ6tVpIriVaju,1,2024-05-30_21h47.31.691,interaction task,2021.2.3,MacIntel,58.82352941,115201,,,,,,,,,,,,,,,,,Greater,Smaller,,-0.249847582,-0.512676595,1,0,0,LeftButton,"[""LeftButton""]",,,,,,,71,2.8601,space,45,5.9219,,,,,,,0,41,41,41,1,3,only_sub_wrong.png,2,RandomDot13.png,No answer,21,0.2984,,,,,,,,
,,,,,,,,,,,,,,,,,,,,,,,,,,,,,,,R_6FVQ6tVpIriVaju,1,2024-05-30_21h47.31.691,interaction task,2021.2.3,MacIntel,58.82352941,115201,,,,,,,,,,,,,,,,,Smaller,Greater,,0.307593621,-0.527524957,1,0,0,RightButton,"[""RightButton""]",,,,,,,,,,,,61.25466703,4.0571,space,0.2208,63.98283919,5.3109,,,,,,2,only_sub_right.png,3,RandomDot31.png,No answer,19,,,,,0,0,0,0,1
