choose_trial,key_resp.keys,key_resp.rt,key_resp_4.keys,key_resp_4.rt,session_trait,slider_face_judge.response,slider_face_judge.rt,key_resp_3.keys,key_resp_3.rt,face_loop.thisRepN,face_loop.thisTrialN,face_loop.thisN,face_loop.thisIndex,face_loop.ran,face_serial,image_name,isCheck,answer,check_question,participant,session,date,expName,psychopyVersion,OS,frameRate,SONAid,session.thisRepN,session.thisTrialN,session.thisN,session.thisIndex,session.ran,session_serial,slider_judge_img
"[0,1,2,3,4,5,6,7,8,9,10,11,12,13,14,15,16,17,18,19,20,21,22,23,24,25,26,27,28,29,30,31,32,33,34,35,36,37,38,39,40,41,42,43,44,45,46,47,48,49,53,58,54]",space,7.9593,space,19.7808,friendly,3.004479167,7.1061,space,1.1209,0,0,0,32,1,33,image/33.jpg,0,0,,R_6It1un8kGFdY7i4,2,2024-05-23_14h38.53.131,face trait task,2021.2.3,MacIntel,60.24096386,120831,,,,,,,
,,,,,,3.503958333,4.319,space,0.6972,0,1,1,24,1,25,image/25.jpg,0,0,,R_6It1un8kGFdY7i4,2,2024-05-23_14h38.53.131,face trait task,2021.2.3,MacIntel,60.24096386,120831,,,,,,,
,,,,,,3.02140625,9.374,space,0.9026,0,2,2,27,1,28,image/28.jpg,0,0,,R_6It1un8kGFdY7i4,2,2024-05-23_14h38.53.131,face trait task,2021.2.3,MacIntel,60.24096386,120831,,,,,,,
,,,,,,3.02140625,1.6835,space,0.3499,0,3,3,0,1,1,image/1.jpg,0,0,,R_6It1un8kGFdY7i4,2,2024-05-23_14h38.53.131,face trait task,2021.2.3,MacIntel,60.24096386,120831,,,,,,,
,,,,,,3.968541667,2.2315,space,0.6727,0,4,4,7,1,8,image/8.jpg,0,0,,R_6It1un8kGFdY7i4,2,2024-05-23_14h38.53.131,face trait task,2021.2.3,MacIntel,60.24096386,120831,,,,,,,
,,,,,,3.990026042,1.5007,space,0.1952,0,5,5,2,1,3,image/3.jpg,0,0,,R_6It1un8kGFdY7i4,2,2024-05-23_14h38.53.131,face trait task,2021.2.3,MacIntel,60.24096386,120831,,,,,,,
,,,,,,5.01375,4.3056,space,0.2957,0,6,6,35,1,36,image/36.jpg,0,0,,R_6It1un8kGFdY7i4,2,2024-05-23_14h38.53.131,face trait task,2021.2.3,MacIntel,60.24096386,120831,,,,,,,
,,,,,,3.52328125,2.2834,space,0.4724,0,7,7,25,1,26,image/26.jpg,0,0,,R_6It1un8kGFdY7i4,2,2024-05-23_14h38.53.131,face trait task,2021.2.3,MacIntel,60.24096386,120831,,,,,,,
,,,,,,7,12.1278,space,1.4328,0,8,8,51,1,59,image/fill_img.png,1,7,Please move the slider all the way to the RIGHT to show that you are paying attention.,R_6It1un8kGFdY7i4,2,2024-05-23_14h38.53.131,face trait task,2021.2.3,MacIntel,60.24096386,120831,,,,,,,
,,,,,,4.65703125,7.8621,space,2.7873,0,9,9,39,1,40,image/40.jpg,0,0,,R_6It1un8kGFdY7i4,2,2024-05-23_14h38.53.131,face trait task,2021.2.3,MacIntel,60.24096386,120831,,,,,,,
,,,,,,4.706223958,1.9781,space,1.3692,0,10,10,37,1,38,image/38.jpg,0,0,,R_6It1un8kGFdY7i4,2,2024-05-23_14h38.53.131,face trait task,2021.2.3,MacIntel,60.24096386,120831,,,,,,,
,,,,,,5.980859375,2.2163,space,0.5907,0,11,11,33,1,34,image/34.jpg,0,0,,R_6It1un8kGFdY7i4,2,2024-05-23_14h38.53.131,face trait task,2021.2.3,MacIntel,60.24096386,120831,,,,,,,
,,,,,,3.05125,1.9473,space,1.1018,0,12,12,42,1,43,image/43.jpg,0,0,,R_6It1un8kGFdY7i4,2,2024-05-23_14h38.53.131,face trait task,2021.2.3,MacIntel,60.24096386,120831,,,,,,,
,,,,,,4.948515625,1.685,space,0.9523,0,13,13,31,1,32,image/32.jpg,0,0,,R_6It1un8kGFdY7i4,2,2024-05-23_14h38.53.131,face trait task,2021.2.3,MacIntel,60.24096386,120831,,,,,,,
,,,,,,4.029661458,1.8343,space,1.9882,0,14,14,36,1,37,image/37.jpg,0,0,,R_6It1un8kGFdY7i4,2,2024-05-23_14h38.53.131,face trait task,2021.2.3,MacIntel,60.24096386,120831,,,,,,,
,,,,,,4.038723958,1.6668,space,0.8165,0,15,15,15,1,16,image/16.jpg,0,0,,R_6It1un8kGFdY7i4,2,2024-05-23_14h38.53.131,face trait task,2021.2.3,MacIntel,60.24096386,120831,,,,,,,
,,,,,,3.396484375,2.4481,space,0.3158,0,16,16,5,1,6,image/6.jpg,0,0,,R_6It1un8kGFdY7i4,2,2024-05-23_14h38.53.131,face trait task,2021.2.3,MacIntel,60.24096386,120831,,,,,,,
,,,,,,2.626640625,2.48,space,1.3541,0,17,17,30,1,31,image/31.jpg,0,0,,R_6It1un8kGFdY7i4,2,2024-05-23_14h38.53.131,face trait task,2021.2.3,MacIntel,60.24096386,120831,,,,,,,
,,,,,,3.990260417,1.9157,space,0.2846,0,18,18,46,1,47,image/47.jpg,0,0,,R_6It1un8kGFdY7i4,2,2024-05-23_14h38.53.131,face trait task,2021.2.3,MacIntel,60.24096386,120831,,,,,,,
,,,,,,3.990260417,1.3318,space,0.3348,0,19,19,29,1,30,image/30.jpg,0,0,,R_6It1un8kGFdY7i4,2,2024-05-23_14h38.53.131,face trait task,2021.2.3,MacIntel,60.24096386,120831,,,,,,,
,,,,,,1,4.5134,space,0.8346,0,20,20,50,1,54,image/fill_img.png,1,1,Please move the slider all the way to the LEFT to show that you are paying attention.,R_6It1un8kGFdY7i4,2,2024-05-23_14h38.53.131,face trait task,2021.2.3,MacIntel,60.24096386,120831,,,,,,,
,,,,,,4.780807292,4.5753,space,1.79,0,21,21,28,1,29,image/29.jpg,0,0,,R_6It1un8kGFdY7i4,2,2024-05-23_14h38.53.131,face trait task,2021.2.3,MacIntel,60.24096386,120831,,,,,,,
,,,,,,3.3153125,2.6285,space,0.4351,0,22,22,13,1,14,image/14.jpg,0,0,,R_6It1un8kGFdY7i4,2,2024-05-23_14h38.53.131,face trait task,2021.2.3,MacIntel,60.24096386,120831,,,,,,,
,,,,,,4.201640625,2.4125,space,0.7535,0,23,23,10,1,11,image/11.jpg,0,0,,R_6It1un8kGFdY7i4,2,2024-05-23_14h38.53.131,face trait task,2021.2.3,MacIntel,60.24096386,120831,,,,,,,
,,,,,,5.101197917,2.0668,space,0.6698,0,24,24,6,1,7,image/7.jpg,0,0,,R_6It1un8kGFdY7i4,2,2024-05-23_14h38.53.131,face trait task,2021.2.3,MacIntel,60.24096386,120831,,,,,,,
,,,,,,4.245703125,4.5718,space,0.3153,0,25,25,1,1,2,image/2.jpg,0,0,,R_6It1un8kGFdY7i4,2,2024-05-23_14h38.53.131,face trait task,2021.2.3,MacIntel,60.24096386,120831,,,,,,,
,,,,,,4.975442708,4.1379,space,0.2804,0,26,26,26,1,27,image/27.jpg,0,0,,R_6It1un8kGFdY7i4,2,2024-05-23_14h38.53.131,face trait task,2021.2.3,MacIntel,60.24096386,120831,,,,,,,
,,,,,,1,5.1431,space,1.0409,0,27,27,52,1,55,image/fill_img.png,1,1,Please move the slider all the way to the LEFT to show that you are paying attention.,R_6It1un8kGFdY7i4,2,2024-05-23_14h38.53.131,face trait task,2021.2.3,MacIntel,60.24096386,120831,,,,,,,
,,,,,,5.633463542,2.378,space,0.4193,0,28,28,20,1,21,image/21.jpg,0,0,,R_6It1un8kGFdY7i4,2,2024-05-23_14h38.53.131,face trait task,2021.2.3,MacIntel,60.24096386,120831,,,,,,,
,,,,,,5.006197917,1.9031,space,0.3351,0,29,29,22,1,23,image/23.jpg,0,0,,R_6It1un8kGFdY7i4,2,2024-05-23_14h38.53.131,face trait task,2021.2.3,MacIntel,60.24096386,120831,,,,,,,
,,,,,,5.006197917,2.0242,space,0.4843,0,30,30,47,1,48,image/48.jpg,0,0,,R_6It1un8kGFdY7i4,2,2024-05-23_14h38.53.131,face trait task,2021.2.3,MacIntel,60.24096386,120831,,,,,,,
,,,,,,4.375104167,1.8132,space,0.3687,0,31,31,44,1,45,image/45.jpg,0,0,,R_6It1un8kGFdY7i4,2,2024-05-23_14h38.53.131,face trait task,2021.2.3,MacIntel,60.24096386,120831,,,,,,,
,,,,,,4.626510417,3.3519,space,2.5023,0,32,32,11,1,12,image/12.jpg,0,0,,R_6It1un8kGFdY7i4,2,2024-05-23_14h38.53.131,face trait task,2021.2.3,MacIntel,60.24096386,120831,,,,,,,
,,,,,,3.222161458,3.3903,space,0.2435,0,33,33,48,1,49,image/49.jpg,0,0,,R_6It1un8kGFdY7i4,2,2024-05-23_14h38.53.131,face trait task,2021.2.3,MacIntel,60.24096386,120831,,,,,,,
,,,,,,4.813723958,2.1639,space,0.5123,0,34,34,18,1,19,image/19.jpg,0,0,,R_6It1un8kGFdY7i4,2,2024-05-23_14h38.53.131,face trait task,2021.2.3,MacIntel,60.24096386,120831,,,,,,,
,,,,,,2.593541667,3.5289,space,2.1903,0,35,35,21,1,22,image/22.jpg,0,0,,R_6It1un8kGFdY7i4,2,2024-05-23_14h38.53.131,face trait task,2021.2.3,MacIntel,60.24096386,120831,,,,,,,
,,,,,,2.976276042,4.6388,space,0.5274,0,36,36,8,1,9,image/9.jpg,0,0,,R_6It1un8kGFdY7i4,2,2024-05-23_14h38.53.131,face trait task,2021.2.3,MacIntel,60.24096386,120831,,,,,,,
,,,,,,1.074296875,4.7197,space,0.649,0,37,37,45,1,46,image/46.jpg,0,0,,R_6It1un8kGFdY7i4,2,2024-05-23_14h38.53.131,face trait task,2021.2.3,MacIntel,60.24096386,120831,,,,,,,
,,,,,,2.551848958,4.3029,space,0.6617,0,38,38,43,1,44,image/44.jpg,0,0,,R_6It1un8kGFdY7i4,2,2024-05-23_14h38.53.131,face trait task,2021.2.3,MacIntel,60.24096386,120831,,,,,,,
,,,,,,4.207447917,2.1952,space,0.4016,0,39,39,9,1,10,image/10.jpg,0,0,,R_6It1un8kGFdY7i4,2,2024-05-23_14h38.53.131,face trait task,2021.2.3,MacIntel,60.24096386,120831,,,,,,,
,,,,,,5.600442708,3.1797,space,0.3528,0,40,40,17,1,18,image/18.jpg,0,0,,R_6It1un8kGFdY7i4,2,2024-05-23_14h38.53.131,face trait task,2021.2.3,MacIntel,60.24096386,120831,,,,,,,
,,,,,,2.483385417,3.2058,space,0.5279,0,41,41,23,1,24,image/24.jpg,0,0,,R_6It1un8kGFdY7i4,2,2024-05-23_14h38.53.131,face trait task,2021.2.3,MacIntel,60.24096386,120831,,,,,,,
,,,,,,6.776953125,2.351,space,0.3185,0,42,42,4,1,5,image/5.jpg,0,0,,R_6It1un8kGFdY7i4,2,2024-05-23_14h38.53.131,face trait task,2021.2.3,MacIntel,60.24096386,120831,,,,,,,
,,,,,,4.295546875,2.1519,space,0.4298,0,43,43,41,1,42,image/42.jpg,0,0,,R_6It1un8kGFdY7i4,2,2024-05-23_14h38.53.131,face trait task,2021.2.3,MacIntel,60.24096386,120831,,,,,,,
,,,,,,4.817994792,4.1199,space,0.4024,0,44,44,38,1,39,image/39.jpg,0,0,,R_6It1un8kGFdY7i4,2,2024-05-23_14h38.53.131,face trait task,2021.2.3,MacIntel,60.24096386,120831,,,,,,,
,,,,,,5.563229167,2.6331,space,2.2013,0,45,45,12,1,13,image/13.jpg,0,0,,R_6It1un8kGFdY7i4,2,2024-05-23_14h38.53.131,face trait task,2021.2.3,MacIntel,60.24096386,120831,,,,,,,
,,,,,,6.729713542,8.6452,space,1.1134,0,46,46,3,1,4,image/4.jpg,0,0,,R_6It1un8kGFdY7i4,2,2024-05-23_14h38.53.131,face trait task,2021.2.3,MacIntel,60.24096386,120831,,,,,,,
,,,,,,4.5234375,24.1541,space,0.3622,0,47,47,16,1,17,image/17.jpg,0,0,,R_6It1un8kGFdY7i4,2,2024-05-23_14h38.53.131,face trait task,2021.2.3,MacIntel,60.24096386,120831,,,,,,,
,,,,,,5.070364583,4.0874,space,0.4819,0,48,48,49,1,50,image/50.jpg,0,0,,R_6It1un8kGFdY7i4,2,2024-05-23_14h38.53.131,face trait task,2021.2.3,MacIntel,60.24096386,120831,,,,,,,
,,,,,,4.2275,1.7689,space,0.4407,0,49,49,14,1,15,image/15.jpg,0,0,,R_6It1un8kGFdY7i4,2,2024-05-23_14h38.53.131,face trait task,2021.2.3,MacIntel,60.24096386,120831,,,,,,,
,,,,,,3.175390625,3.2981,space,1.3346,0,50,50,40,1,41,image/41.jpg,0,0,,R_6It1un8kGFdY7i4,2,2024-05-23_14h38.53.131,face trait task,2021.2.3,MacIntel,60.24096386,120831,,,,,,,
,,,,,,5.229322917,1.6313,space,0.3686,0,51,51,19,1,20,image/20.jpg,0,0,,R_6It1un8kGFdY7i4,2,2024-05-23_14h38.53.131,face trait task,2021.2.3,MacIntel,60.24096386,120831,,,,,,,
,,,,,,6.163151042,2.3454,space,0.3219,0,52,52,34,1,35,image/35.jpg,0,0,,R_6It1un8kGFdY7i4,2,2024-05-23_14h38.53.131,face trait task,2021.2.3,MacIntel,60.24096386,120831,,,,,,,
,,,,,,,,,,,,,,,,,,,,R_6It1un8kGFdY7i4,2,2024-05-23_14h38.53.131,face trait task,2021.2.3,MacIntel,60.24096386,120831,0,0,0,3,1,3,friendly.png
,,,,,competent,6.999322917,4.4028,space,0.6452,0,0,0,51,1,59,image/fill_img.png,1,7,Please move the slider all the way to the RIGHT to show that you are paying attention.,R_6It1un8kGFdY7i4,2,2024-05-23_14h38.53.131,face trait task,2021.2.3,MacIntel,60.24096386,120831,,,,,,,
,,,,,,6.480598958,3.7646,space,2.553,0,1,1,11,1,12,image/12.jpg,0,0,,R_6It1un8kGFdY7i4,2,2024-05-23_14h38.53.131,face trait task,2021.2.3,MacIntel,60.24096386,120831,,,,,,,
,,,,,,5.432005208,1.5285,space,0.5416,0,2,2,38,1,39,image/39.jpg,0,0,,R_6It1un8kGFdY7i4,2,2024-05-23_14h38.53.131,face trait task,2021.2.3,MacIntel,60.24096386,120831,,,,,,,
,,,,,,6.463333333,2.4293,space,0.6352,0,3,3,5,1,6,image/6.jpg,0,0,,R_6It1un8kGFdY7i4,2,2024-05-23_14h38.53.131,face trait task,2021.2.3,MacIntel,60.24096386,120831,,,,,,,
,,,,,,5.592265625,1.737,space,1.0064,0,4,4,36,1,37,image/37.jpg,0,0,,R_6It1un8kGFdY7i4,2,2024-05-23_14h38.53.131,face trait task,2021.2.3,MacIntel,60.24096386,120831,,,,,,,
,,,,,,5.475,1.2989,space,0.5025,0,5,5,12,1,13,image/13.jpg,0,0,,R_6It1un8kGFdY7i4,2,2024-05-23_14h38.53.131,face trait task,2021.2.3,MacIntel,60.24096386,120831,,,,,,,
,,,,,,4.660677083,3.2069,space,0.6438,0,6,6,49,1,50,image/50.jpg,0,0,,R_6It1un8kGFdY7i4,2,2024-05-23_14h38.53.131,face trait task,2021.2.3,MacIntel,60.24096386,120831,,,,,,,
,,,,,,6.837317708,2.6135,space,0.3171,0,7,7,35,1,36,image/36.jpg,0,0,,R_6It1un8kGFdY7i4,2,2024-05-23_14h38.53.131,face trait task,2021.2.3,MacIntel,60.24096386,120831,,,,,,,
,,,,,,6.527838542,1.419,space,0.4017,0,8,8,6,1,7,image/7.jpg,0,0,,R_6It1un8kGFdY7i4,2,2024-05-23_14h38.53.131,face trait task,2021.2.3,MacIntel,60.24096386,120831,,,,,,,
,,,,,,4.669427083,4.5539,space,0.4406,0,9,9,29,1,30,image/30.jpg,0,0,,R_6It1un8kGFdY7i4,2,2024-05-23_14h38.53.131,face trait task,2021.2.3,MacIntel,60.24096386,120831,,,,,,,
,,,,,,4.244036458,3.3972,space,1.3009,0,10,10,30,1,31,image/31.jpg,0,0,,R_6It1un8kGFdY7i4,2,2024-05-23_14h38.53.131,face trait task,2021.2.3,MacIntel,60.24096386,120831,,,,,,,
,,,,,,4.377057292,3.1789,space,1.6729,0,11,11,13,1,14,image/14.jpg,0,0,,R_6It1un8kGFdY7i4,2,2024-05-23_14h38.53.131,face trait task,2021.2.3,MacIntel,60.24096386,120831,,,,,,,
,,,,,,2.644270833,6.6618,space,2.8154,0,12,12,39,1,40,image/40.jpg,0,0,,R_6It1un8kGFdY7i4,2,2024-05-23_14h38.53.131,face trait task,2021.2.3,MacIntel,60.24096386,120831,,,,,,,
,,,,,,5.484427083,2.767,space,0.7166,0,13,13,41,1,42,image/42.jpg,0,0,,R_6It1un8kGFdY7i4,2,2024-05-23_14h38.53.131,face trait task,2021.2.3,MacIntel,60.24096386,120831,,,,,,,
,,,,,,3.2184375,3.0147,space,9.4686,0,14,14,45,1,46,image/46.jpg,0,0,,R_6It1un8kGFdY7i4,2,2024-05-23_14h38.53.131,face trait task,2021.2.3,MacIntel,60.24096386,120831,,,,,,,
,,,,,,4.2475,28.7206,space,0.3378,0,15,15,44,1,45,image/45.jpg,0,0,,R_6It1un8kGFdY7i4,2,2024-05-23_14h38.53.131,face trait task,2021.2.3,MacIntel,60.24096386,120831,,,,,,,
,,,,,,5.438515625,2.4777,space,0.3012,0,16,16,15,1,16,image/16.jpg,0,0,,R_6It1un8kGFdY7i4,2,2024-05-23_14h38.53.131,face trait task,2021.2.3,MacIntel,60.24096386,120831,,,,,,,
,,,,,,5.515911458,3.844,space,1.3348,0,17,17,42,1,43,image/43.jpg,0,0,,R_6It1un8kGFdY7i4,2,2024-05-23_14h38.53.131,face trait task,2021.2.3,MacIntel,60.24096386,120831,,,,,,,
,,,,,,6.51671875,2.1166,space,0.1857,0,18,18,25,1,26,image/26.jpg,0,0,,R_6It1un8kGFdY7i4,2,2024-05-23_14h38.53.131,face trait task,2021.2.3,MacIntel,60.24096386,120831,,,,,,,
,,,,,,5.459401042,2.3966,space,1.0331,0,19,19,18,1,19,image/19.jpg,0,0,,R_6It1un8kGFdY7i4,2,2024-05-23_14h38.53.131,face trait task,2021.2.3,MacIntel,60.24096386,120831,,,,,,,
,,,,,,6.735390625,3.2847,space,1.5383,0,20,20,17,1,18,image/18.jpg,0,0,,R_6It1un8kGFdY7i4,2,2024-05-23_14h38.53.131,face trait task,2021.2.3,MacIntel,60.24096386,120831,,,,,,,
,,,,,,7,3.7011,space,1.7857,0,21,21,33,1,34,image/34.jpg,0,0,,R_6It1un8kGFdY7i4,2,2024-05-23_14h38.53.131,face trait task,2021.2.3,MacIntel,60.24096386,120831,,,,,,,
,,,,,,3.452395833,4.1931,space,0.8397,0,22,22,19,1,20,image/20.jpg,0,0,,R_6It1un8kGFdY7i4,2,2024-05-23_14h38.53.131,face trait task,2021.2.3,MacIntel,60.24096386,120831,,,,,,,
,,,,,,6.985130208,2.6638,space,0.3867,0,23,23,2,1,3,image/3.jpg,0,0,,R_6It1un8kGFdY7i4,2,2024-05-23_14h38.53.131,face trait task,2021.2.3,MacIntel,60.24096386,120831,,,,,,,
,,,,,,4.412369792,2.3139,space,0.5013,0,24,24,9,1,10,image/10.jpg,0,0,,R_6It1un8kGFdY7i4,2,2024-05-23_14h38.53.131,face trait task,2021.2.3,MacIntel,60.24096386,120831,,,,,,,
,,,,,,2.483151042,4.223,space,0.4427,0,25,25,23,1,24,image/24.jpg,0,0,,R_6It1un8kGFdY7i4,2,2024-05-23_14h38.53.131,face trait task,2021.2.3,MacIntel,60.24096386,120831,,,,,,,
,,,,,,5.502630208,2.88,space,0.3797,0,26,26,10,1,11,image/11.jpg,0,0,,R_6It1un8kGFdY7i4,2,2024-05-23_14h38.53.131,face trait task,2021.2.3,MacIntel,60.24096386,120831,,,,,,,
,,,,,,6.903125,2.0482,space,0.3526,0,27,27,4,1,5,image/5.jpg,0,0,,R_6It1un8kGFdY7i4,2,2024-05-23_14h38.53.131,face trait task,2021.2.3,MacIntel,60.24096386,120831,,,,,,,
,,,,,,3.333932292,4.3376,space,0.6792,0,28,28,16,1,17,image/17.jpg,0,0,,R_6It1un8kGFdY7i4,2,2024-05-23_14h38.53.131,face trait task,2021.2.3,MacIntel,60.24096386,120831,,,,,,,
,,,,,,5.994973958,2.8291,space,0.3472,0,29,29,37,1,38,image/38.jpg,0,0,,R_6It1un8kGFdY7i4,2,2024-05-23_14h38.53.131,face trait task,2021.2.3,MacIntel,60.24096386,120831,,,,,,,
,,,,,,6.975,1.9123,space,0.9544,0,30,30,3,1,4,image/4.jpg,0,0,,R_6It1un8kGFdY7i4,2,2024-05-23_14h38.53.131,face trait task,2021.2.3,MacIntel,60.24096386,120831,,,,,,,
,,,,,,6.980416667,2.234,space,0.348,0,31,31,26,1,27,image/27.jpg,0,0,,R_6It1un8kGFdY7i4,2,2024-05-23_14h38.53.131,face trait task,2021.2.3,MacIntel,60.24096386,120831,,,,,,,
,,,,,,6.980416667,1.4648,space,0.4814,0,32,32,0,1,1,image/1.jpg,0,0,,R_6It1un8kGFdY7i4,2,2024-05-23_14h38.53.131,face trait task,2021.2.3,MacIntel,60.24096386,120831,,,,,,,
,,,,,,1,5.5768,space,0.9437,0,33,33,52,1,55,image/fill_img.png,1,1,Please move the slider all the way to the LEFT to show that you are paying attention.,R_6It1un8kGFdY7i4,2,2024-05-23_14h38.53.131,face trait task,2021.2.3,MacIntel,60.24096386,120831,,,,,,,
,,,,,,5.368359375,2.6105,space,0.3175,0,34,34,46,1,47,image/47.jpg,0,0,,R_6It1un8kGFdY7i4,2,2024-05-23_14h38.53.131,face trait task,2021.2.3,MacIntel,60.24096386,120831,,,,,,,
,,,,,,1,4.3789,space,1.0344,0,35,35,50,1,54,image/fill_img.png,1,1,Please move the slider all the way to the LEFT to show that you are paying attention.,R_6It1un8kGFdY7i4,2,2024-05-23_14h38.53.131,face trait task,2021.2.3,MacIntel,60.24096386,120831,,,,,,,
,,,,,,6.424661458,2.6726,space,1.4354,0,36,36,20,1,21,image/21.jpg,0,0,,R_6It1un8kGFdY7i4,2,2024-05-23_14h38.53.131,face trait task,2021.2.3,MacIntel,60.24096386,120831,,,,,,,
,,,,,,6.8125,2.665,space,0.4558,0,37,37,7,1,8,image/8.jpg,0,0,,R_6It1un8kGFdY7i4,2,2024-05-23_14h38.53.131,face trait task,2021.2.3,MacIntel,60.24096386,120831,,,,,,,
,,,,,,5.797916667,2.1541,space,0.3695,0,38,38,48,1,49,image/49.jpg,0,0,,R_6It1un8kGFdY7i4,2,2024-05-23_14h38.53.131,face trait task,2021.2.3,MacIntel,60.24096386,120831,,,,,,,
,,,,,,6.53375,2.4283,space,0.2709,0,39,39,34,1,35,image/35.jpg,0,0,,R_6It1un8kGFdY7i4,2,2024-05-23_14h38.53.131,face trait task,2021.2.3,MacIntel,60.24096386,120831,,,,,,,
,,,,,,5.389791667,1.981,space,0.5032,0,40,40,1,1,2,image/2.jpg,0,0,,R_6It1un8kGFdY7i4,2,2024-05-23_14h38.53.131,face trait task,2021.2.3,MacIntel,60.24096386,120831,,,,,,,
,,,,,,6.797578125,2.167,space,0.3471,0,41,41,47,1,48,image/48.jpg,0,0,,R_6It1un8kGFdY7i4,2,2024-05-23_14h38.53.131,face trait task,2021.2.3,MacIntel,60.24096386,120831,,,,,,,
,,,,,,4.484505208,4.7927,space,0.5077,0,42,42,32,1,33,image/33.jpg,0,0,,R_6It1un8kGFdY7i4,2,2024-05-23_14h38.53.131,face trait task,2021.2.3,MacIntel,60.24096386,120831,,,,,,,
,,,,,,4.004348958,29.6115,space,0.734,0,43,43,28,1,29,image/29.jpg,0,0,,R_6It1un8kGFdY7i4,2,2024-05-23_14h38.53.131,face trait task,2021.2.3,MacIntel,60.24096386,120831,,,,,,,
,,,,,,5.513203125,1.8473,space,0.4526,0,44,44,27,1,28,image/28.jpg,0,0,,R_6It1un8kGFdY7i4,2,2024-05-23_14h38.53.131,face trait task,2021.2.3,MacIntel,60.24096386,120831,,,,,,,
,,,,,,2.512005208,4.7253,space,2.3193,0,45,45,40,1,41,image/41.jpg,0,0,,R_6It1un8kGFdY7i4,2,2024-05-23_14h38.53.131,face trait task,2021.2.3,MacIntel,60.24096386,120831,,,,,,,
,,,,,,5.54234375,3.7743,space,0.3954,0,46,46,22,1,23,image/23.jpg,0,0,,R_6It1un8kGFdY7i4,2,2024-05-23_14h38.53.131,face trait task,2021.2.3,MacIntel,60.24096386,120831,,,,,,,
,,,,,,2.0009375,2.7456,space,0.6117,0,47,47,24,1,25,image/25.jpg,0,0,,R_6It1un8kGFdY7i4,2,2024-05-23_14h38.53.131,face trait task,2021.2.3,MacIntel,60.24096386,120831,,,,,,,
,,,,,,6.975208333,2.8296,space,0.3018,0,48,48,31,1,32,image/32.jpg,0,0,,R_6It1un8kGFdY7i4,2,2024-05-23_14h38.53.131,face trait task,2021.2.3,MacIntel,60.24096386,120831,,,,,,,
,,,,,,1.592578125,4.9794,space,2.314,0,49,49,43,1,44,image/44.jpg,0,0,,R_6It1un8kGFdY7i4,2,2024-05-23_14h38.53.131,face trait task,2021.2.3,MacIntel,60.24096386,120831,,,,,,,
,,,,,,3.718854167,2.0287,space,1.7178,0,50,50,14,1,15,image/15.jpg,0,0,,R_6It1un8kGFdY7i4,2,2024-05-23_14h38.53.131,face trait task,2021.2.3,MacIntel,60.24096386,120831,,,,,,,
,,,,,,6.634036458,1.8806,space,0.4007,0,51,51,21,1,22,image/22.jpg,0,0,,R_6It1un8kGFdY7i4,2,2024-05-23_14h38.53.131,face trait task,2021.2.3,MacIntel,60.24096386,120831,,,,,,,
,,,,,,5.475572917,3.3427,space,0.2868,0,52,52,8,1,9,image/9.jpg,0,0,,R_6It1un8kGFdY7i4,2,2024-05-23_14h38.53.131,face trait task,2021.2.3,MacIntel,60.24096386,120831,,,,,,,
,,,,,,,,,,,,,,,,,,,,R_6It1un8kGFdY7i4,2,2024-05-23_14h38.53.131,face trait task,2021.2.3,MacIntel,60.24096386,120831,0,1,1,1,1,1,competent.png
,,,,,trustworthy,6.985208333,4.0161,space,0.3624,0,0,0,17,1,18,image/18.jpg,0,0,,R_6It1un8kGFdY7i4,2,2024-05-23_14h38.53.131,face trait task,2021.2.3,MacIntel,60.24096386,120831,,,,,,,
,,,,,,3.43859375,2.1961,space,0.6508,0,1,1,8,1,9,image/9.jpg,0,0,,R_6It1un8kGFdY7i4,2,2024-05-23_14h38.53.131,face trait task,2021.2.3,MacIntel,60.24096386,120831,,,,,,,
,,,,,,4.234479167,2.7655,space,0.8865,0,2,2,30,1,31,image/31.jpg,0,0,,R_6It1un8kGFdY7i4,2,2024-05-23_14h38.53.131,face trait task,2021.2.3,MacIntel,60.24096386,120831,,,,,,,
,,,,,,6.988932292,1.7476,space,0.3746,0,3,3,35,1,36,image/36.jpg,0,0,,R_6It1un8kGFdY7i4,2,2024-05-23_14h38.53.131,face trait task,2021.2.3,MacIntel,60.24096386,120831,,,,,,,
,,,,,,6.337552083,1.7303,space,0.4707,0,4,4,31,1,32,image/32.jpg,0,0,,R_6It1un8kGFdY7i4,2,2024-05-23_14h38.53.131,face trait task,2021.2.3,MacIntel,60.24096386,120831,,,,,,,
,,,,,,3.601354167,1.9308,space,0.5537,0,5,5,48,1,49,image/49.jpg,0,0,,R_6It1un8kGFdY7i4,2,2024-05-23_14h38.53.131,face trait task,2021.2.3,MacIntel,60.24096386,120831,,,,,,,
,,,,,,5.021901042,3.3465,space,1.7399,0,6,6,34,1,35,image/35.jpg,0,0,,R_6It1un8kGFdY7i4,2,2024-05-23_14h38.53.131,face trait task,2021.2.3,MacIntel,60.24096386,120831,,,,,,,
,,,,,,2.018645833,4.5089,space,0.334,0,7,7,38,1,39,image/39.jpg,0,0,,R_6It1un8kGFdY7i4,2,2024-05-23_14h38.53.131,face trait task,2021.2.3,MacIntel,60.24096386,120831,,,,,,,
,,,,,,5.512265625,2.0345,space,0.3525,0,8,8,2,1,3,image/3.jpg,0,0,,R_6It1un8kGFdY7i4,2,2024-05-23_14h38.53.131,face trait task,2021.2.3,MacIntel,60.24096386,120831,,,,,,,
,,,,,,5.017369792,3.0879,space,0.4867,0,9,9,7,1,8,image/8.jpg,0,0,,R_6It1un8kGFdY7i4,2,2024-05-23_14h38.53.131,face trait task,2021.2.3,MacIntel,60.24096386,120831,,,,,,,
,,,,,,1,5.4288,space,1.0481,0,10,10,52,1,55,image/fill_img.png,1,1,Please move the slider all the way to the LEFT to show that you are paying attention.,R_6It1un8kGFdY7i4,2,2024-05-23_14h38.53.131,face trait task,2021.2.3,MacIntel,60.24096386,120831,,,,,,,
,,,,,,4.418619792,3.1671,space,0.3641,0,11,11,49,1,50,image/50.jpg,0,0,,R_6It1un8kGFdY7i4,2,2024-05-23_14h38.53.131,face trait task,2021.2.3,MacIntel,60.24096386,120831,,,,,,,
,,,,,,1.968020833,2.6102,space,0.5177,0,12,12,39,1,40,image/40.jpg,0,0,,R_6It1un8kGFdY7i4,2,2024-05-23_14h38.53.131,face trait task,2021.2.3,MacIntel,60.24096386,120831,,,,,,,
,,,,,,3.642890625,2.1297,space,0.3645,0,13,13,13,1,14,image/14.jpg,0,0,,R_6It1un8kGFdY7i4,2,2024-05-23_14h38.53.131,face trait task,2021.2.3,MacIntel,60.24096386,120831,,,,,,,
,,,,,,3.041901042,3.1278,space,1.8019,0,14,14,19,1,20,image/20.jpg,0,0,,R_6It1un8kGFdY7i4,2,2024-05-23_14h38.53.131,face trait task,2021.2.3,MacIntel,60.24096386,120831,,,,,,,
,,,,,,4.844348958,1.9858,space,0.4899,0,15,15,37,1,38,image/38.jpg,0,0,,R_6It1un8kGFdY7i4,2,2024-05-23_14h38.53.131,face trait task,2021.2.3,MacIntel,60.24096386,120831,,,,,,,
,,,,,,1.550286458,2.9959,space,0.9245,0,16,16,45,1,46,image/46.jpg,0,0,,R_6It1un8kGFdY7i4,2,2024-05-23_14h38.53.131,face trait task,2021.2.3,MacIntel,60.24096386,120831,,,,,,,
,,,,,,4.691119792,2.1126,space,0.3643,0,17,17,28,1,29,image/29.jpg,0,0,,R_6It1un8kGFdY7i4,2,2024-05-23_14h38.53.131,face trait task,2021.2.3,MacIntel,60.24096386,120831,,,,,,,
,,,,,,4.543359375,1.6644,space,1.1687,0,18,18,14,1,15,image/15.jpg,0,0,,R_6It1un8kGFdY7i4,2,2024-05-23_14h38.53.131,face trait task,2021.2.3,MacIntel,60.24096386,120831,,,,,,,
,,,,,,6.443723958,1.7299,space,0.3179,0,19,19,12,1,13,image/13.jpg,0,0,,R_6It1un8kGFdY7i4,2,2024-05-23_14h38.53.131,face trait task,2021.2.3,MacIntel,60.24096386,120831,,,,,,,
,,,,,,5.461484375,1.7133,space,1.0075,0,20,20,0,1,1,image/1.jpg,0,0,,R_6It1un8kGFdY7i4,2,2024-05-23_14h38.53.131,face trait task,2021.2.3,MacIntel,60.24096386,120831,,,,,,,
,,,,,,5.04765625,5.7835,space,2.5861,0,21,21,44,1,45,image/45.jpg,0,0,,R_6It1un8kGFdY7i4,2,2024-05-23_14h38.53.131,face trait task,2021.2.3,MacIntel,60.24096386,120831,,,,,,,
,,,,,,4.485078125,1.7449,space,0.7817,0,22,22,10,1,11,image/11.jpg,0,0,,R_6It1un8kGFdY7i4,2,2024-05-23_14h38.53.131,face trait task,2021.2.3,MacIntel,60.24096386,120831,,,,,,,
,,,,,,2.995755208,2.2668,space,0.385,0,23,23,16,1,17,image/17.jpg,0,0,,R_6It1un8kGFdY7i4,2,2024-05-23_14h38.53.131,face trait task,2021.2.3,MacIntel,60.24096386,120831,,,,,,,
,,,,,,6.610494792,1.7346,space,0.3017,0,24,24,36,1,37,image/37.jpg,0,0,,R_6It1un8kGFdY7i4,2,2024-05-23_14h38.53.131,face trait task,2021.2.3,MacIntel,60.24096386,120831,,,,,,,
,,,,,,6.993411458,2.5523,space,0.4977,0,25,25,33,1,34,image/34.jpg,0,0,,R_6It1un8kGFdY7i4,2,2024-05-23_14h38.53.131,face trait task,2021.2.3,MacIntel,60.24096386,120831,,,,,,,
,,,,,,5.018958333,3.3241,space,0.635,0,26,26,41,1,42,image/42.jpg,0,0,,R_6It1un8kGFdY7i4,2,2024-05-23_14h38.53.131,face trait task,2021.2.3,MacIntel,60.24096386,120831,,,,,,,
,,,,,,6.234270833,1.6856,space,0.45,0,27,27,25,1,26,image/26.jpg,0,0,,R_6It1un8kGFdY7i4,2,2024-05-23_14h38.53.131,face trait task,2021.2.3,MacIntel,60.24096386,120831,,,,,,,
,,,,,,5.119166667,2.3798,space,1.2068,0,28,28,6,1,7,image/7.jpg,0,0,,R_6It1un8kGFdY7i4,2,2024-05-23_14h38.53.131,face trait task,2021.2.3,MacIntel,60.24096386,120831,,,,,,,
,,,,,,6.079401042,2.114,space,0.3241,0,29,29,11,1,12,image/12.jpg,0,0,,R_6It1un8kGFdY7i4,2,2024-05-23_14h38.53.131,face trait task,2021.2.3,MacIntel,60.24096386,120831,,,,,,,
,,,,,,6.829791667,2.3135,space,0.4845,0,30,30,4,1,5,image/5.jpg,0,0,,R_6It1un8kGFdY7i4,2,2024-05-23_14h38.53.131,face trait task,2021.2.3,MacIntel,60.24096386,120831,,,,,,,
,,,,,,1,4.5771,space,1.3353,0,31,31,50,1,54,image/fill_img.png,1,1,Please move the slider all the way to the LEFT to show that you are paying attention.,R_6It1un8kGFdY7i4,2,2024-05-23_14h38.53.131,face trait task,2021.2.3,MacIntel,60.24096386,120831,,,,,,,
,,,,,,2.028828125,2.728,space,0.4185,0,32,32,40,1,41,image/41.jpg,0,0,,R_6It1un8kGFdY7i4,2,2024-05-23_14h38.53.131,face trait task,2021.2.3,MacIntel,60.24096386,120831,,,,,,,
,,,,,,1.266666667,1.8636,space,0.5071,0,33,33,43,1,44,image/44.jpg,0,0,,R_6It1un8kGFdY7i4,2,2024-05-23_14h38.53.131,face trait task,2021.2.3,MacIntel,60.24096386,120831,,,,,,,
,,,,,,6.7209375,1.7958,space,0.2991,0,34,34,3,1,4,image/4.jpg,0,0,,R_6It1un8kGFdY7i4,2,2024-05-23_14h38.53.131,face trait task,2021.2.3,MacIntel,60.24096386,120831,,,,,,,
,,,,,,6.521848958,1.4126,space,0.4846,0,35,35,26,1,27,image/27.jpg,0,0,,R_6It1un8kGFdY7i4,2,2024-05-23_14h38.53.131,face trait task,2021.2.3,MacIntel,60.24096386,120831,,,,,,,
,,,,,,7,4.6149,space,1.1388,0,36,36,51,1,59,image/fill_img.png,1,7,Please move the slider all the way to the RIGHT to show that you are paying attention.,R_6It1un8kGFdY7i4,2,2024-05-23_14h38.53.131,face trait task,2021.2.3,MacIntel,60.24096386,120831,,,,,,,
,,,,,,4.936614583,2.3766,space,2.3186,0,37,37,47,1,48,image/48.jpg,0,0,,R_6It1un8kGFdY7i4,2,2024-05-23_14h38.53.131,face trait task,2021.2.3,MacIntel,60.24096386,120831,,,,,,,
,,,,,,5.031380208,8.3532,space,0.6501,0,38,38,15,1,16,image/16.jpg,0,0,,R_6It1un8kGFdY7i4,2,2024-05-23_14h38.53.131,face trait task,2021.2.3,MacIntel,60.24096386,120831,,,,,,,
,,,,,,1.193177083,8.4922,space,0.3191,0,39,39,23,1,24,image/24.jpg,0,0,,R_6It1un8kGFdY7i4,2,2024-05-23_14h38.53.131,face trait task,2021.2.3,MacIntel,60.24096386,120831,,,,,,,
,,,,,,1.69953125,1.5314,space,0.3176,0,40,40,24,1,25,image/25.jpg,0,0,,R_6It1un8kGFdY7i4,2,2024-05-23_14h38.53.131,face trait task,2021.2.3,MacIntel,60.24096386,120831,,,,,,,
,,,,,,1.35921875,5.464,space,3.8348,0,41,41,42,1,43,image/43.jpg,0,0,,R_6It1un8kGFdY7i4,2,2024-05-23_14h38.53.131,face trait task,2021.2.3,MacIntel,60.24096386,120831,,,,,,,
,,,,,,5.493567708,4.2361,space,2.1654,0,42,42,27,1,28,image/28.jpg,0,0,,R_6It1un8kGFdY7i4,2,2024-05-23_14h38.53.131,face trait task,2021.2.3,MacIntel,60.24096386,120831,,,,,,,
,,,,,,6.137630208,1.5957,space,0.4179,0,43,43,20,1,21,image/21.jpg,0,0,,R_6It1un8kGFdY7i4,2,2024-05-23_14h38.53.131,face trait task,2021.2.3,MacIntel,60.24096386,120831,,,,,,,
,,,,,,4.945078125,2.8179,space,1.615,0,44,44,5,1,6,image/6.jpg,0,0,,R_6It1un8kGFdY7i4,2,2024-05-23_14h38.53.131,face trait task,2021.2.3,MacIntel,60.24096386,120831,,,,,,,
,,,,,,6.039296875,3.1007,space,1.921,0,45,45,1,1,2,image/2.jpg,0,0,,R_6It1un8kGFdY7i4,2,2024-05-23_14h38.53.131,face trait task,2021.2.3,MacIntel,60.24096386,120831,,,,,,,
,,,,,,3.456796875,3.8788,space,4.4909,0,46,46,9,1,10,image/10.jpg,0,0,,R_6It1un8kGFdY7i4,2,2024-05-23_14h38.53.131,face trait task,2021.2.3,MacIntel,60.24096386,120831,,,,,,,
,,,,,,3.226015625,3.1975,space,0.5689,0,47,47,46,1,47,image/47.jpg,0,0,,R_6It1un8kGFdY7i4,2,2024-05-23_14h38.53.131,face trait task,2021.2.3,MacIntel,60.24096386,120831,,,,,,,
,,,,,,4.984739583,2.9792,space,1.6148,0,48,48,18,1,19,image/19.jpg,0,0,,R_6It1un8kGFdY7i4,2,2024-05-23_14h38.53.131,face trait task,2021.2.3,MacIntel,60.24096386,120831,,,,,,,
,,,,,,6.857473958,2.3457,space,0.3419,0,49,49,29,1,30,image/30.jpg,0,0,,R_6It1un8kGFdY7i4,2,2024-05-23_14h38.53.131,face trait task,2021.2.3,MacIntel,60.24096386,120831,,,,,,,
,,,,,,4.979140625,2.0123,space,0.3511,0,50,50,22,1,23,image/23.jpg,0,0,,R_6It1un8kGFdY7i4,2,2024-05-23_14h38.53.131,face trait task,2021.2.3,MacIntel,60.24096386,120831,,,,,,,
,,,,,,3.368229167,3.7913,space,0.5418,0,51,51,32,1,33,image/33.jpg,0,0,,R_6It1un8kGFdY7i4,2,2024-05-23_14h38.53.131,face trait task,2021.2.3,MacIntel,60.24096386,120831,,,,,,,
,,,,,,6.043463542,3.6052,space,0.312,0,52,52,21,1,22,image/22.jpg,0,0,,R_6It1un8kGFdY7i4,2,2024-05-23_14h38.53.131,face trait task,2021.2.3,MacIntel,60.24096386,120831,,,,,,,
,,,,,,,,,,,,,,,,,,,,R_6It1un8kGFdY7i4,2,2024-05-23_14h38.53.131,face trait task,2021.2.3,MacIntel,60.24096386,120831,0,2,2,2,1,2,trustworthy.png
,,,,,critical,6.936927083,4.1591,space,2.3749,0,0,0,27,1,28,image/28.jpg,0,0,,R_6It1un8kGFdY7i4,2,2024-05-23_14h38.53.131,face trait task,2021.2.3,MacIntel,60.24096386,120831,,,,,,,
,,,,,,4.947317708,5.9953,space,3.2311,0,1,1,4,1,5,image/5.jpg,0,0,,R_6It1un8kGFdY7i4,2,2024-05-23_14h38.53.131,face trait task,2021.2.3,MacIntel,60.24096386,120831,,,,,,,
,,,,,,3.2025,96.8469,space,0.4596,0,2,2,35,1,36,image/36.jpg,0,0,,R_6It1un8kGFdY7i4,2,2024-05-23_14h38.53.131,face trait task,2021.2.3,MacIntel,60.24096386,120831,,,,,,,
,,,,,,5.32078125,1.8609,space,0.3414,0,3,3,12,1,13,image/13.jpg,0,0,,R_6It1un8kGFdY7i4,2,2024-05-23_14h38.53.131,face trait task,2021.2.3,MacIntel,60.24096386,120831,,,,,,,
,,,,,,6.352265625,1.5482,space,0.3492,0,4,4,29,1,30,image/30.jpg,0,0,,R_6It1un8kGFdY7i4,2,2024-05-23_14h38.53.131,face trait task,2021.2.3,MacIntel,60.24096386,120831,,,,,,,
,,,,,,3.968697917,2.2691,space,0.356,0,5,5,23,1,24,image/24.jpg,0,0,,R_6It1un8kGFdY7i4,2,2024-05-23_14h38.53.131,face trait task,2021.2.3,MacIntel,60.24096386,120831,,,,,,,
,,,,,,6.834010417,2.8969,space,0.3655,0,6,6,40,1,41,image/41.jpg,0,0,,R_6It1un8kGFdY7i4,2,2024-05-23_14h38.53.131,face trait task,2021.2.3,MacIntel,60.24096386,120831,,,,,,,
,,,,,,5.46671875,1.8648,space,0.4201,0,7,7,28,1,29,image/29.jpg,0,0,,R_6It1un8kGFdY7i4,2,2024-05-23_14h38.53.131,face trait task,2021.2.3,MacIntel,60.24096386,120831,,,,,,,
,,,,,,3.31609375,3.8009,space,2.0076,0,8,8,37,1,38,image/38.jpg,0,0,,R_6It1un8kGFdY7i4,2,2024-05-23_14h38.53.131,face trait task,2021.2.3,MacIntel,60.24096386,120831,,,,,,,
,,,,,,2.825026042,1.9641,space,1.1668,0,9,9,46,1,47,image/47.jpg,0,0,,R_6It1un8kGFdY7i4,2,2024-05-23_14h38.53.131,face trait task,2021.2.3,MacIntel,60.24096386,120831,,,,,,,
,,,,,,6.981692708,2.863,space,0.3425,0,10,10,25,1,26,image/26.jpg,0,0,,R_6It1un8kGFdY7i4,2,2024-05-23_14h38.53.131,face trait task,2021.2.3,MacIntel,60.24096386,120831,,,,,,,
,,,,,,2.928359375,15.287,space,0.5763,0,11,11,49,1,50,image/50.jpg,0,0,,R_6It1un8kGFdY7i4,2,2024-05-23_14h38.53.131,face trait task,2021.2.3,MacIntel,60.24096386,120831,,,,,,,
,,,,,,2.468541667,42.037,space,0.3963,0,12,12,15,1,16,image/16.jpg,0,0,,R_6It1un8kGFdY7i4,2,2024-05-23_14h38.53.131,face trait task,2021.2.3,MacIntel,60.24096386,120831,,,,,,,
,,,,,,5.644010417,2.9883,space,0.3852,0,13,13,32,1,33,image/33.jpg,0,0,,R_6It1un8kGFdY7i4,2,2024-05-23_14h38.53.131,face trait task,2021.2.3,MacIntel,60.24096386,120831,,,,,,,
,,,,,,1.446588542,3.8965,space,0.7681,0,14,14,7,1,8,image/8.jpg,0,0,,R_6It1un8kGFdY7i4,2,2024-05-23_14h38.53.131,face trait task,2021.2.3,MacIntel,60.24096386,120831,,,,,,,
,,,,,,1.682578125,1.3503,space,0.7085,0,15,15,10,1,11,image/11.jpg,0,0,,R_6It1un8kGFdY7i4,2,2024-05-23_14h38.53.131,face trait task,2021.2.3,MacIntel,60.24096386,120831,,,,,,,
,,,,,,2.455963542,1.5292,space,0.3354,0,16,16,5,1,6,image/6.jpg,0,0,,R_6It1un8kGFdY7i4,2,2024-05-23_14h38.53.131,face trait task,2021.2.3,MacIntel,60.24096386,120831,,,,,,,
,,,,,,6.033776042,4.1873,space,0.2355,0,17,17,8,1,9,image/9.jpg,0,0,,R_6It1un8kGFdY7i4,2,2024-05-23_14h38.53.131,face trait task,2021.2.3,MacIntel,60.24096386,120831,,,,,,,
,,,,,,2.34734375,2.3463,space,0.2851,0,18,18,34,1,35,image/35.jpg,0,0,,R_6It1un8kGFdY7i4,2,2024-05-23_14h38.53.131,face trait task,2021.2.3,MacIntel,60.24096386,120831,,,,,,,
,,,,,,6.649869792,1.982,space,0.3688,0,19,19,19,1,20,image/20.jpg,0,0,,R_6It1un8kGFdY7i4,2,2024-05-23_14h38.53.131,face trait task,2021.2.3,MacIntel,60.24096386,120831,,,,,,,
,,,,,,1.397473958,3.5954,space,0.3398,0,20,20,41,1,42,image/42.jpg,0,0,,R_6It1un8kGFdY7i4,2,2024-05-23_14h38.53.131,face trait task,2021.2.3,MacIntel,60.24096386,120831,,,,,,,
,,,,,,4.957473958,3.5211,space,1.9973,0,21,21,21,1,22,image/22.jpg,0,0,,R_6It1un8kGFdY7i4,2,2024-05-23_14h38.53.131,face trait task,2021.2.3,MacIntel,60.24096386,120831,,,,,,,
,,,,,,6.628463542,12.1049,space,0.2953,0,22,22,3,1,4,image/4.jpg,0,0,,R_6It1un8kGFdY7i4,2,2024-05-23_14h38.53.131,face trait task,2021.2.3,MacIntel,60.24096386,120831,,,,,,,
,,,,,,6.625130208,1.2837,space,0.4558,0,23,23,26,1,27,image/27.jpg,0,0,,R_6It1un8kGFdY7i4,2,2024-05-23_14h38.53.131,face trait task,2021.2.3,MacIntel,60.24096386,120831,,,,,,,
,,,,,,6.032473958,1.9287,space,0.6027,0,24,24,16,1,17,image/17.jpg,0,0,,R_6It1un8kGFdY7i4,2,2024-05-23_14h38.53.131,face trait task,2021.2.3,MacIntel,60.24096386,120831,,,,,,,
,,,,,,1.2925,3.9123,space,1.9858,0,25,25,17,1,18,image/18.jpg,0,0,,R_6It1un8kGFdY7i4,2,2024-05-23_14h38.53.131,face trait task,2021.2.3,MacIntel,60.24096386,120831,,,,,,,
,,,,,,6.994583333,1.9195,space,0.4184,0,26,26,30,1,31,image/31.jpg,0,0,,R_6It1un8kGFdY7i4,2,2024-05-23_14h38.53.131,face trait task,2021.2.3,MacIntel,60.24096386,120831,,,,,,,
,,,,,,6.594427083,2.5321,space,0.3686,0,27,27,45,1,46,image/46.jpg,0,0,,R_6It1un8kGFdY7i4,2,2024-05-23_14h38.53.131,face trait task,2021.2.3,MacIntel,60.24096386,120831,,,,,,,
,,,,,,5.458802083,3.7005,space,0.422,0,28,28,43,1,44,image/44.jpg,0,0,,R_6It1un8kGFdY7i4,2,2024-05-23_14h38.53.131,face trait task,2021.2.3,MacIntel,60.24096386,120831,,,,,,,
,,,,,,2.994036458,83.5907,space,0.398,0,29,29,6,1,7,image/7.jpg,0,0,,R_6It1un8kGFdY7i4,2,2024-05-23_14h38.53.131,face trait task,2021.2.3,MacIntel,60.24096386,120831,,,,,,,
,,,,,,4.962994792,2.2792,space,0.9744,0,30,30,9,1,10,image/10.jpg,0,0,,R_6It1un8kGFdY7i4,2,2024-05-23_14h38.53.131,face trait task,2021.2.3,MacIntel,60.24096386,120831,,,,,,,
,,,,,,5.485,2.3623,space,0.4686,0,31,31,13,1,14,image/14.jpg,0,0,,R_6It1un8kGFdY7i4,2,2024-05-23_14h38.53.131,face trait task,2021.2.3,MacIntel,60.24096386,120831,,,,,,,
,,,,,,2.709609375,2.1453,space,0.4189,0,32,32,39,1,40,image/40.jpg,0,0,,R_6It1un8kGFdY7i4,2,2024-05-23_14h38.53.131,face trait task,2021.2.3,MacIntel,60.24096386,120831,,,,,,,
,,,,,,1,3.6742,space,1.4046,0,33,33,52,1,55,image/fill_img.png,1,1,Please move the slider all the way to the LEFT to show that you are paying attention.,R_6It1un8kGFdY7i4,2,2024-05-23_14h38.53.131,face trait task,2021.2.3,MacIntel,60.24096386,120831,,,,,,,
,,,,,,5.555338542,3.3116,space,0.5192,0,34,34,22,1,23,image/23.jpg,0,0,,R_6It1un8kGFdY7i4,2,2024-05-23_14h38.53.131,face trait task,2021.2.3,MacIntel,60.24096386,120831,,,,,,,
,,,,,,1.997421875,2.2464,space,0.4049,0,35,35,2,1,3,image/3.jpg,0,0,,R_6It1un8kGFdY7i4,2,2024-05-23_14h38.53.131,face trait task,2021.2.3,MacIntel,60.24096386,120831,,,,,,,
,,,,,,6.624296875,5.1208,space,0.3107,0,36,36,1,1,2,image/2.jpg,0,0,,R_6It1un8kGFdY7i4,2,2024-05-23_14h38.53.131,face trait task,2021.2.3,MacIntel,60.24096386,120831,,,,,,,
,,,,,,2.455859375,2.5619,space,0.3524,0,37,37,47,1,48,image/48.jpg,0,0,,R_6It1un8kGFdY7i4,2,2024-05-23_14h38.53.131,face trait task,2021.2.3,MacIntel,60.24096386,120831,,,,,,,
,,,,,,3.39734375,2.5961,space,0.2246,0,38,38,38,1,39,image/39.jpg,0,0,,R_6It1un8kGFdY7i4,2,2024-05-23_14h38.53.131,face trait task,2021.2.3,MacIntel,60.24096386,120831,,,,,,,
,,,,,,7,6.5621,space,4.9855,0,39,39,51,1,59,image/fill_img.png,1,7,Please move the slider all the way to the RIGHT to show that you are paying attention.,R_6It1un8kGFdY7i4,2,2024-05-23_14h38.53.131,face trait task,2021.2.3,MacIntel,60.24096386,120831,,,,,,,
,,,,,,5.019270833,3.1201,space,0.3801,0,40,40,20,1,21,image/21.jpg,0,0,,R_6It1un8kGFdY7i4,2,2024-05-23_14h38.53.131,face trait task,2021.2.3,MacIntel,60.24096386,120831,,,,,,,
,,,,,,1,4.0269,space,0.9019,0,41,41,50,1,54,image/fill_img.png,1,1,Please move the slider all the way to the LEFT to show that you are paying attention.,R_6It1un8kGFdY7i4,2,2024-05-23_14h38.53.131,face trait task,2021.2.3,MacIntel,60.24096386,120831,,,,,,,
,,,,,,6.064739583,2.58,space,0.3673,0,42,42,36,1,37,image/37.jpg,0,0,,R_6It1un8kGFdY7i4,2,2024-05-23_14h38.53.131,face trait task,2021.2.3,MacIntel,60.24096386,120831,,,,,,,
,,,,,,6.956744792,2.2453,space,1.5033,0,43,43,18,1,19,image/19.jpg,0,0,,R_6It1un8kGFdY7i4,2,2024-05-23_14h38.53.131,face trait task,2021.2.3,MacIntel,60.24096386,120831,,,,,,,
,,,,,,2.041067708,1.9693,space,0.3928,0,44,44,11,1,12,image/12.jpg,0,0,,R_6It1un8kGFdY7i4,2,2024-05-23_14h38.53.131,face trait task,2021.2.3,MacIntel,60.24096386,120831,,,,,,,
,,,,,,4.959192708,3.1795,space,0.3491,0,45,45,33,1,34,image/34.jpg,0,0,,R_6It1un8kGFdY7i4,2,2024-05-23_14h38.53.131,face trait task,2021.2.3,MacIntel,60.24096386,120831,,,,,,,
,,,,,,2.976770833,1.9288,space,0.3021,0,46,46,44,1,45,image/45.jpg,0,0,,R_6It1un8kGFdY7i4,2,2024-05-23_14h38.53.131,face trait task,2021.2.3,MacIntel,60.24096386,120831,,,,,,,
,,,,,,6.740494792,2.5972,space,0.2856,0,47,47,42,1,43,image/43.jpg,0,0,,R_6It1un8kGFdY7i4,2,2024-05-23_14h38.53.131,face trait task,2021.2.3,MacIntel,60.24096386,120831,,,,,,,
,,,,,,6.792890625,15.1056,space,0.2627,0,48,48,31,1,32,image/32.jpg,0,0,,R_6It1un8kGFdY7i4,2,2024-05-23_14h38.53.131,face trait task,2021.2.3,MacIntel,60.24096386,120831,,,,,,,
,,,,,,5.04421875,6.0851,space,0.3351,0,49,49,14,1,15,image/15.jpg,0,0,,R_6It1un8kGFdY7i4,2,2024-05-23_14h38.53.131,face trait task,2021.2.3,MacIntel,60.24096386,120831,,,,,,,
,,,,,,3.993229167,2.2403,space,0.2451,0,50,50,48,1,49,image/49.jpg,0,0,,R_6It1un8kGFdY7i4,2,2024-05-23_14h38.53.131,face trait task,2021.2.3,MacIntel,60.24096386,120831,,,,,,,
,,,,,,5.985494792,2.0967,space,0.3011,0,51,51,0,1,1,image/1.jpg,0,0,,R_6It1un8kGFdY7i4,2,2024-05-23_14h38.53.131,face trait task,2021.2.3,MacIntel,60.24096386,120831,,,,,,,
,,,,,,2.997447917,2.5148,space,1.0692,0,52,52,24,1,25,image/25.jpg,0,0,,R_6It1un8kGFdY7i4,2,2024-05-23_14h38.53.131,face trait task,2021.2.3,MacIntel,60.24096386,120831,,,,,,,
,,,,,,,,,,,,,,,,,,,,R_6It1un8kGFdY7i4,2,2024-05-23_14h38.53.131,face trait task,2021.2.3,MacIntel,60.24096386,120831,0,3,3,0,1,0,critical.png
