chooserow,ParID,pre_instru_resp_2.keys,pre_instru_resp_2.rt,pre_instru_resp_3.keys,pre_instru_resp_3.rt,pre_instru_resp_9.keys,pre_instru_resp_9.rt,pre_instru_resp_8.keys,pre_instru_resp_8.rt,pre_instru_resp_4.keys,pre_instru_resp_4.rt,pre_instru_resp_5.keys,pre_instru_resp_5.rt,pre_instru_resp_6.keys,pre_instru_resp_6.rt,key_resp_3.keys,key_resp_3.rt,key_resp_4.keys,key_resp_4.rt,key_resp_5.keys,key_resp_5.rt,key_resp_6.keys,key_resp_6.rt,key_resp_7.keys,key_resp_7.rt,trials_2.thisRepN,trials_2.thisTrialN,trials_2.thisN,trials_2.thisIndex,trials_2.ran,participant,session,date,expName,psychopyVersion,OS,frameRate,SONAid,pre_instru_resp.keys,pre_instru_resp.rt,clicked,judge_2.x,judge_2.y,judge_2.leftButton,judge_2.midButton,judge_2.rightButton,trials.thisRepN,trials.thisTrialN,trials.thisN,trials.thisIndex,trials.ran,prac_answer,prac_dot_sti,dotlefttext,dotrighttext,judge_2.clicked_name,prac_acc,judge.x,judge.y,judge.leftButton,judge.midButton,judge.rightButton,judge.clicked_name,clicked_guilt,slider_guilt.response,slider_guilt.rt,key_guilt.keys,share_slider.response,share_slider.rt,key_share.keys,slider_apology.response,slider_apology.rt,key_apology.keys,slider_hide.response,slider_hide.rt,slider_forgiveness.response,slider_forgiveness.rt,key_forgiveness.keys,slider_mad.response,slider_mad.rt,trialseq.thisRepN,trialseq.thisTrialN,trialseq.thisN,trialseq.thisIndex,trialseq.ran,type_trial,stipic,DV,picture,answer,number,key_guilt.rt,key_apology.rt,key_share.rt,key_forgiveness.rt
"[36,51,197,79,108,116,173,34,109,121,142,93,172,174,154,150,63,97,19,203,128,84,96,81,189,64,105,62,161,75,140,188,10,180,138,49,164,56,156,145,123,87]",R_6JCnE5DyshtV1nw,space,1.3977,space,3.9482,space,14.1853,space,35.9309,space,27.4856,space,13.2906,space,4.2203,2,8.074,3,11.0073,3,5.4752,1,8.2092,1,4.489,0,0,0,0,1,R_6JCnE5DyshtV1nw,1,2024-04-12_12h46.21.817,interaction task,2021.2.3,MacIntel,59.88023952,120479,,,,,,,,,,,,,,,,,,,,,,,,,,,,,,,,,,,,,,,,,,,,,,,,,,,,,,,,,
,,,,space,3.4371,space,19.2681,space,8.5834,space,46.1394,space,5.088,space,1.3817,3,2.8713,1,7.8523,3,5.1459,2,6.5009,3,4.9666,1,0,1,0,1,R_6JCnE5DyshtV1nw,1,2024-04-12_12h46.21.817,interaction task,2021.2.3,MacIntel,59.88023952,120479,,,,,,,,,,,,,,,,,,,,,,,,,,,,,,,,,,,,,,,,,,,,,,,,,,,,,,,,,
,,,,space,0.1376,space,0.3311,space,0.1423,space,0.1438,space,0.6845,space,0.3327,3,2.2662,1,2.9065,3,2.0316,2,2.7026,2,2.2823,2,0,2,0,1,R_6JCnE5DyshtV1nw,1,2024-04-12_12h46.21.817,interaction task,2021.2.3,MacIntel,59.88023952,120479,,,,,,,,,,,,,,,,,,,,,,,,,,,,,,,,,,,,,,,,,,,,,,,,,,,,,,,,,
,,,,,,,,,,,,,,,,,,,,,,,,,,,,,,,R_6JCnE5DyshtV1nw,1,2024-04-12_12h46.21.817,interaction task,2021.2.3,MacIntel,59.88023952,120479,space,4.3729,[],0.26966943,-0.321925951,0,0,0,0,0,0,2,1,RightButton_2,11dot2.png,Smaller,Greater,,,,,,,,,,,,,,,,,,,,,,,,,,,,,,,,,,,,,,,,
,,,,,,,,,,,,,,,,,,,,,,,,,,,,,,,R_6JCnE5DyshtV1nw,1,2024-04-12_12h46.21.817,interaction task,2021.2.3,MacIntel,59.88023952,120479,,,"[""LeftButton_2""]",-0.262840136,-0.293766984,1,0,0,0,1,1,1,1,LeftButton_2,9dot1.png,Smaller,Greater,LeftButton_2,,,,,,,,,,,,,,,,,,,,,,,,,,,,,,,,,,,,,,,
,,,,,,,,,,,,,,,,,,,,,,,,,,,,,,,R_6JCnE5DyshtV1nw,1,2024-04-12_12h46.21.817,interaction task,2021.2.3,MacIntel,59.88023952,120479,,,"[""LeftButton_2""]",-0.305335884,-0.340667459,1,0,0,0,2,2,0,1,LeftButton_2,11dot1.png,Greater,Smaller,LeftButton_2,,,,,,,,,,,,,,,,,,,,,,,,,,,,,,,,,,,,,,,
,,,,,,,,,,,,,,,,,,,,,,,,,,,,,,,R_6JCnE5DyshtV1nw,1,2024-04-12_12h46.21.817,interaction task,2021.2.3,MacIntel,59.88023952,120479,,,,,,,,,,,,,,,,Greater,Smaller,,0.4,0.226796344,-0.464758832,1,0,0,RightButton,"[""RightButton""]",,,,,,,,,,,,,,,,,0,0,0,0,1,0,both_right.png,3,RandomDot3.png,No answer,20,,,,
,,,,,,,,,,,,,,,,,,,,,,,,,,,,,,,R_6JCnE5DyshtV1nw,1,2024-04-12_12h46.21.817,interaction task,2021.2.3,MacIntel,59.88023952,120479,,,,,,,,,,,,,,,,Greater,Smaller,,,-0.31640625,-0.525399117,1,0,0,LeftButton,"[""LeftButton""]",91,5.1373,space,,,,,,,,,,,,,,0,1,1,1,1,1,both_wrong.png,0,RandomDot14.png,No answer,19,1.4724,,,
,,,,,,,,,,,,,,,,,,,,,,,,,,,,,,,R_6JCnE5DyshtV1nw,1,2024-04-12_12h46.21.817,interaction task,2021.2.3,MacIntel,59.88023952,120479,,,,,,,,,,,,,,,,Smaller,Greater,,,0.325366709,-0.541720448,1,0,0,RightButton,"[""RightButton""]",,,,,,,,,,,,,,,,,0,2,2,2,1,4,both_right.png,10,RandomDot41.png,RightButton,5,,,,
,,,,,,,,,,,,,,,,,,,,,,,,,,,,,,,R_6JCnE5DyshtV1nw,1,2024-04-12_12h46.21.817,interaction task,2021.2.3,MacIntel,59.88023952,120479,,,,,,,,,,,,,,,,Smaller,Greater,,,-0.293367347,-0.467179008,1,0,0,LeftButton,"[""LeftButton""]",,,,,,,88,5.7835,space,83,13.9423,,,,,,0,3,3,3,1,1,both_wrong.png,2,RandomDot24.png,No answer,21,,1.3675,,
,,,,,,,,,,,,,,,,,,,,,,,,,,,,,,,R_6JCnE5DyshtV1nw,1,2024-04-12_12h46.21.817,interaction task,2021.2.3,MacIntel,59.88023952,120479,,,,,,,,,,,,,,,,Greater,Smaller,,,0.233312075,-0.506377378,1,0,0,RightButton,"[""RightButton""]",,,,1.986766582,6.7771,space,,,,,,,,,,,0,4,4,4,1,2,only_sub_right.png,1,RandomDot3.png,No answer,20,,,1.0491,
,,,,,,,,,,,,,,,,,,,,,,,,,,,,,,,R_6JCnE5DyshtV1nw,1,2024-04-12_12h46.21.817,interaction task,2021.2.3,MacIntel,59.88023952,120479,,,,,,,,,,,,,,,,Smaller,Greater,,,-0.236468963,-0.499286685,1,0,0,LeftButton,"[""LeftButton""]",,,,2.021975978,7.133,space,,,,,,,,,,,0,5,5,5,1,2,only_sub_right.png,1,RandomDot25.png,No answer,19,,,0.4342,
,,,,,,,,,,,,,,,,,,,,,,,,,,,,,,,R_6JCnE5DyshtV1nw,1,2024-04-12_12h46.21.817,interaction task,2021.2.3,MacIntel,59.88023952,120479,,,,,,,,,,,,,,,,Greater,Smaller,,,0.313887117,-0.526409647,1,0,0,RightButton,"[""RightButton""]",,,,,,,78,3.4304,space,69,4.4664,,,,,,0,6,6,6,1,3,only_sub_wrong.png,2,RandomDot20.png,No answer,19,,0.6174,,
,,,,,,,,,,,,,,,,,,,,,,,,,,,,,,,R_6JCnE5DyshtV1nw,1,2024-04-12_12h46.21.817,interaction task,2021.2.3,MacIntel,59.88023952,120479,,,,,,,,,,,,,,,,Smaller,Greater,,,-0.236872874,-0.511226223,1,0,0,LeftButton,"[""LeftButton""]",,,,,,,,,,,,,,,,,0,7,7,7,1,0,both_right.png,2,RandomDot15.png,No answer,21,,,,
,,,,,,,,,,,,,,,,,,,,,,,,,,,,,,,R_6JCnE5DyshtV1nw,1,2024-04-12_12h46.21.817,interaction task,2021.2.3,MacIntel,59.88023952,120479,,,,,,,,,,,,,,,,Greater,Smaller,,,-0.236872874,-0.511226223,1,0,0,LeftButton,"[""LeftButton""]",,,,3.023278061,4.2175,space,,,,,,,,,,,0,8,8,8,1,2,only_sub_right.png,1,RandomDot3.png,No answer,19,,,0.319,
,,,,,,,,,,,,,,,,,,,,,,,,,,,,,,,R_6JCnE5DyshtV1nw,1,2024-04-12_12h46.21.817,interaction task,2021.2.3,MacIntel,59.88023952,120479,,,,,,,,,,,,,,,,Greater,Smaller,,,0.292182185,-0.488034986,1,0,0,RightButton,"[""RightButton""]",,,,,,,85,4.1753,space,66,6.8526,,,,,,0,9,9,9,1,2,only_sub_right.png,2,RandomDot18.png,No answer,19,,0.6336,,
,,,,,,,,,,,,,,,,,,,,,,,,,,,,,,,R_6JCnE5DyshtV1nw,1,2024-04-12_12h46.21.817,interaction task,2021.2.3,MacIntel,59.88023952,120479,,,,,,,,,,,,,,,,Smaller,Greater,,,-0.303300383,-0.516015625,1,0,0,LeftButton,"[""LeftButton""]",,,,,,,,,,,,79.73237906,5.5642,space,77.54533,8.1383,0,10,10,10,1,2,only_sub_right.png,3,RandomDot18.png,No answer,20,,,,0.3178
,,,,,,,,,,,,,,,,,,,,,,,,,,,,,,,R_6JCnE5DyshtV1nw,1,2024-04-12_12h46.21.817,interaction task,2021.2.3,MacIntel,59.88023952,120479,,,,,,,,,,,,,,,,Smaller,Greater,,,-0.284327168,-0.52835428,1,0,0,LeftButton,"[""LeftButton""]",,,,,,,,,,,,78.84016612,3.2226,space,69.07682265,4.1568,0,11,11,11,1,1,both_wrong.png,3,RandomDot12.png,No answer,21,,,,0.1668
,,,,,,,,,,,,,,,,,,,,,,,,,,,,,,,R_6JCnE5DyshtV1nw,1,2024-04-12_12h46.21.817,interaction task,2021.2.3,MacIntel,59.88023952,120479,,,,,,,,,,,,,,,,Greater,Smaller,,,0.244972364,-0.524796196,1,0,0,RightButton,"[""RightButton""]",,,,,,,81,5.2846,space,76,6.1591,,,,,,0,12,12,12,1,3,only_sub_wrong.png,2,RandomDot38.png,No answer,21,,0.2398,,
,,,,,,,,,,,,,,,,,,,,,,,,,,,,,,,R_6JCnE5DyshtV1nw,1,2024-04-12_12h46.21.817,interaction task,2021.2.3,MacIntel,59.88023952,120479,,,,,,,,,,,,,,,,Smaller,Greater,,,-0.279921344,-0.506351902,1,0,0,LeftButton,"[""LeftButton""]",,,,,,,80,2.8952,space,65,3.9901,,,,,,0,13,13,13,1,3,only_sub_wrong.png,2,RandomDot15.png,No answer,21,,0.1504,,
,,,,,,,,,,,,,,,,,,,,,,,,,,,,,,,R_6JCnE5DyshtV1nw,1,2024-04-12_12h46.21.817,interaction task,2021.2.3,MacIntel,59.88023952,120479,,,,,,,,,,,,,,,,Smaller,Greater,,,-0.25440051,-0.539563519,1,0,0,LeftButton,"[""LeftButton""]",80,3.1151,space,,,,,,,,,,,,,,0,14,14,14,1,3,only_sub_wrong.png,0,RandomDot25.png,No answer,21,0.885,,,
,,,,,,,,,,,,,,,,,,,,,,,,,,,,,,,R_6JCnE5DyshtV1nw,1,2024-04-12_12h46.21.817,interaction task,2021.2.3,MacIntel,59.88023952,120479,,,,,,,,,,,,,,,,Smaller,Greater,,,-0.2578125,-0.514954144,1,0,0,LeftButton,"[""LeftButton""]",90,2.0547,space,,,,,,,,,,,,,,0,15,15,15,1,3,only_sub_wrong.png,0,RandomDot16.png,No answer,21,0.3388,,,
,,,,,,,,,,,,,,,,,,,,,,,,,,,,,,,R_6JCnE5DyshtV1nw,1,2024-04-12_12h46.21.817,interaction task,2021.2.3,MacIntel,59.88023952,120479,,,,,,,,,,,,,,,,Greater,Smaller,,,0.257121599,-0.525076427,1,0,0,RightButton,"[""RightButton""]",,,,2.990779124,2.4972,space,,,,,,,,,,,0,16,16,16,1,1,both_wrong.png,1,RandomDot27.png,No answer,19,,,0.3173,
,,,,,,,,,,,,,,,,,,,,,,,,,,,,,,,R_6JCnE5DyshtV1nw,1,2024-04-12_12h46.21.817,interaction task,2021.2.3,MacIntel,59.88023952,120479,,,,,,,,,,,,,,,,Greater,Smaller,,,0.334119898,-0.500721807,1,0,0,RightButton,"[""RightButton""]",62,2.7161,space,,,,,,,,,,,,,,0,17,17,17,1,2,only_sub_right.png,0,RandomDot8.png,No answer,20,0.301,,,
,,,,,,,,,,,,,,,,,,,,,,,,,,,,,,,R_6JCnE5DyshtV1nw,1,2024-04-12_12h46.21.817,interaction task,2021.2.3,MacIntel,59.88023952,120479,,,,,,,,,,,,,,,,Smaller,Greater,,,0.27406994,-0.540132473,1,0,0,RightButton,"[""RightButton""]",,,,,,,,,,,,,,,,,0,18,18,18,1,0,both_right.png,1,RandomDot36.png,No answer,19,,,,
,,,,,,,,,,,,,,,,,,,,,,,,,,,,,,,R_6JCnE5DyshtV1nw,1,2024-04-12_12h46.21.817,interaction task,2021.2.3,MacIntel,59.88023952,120479,,,,,,,,,,,,,,,,Smaller,Greater,,,-0.283062287,-0.524923573,1,0,0,LeftButton,"[""LeftButton""]",,,,,,,,,,,,,,,,,0,19,19,19,1,5,both_right.png,10,RandomDot42.png,LeftButton,21,,,,
,,,,,,,,,,,,,,,,,,,,,,,,,,,,,,,R_6JCnE5DyshtV1nw,1,2024-04-12_12h46.21.817,interaction task,2021.2.3,MacIntel,59.88023952,120479,,,,,,,,,,,,,,,,Smaller,Greater,,,0.293085672,-0.529398777,1,0,0,RightButton,"[""RightButton""]",,,,,,,79,3.6723,space,99,8.1887,,,,,,0,20,20,20,1,2,only_sub_right.png,2,RandomDot22.png,No answer,20,,0.3174,,
,,,,,,,,,,,,,,,,,,,,,,,,,,,,,,,R_6JCnE5DyshtV1nw,1,2024-04-12_12h46.21.817,interaction task,2021.2.3,MacIntel,59.88023952,120479,,,,,,,,,,,,,,,,Greater,Smaller,,,0.242628614,-0.505400815,1,0,0,RightButton,"[""RightButton""]",,,,,,,,,,,,75.48604669,3.5344,space,83.94596475,5.7758,0,21,21,21,1,1,both_wrong.png,3,RandomDot6.png,No answer,20,,,,0.3179
,,,,,,,,,,,,,,,,,,,,,,,,,,,,,,,R_6JCnE5DyshtV1nw,1,2024-04-12_12h46.21.817,interaction task,2021.2.3,MacIntel,59.88023952,120479,,,,,,,,,,,,,,,,Greater,Smaller,,,-0.240008503,-0.481954823,1,0,0,LeftButton,"[""LeftButton""]",77,1.7778,space,,,,,,,,,,,,,,0,22,22,22,1,2,only_sub_right.png,0,RandomDot26.png,No answer,19,0.2899,,,
,,,,,,,,,,,,,,,,,,,,,,,,,,,,,,,R_6JCnE5DyshtV1nw,1,2024-04-12_12h46.21.817,interaction task,2021.2.3,MacIntel,59.88023952,120479,,,,,,,,,,,,,,,,Smaller,Greater,,,-0.238701105,-0.544098166,1,0,0,LeftButton,"[""LeftButton""]",,,,,,,93,2.2551,space,96,3.2887,,,,,,0,23,23,23,1,1,both_wrong.png,2,RandomDot21.png,No answer,20,,0.1959,,
,,,,,,,,,,,,,,,,,,,,,,,,,,,,,,,R_6JCnE5DyshtV1nw,1,2024-04-12_12h46.21.817,interaction task,2021.2.3,MacIntel,59.88023952,120479,,,,,,,,,,,,,,,,Smaller,Greater,,,0.317862457,-0.474702785,1,0,0,RightButton,"[""RightButton""]",,,,,,,,,,,,78.28239882,1.7839,space,76.47596286,2.5142,0,24,24,24,1,3,only_sub_wrong.png,3,RandomDot38.png,No answer,20,,,,0.0963
,,,,,,,,,,,,,,,,,,,,,,,,,,,,,,,R_6JCnE5DyshtV1nw,1,2024-04-12_12h46.21.817,interaction task,2021.2.3,MacIntel,59.88023952,120479,,,,,,,,,,,,,,,,Greater,Smaller,,,0.218999787,-0.482277514,1,0,0,RightButton,"[""RightButton""]",,,,3.006855867,3.3559,space,,,,,,,,,,,0,25,25,25,1,1,both_wrong.png,1,RandomDot6.png,No answer,20,,,2.5293,
,,,,,,,,,,,,,,,,,,,,,,,,,,,,,,,R_6JCnE5DyshtV1nw,1,2024-04-12_12h46.21.817,interaction task,2021.2.3,MacIntel,59.88023952,120479,,,,,,,,,,,,,,,,Smaller,Greater,,,-0.266066114,-0.513918139,1,0,0,LeftButton,"[""LeftButton""]",87,1.5905,space,,,,,,,,,,,,,,0,26,26,26,1,2,only_sub_right.png,0,RandomDot17.png,No answer,20,0.3537,,,
,,,,,,,,,,,,,,,,,,,,,,,,,,,,,,,R_6JCnE5DyshtV1nw,1,2024-04-12_12h46.21.817,interaction task,2021.2.3,MacIntel,59.88023952,120479,,,,,,,,,,,,,,,,Greater,Smaller,,,-0.266857993,-0.531360394,1,0,0,LeftButton,"[""LeftButton""]",,,,3.010071216,4.1647,space,,,,,,,,,,,0,27,27,27,1,1,both_wrong.png,1,RandomDot28.png,No answer,21,,,0.2676,
,,,,,,,,,,,,,,,,,,,,,,,,,,,,,,,R_6JCnE5DyshtV1nw,1,2024-04-12_12h46.21.817,interaction task,2021.2.3,MacIntel,59.88023952,120479,,,,,,,,,,,,,,,,Greater,Smaller,,,-0.302226828,-0.480078125,1,0,0,LeftButton,"[""LeftButton""]",,,,3.00135523,2.0198,space,,,,,,,,,,,0,28,28,28,1,3,only_sub_wrong.png,1,RandomDot36.png,No answer,19,,,0.3001,
,,,,,,,,,,,,,,,,,,,,,,,,,,,,,,,R_6JCnE5DyshtV1nw,1,2024-04-12_12h46.21.817,interaction task,2021.2.3,MacIntel,59.88023952,120479,,,,,,,,,,,,,,,,Greater,Smaller,,,0.28196216,-0.508033288,1,0,0,RightButton,"[""RightButton""]",,,,,,,88,2.4433,space,90,3.3117,,,,,,0,29,29,29,1,1,both_wrong.png,2,RandomDot10.png,No answer,20,,0.2841,,
,,,,,,,,,,,,,,,,,,,,,,,,,,,,,,,R_6JCnE5DyshtV1nw,1,2024-04-12_12h46.21.817,interaction task,2021.2.3,MacIntel,59.88023952,120479,,,,,,,,,,,,,,,,Smaller,Greater,,,-0.262159864,-0.528091033,1,0,0,LeftButton,"[""LeftButton""]",,,,,,,,,,,,59.45949718,3.3627,space,78.56047722,5.6364,0,30,30,30,1,2,only_sub_right.png,3,RandomDot8.png,No answer,19,,,,0.3341
,,,,,,,,,,,,,,,,,,,,,,,,,,,,,,,R_6JCnE5DyshtV1nw,1,2024-04-12_12h46.21.817,interaction task,2021.2.3,MacIntel,59.88023952,120479,,,,,,,,,,,,,,,,Smaller,Greater,,,-0.289147534,-0.464673913,1,0,0,LeftButton,"[""LeftButton""]",,,,,,,,,,,,53.63756614,3.5818,space,80.9128702,5.8561,0,31,31,31,1,3,only_sub_wrong.png,3,RandomDot22.png,No answer,21,,,,0.2676
,,,,,,,,,,,,,,,,,,,,,,,,,,,,,,,R_6JCnE5DyshtV1nw,1,2024-04-12_12h46.21.817,interaction task,2021.2.3,MacIntel,59.88023952,120479,,,,,,,,,,,,,,,,Smaller,Greater,,,-0.338435374,-0.509264606,1,0,0,LeftButton,"[""LeftButton""]",,,,,,,,,,,,,,,,,0,32,32,32,1,0,both_right.png,0,RandomDot19.png,No answer,21,,,,
,,,,,,,,,,,,,,,,,,,,,,,,,,,,,,,R_6JCnE5DyshtV1nw,1,2024-04-12_12h46.21.817,interaction task,2021.2.3,MacIntel,59.88023952,120479,,,,,,,,,,,,,,,,Greater,Smaller,,,0.263578869,-0.498556386,1,0,0,RightButton,"[""RightButton""]",,,,,,,,,,,,58.9054877,2.7684,space,78.91156463,3.6548,0,33,33,33,1,3,only_sub_wrong.png,3,RandomDot20.png,No answer,19,,,,0.2003
,,,,,,,,,,,,,,,,,,,,,,,,,,,,,,,R_6JCnE5DyshtV1nw,1,2024-04-12_12h46.21.817,interaction task,2021.2.3,MacIntel,59.88023952,120479,,,,,,,,,,,,,,,,Smaller,Greater,,,0.278109056,-0.503150476,1,0,0,RightButton,"[""RightButton""]",,,,,,,,,,,,69.72155655,2.5939,space,59.2565751,4.7722,0,34,34,34,1,2,only_sub_right.png,3,RandomDot25.png,No answer,21,,,,0.2548
,,,,,,,,,,,,,,,,,,,,,,,,,,,,,,,R_6JCnE5DyshtV1nw,1,2024-04-12_12h46.21.817,interaction task,2021.2.3,MacIntel,59.88023952,120479,,,,,,,,,,,,,,,,Greater,Smaller,,,0.26413159,-0.515998641,1,0,0,RightButton,"[""RightButton""]",100,3.068,space,,,,,,,,,,,,,,0,35,35,35,1,1,both_wrong.png,0,RandomDot16.png,No answer,19,1.0501,,,
,,,,,,,,,,,,,,,,,,,,,,,,,,,,,,,R_6JCnE5DyshtV1nw,1,2024-04-12_12h46.21.817,interaction task,2021.2.3,MacIntel,59.88023952,120479,,,,,,,,,,,,,,,,Smaller,Greater,,,-0.312813563,-0.508721128,1,0,0,LeftButton,"[""LeftButton""]",,,,2.99872449,2.7288,space,,,,,,,,,,,0,36,36,36,1,3,only_sub_wrong.png,1,RandomDot40.png,No answer,19,,,2.2707,
,,,,,,,,,,,,,,,,,,,,,,,,,,,,,,,R_6JCnE5DyshtV1nw,1,2024-04-12_12h46.21.817,interaction task,2021.2.3,MacIntel,59.88023952,120479,,,,,,,,,,,,,,,,Smaller,Greater,,,0.273203656,-0.495125679,1,0,0,RightButton,"[""RightButton""]",91,1.7422,space,,,,,,,,,,,,,,0,37,37,37,1,1,both_wrong.png,0,RandomDot39.png,No answer,21,0.484,,,
,,,,,,,,,,,,,,,,,,,,,,,,,,,,,,,R_6JCnE5DyshtV1nw,1,2024-04-12_12h46.21.817,interaction task,2021.2.3,MacIntel,59.88023952,120479,,,,,,,,,,,,,,,,Greater,Smaller,,,-0.290954507,-0.478727921,1,0,0,LeftButton,"[""LeftButton""]",,,,3.004597151,2.0066,space,,,,,,,,,,,0,38,38,38,1,3,only_sub_wrong.png,1,RandomDot4.png,No answer,20,,,0.7022,
,,,,,,,,,,,,,,,,,,,,,,,,,,,,,,,R_6JCnE5DyshtV1nw,1,2024-04-12_12h46.21.817,interaction task,2021.2.3,MacIntel,59.88023952,120479,,,,,,,,,,,,,,,,Greater,Smaller,,,0.238403486,-0.490540082,1,0,0,RightButton,"[""RightButton""]",100,1.9267,space,,,,,,,,,,,,,,0,39,39,39,1,3,only_sub_wrong.png,0,RandomDot15.png,No answer,20,0.5491,,,
,,,,,,,,,,,,,,,,,,,,,,,,,,,,,,,R_6JCnE5DyshtV1nw,1,2024-04-12_12h46.21.817,interaction task,2021.2.3,MacIntel,59.88023952,120479,,,,,,,,,,,,,,,,Greater,Smaller,,,0.25816858,-0.534663723,1,0,0,RightButton,"[""RightButton""]",,,,,,,100,3.2715,space,100,6.1299,,,,,,0,40,40,40,1,2,only_sub_right.png,2,RandomDot16.png,No answer,20,,0.6697,,
,,,,,,,,,,,,,,,,,,,,,,,,,,,,,,,R_6JCnE5DyshtV1nw,1,2024-04-12_12h46.21.817,interaction task,2021.2.3,MacIntel,59.88023952,120479,,,,,,,,,,,,,,,,Greater,Smaller,,,0.289184736,-0.530876359,1,0,0,RightButton,"[""RightButton""]",,,,,,,,,,,,59.94264499,3.7199,space,79.34961864,4.9106,0,41,41,41,1,1,both_wrong.png,3,RandomDot17.png,No answer,21,,,,0.2199
