chooserow,ParID,pre_instru_resp_2.keys,pre_instru_resp_2.rt,pre_instru_resp_3.keys,pre_instru_resp_3.rt,pre_instru_resp_9.keys,pre_instru_resp_9.rt,pre_instru_resp_8.keys,pre_instru_resp_8.rt,pre_instru_resp_4.keys,pre_instru_resp_4.rt,pre_instru_resp_5.keys,pre_instru_resp_5.rt,pre_instru_resp_6.keys,pre_instru_resp_6.rt,key_resp_3.keys,key_resp_3.rt,key_resp_4.keys,key_resp_4.rt,key_resp_5.keys,key_resp_5.rt,key_resp_6.keys,key_resp_6.rt,key_resp_7.keys,key_resp_7.rt,trials_2.thisRepN,trials_2.thisTrialN,trials_2.thisN,trials_2.thisIndex,trials_2.ran,participant,session,date,expName,psychopyVersion,OS,frameRate,SONAid,pre_instru_resp.keys,pre_instru_resp.rt,clicked,judge_2.x,judge_2.y,judge_2.leftButton,judge_2.midButton,judge_2.rightButton,judge_2.clicked_name,trials.thisRepN,trials.thisTrialN,trials.thisN,trials.thisIndex,trials.ran,prac_answer,prac_dot_sti,dotlefttext,dotrighttext,prac_acc,judge.x,judge.y,judge.leftButton,judge.midButton,judge.rightButton,judge.clicked_name,clicked_guilt,slider_guilt.response,slider_guilt.rt,key_guilt.keys,share_slider.response,share_slider.rt,key_share.keys,slider_apology.response,slider_apology.rt,key_apology.keys,slider_hide.response,slider_hide.rt,slider_forgiveness.response,slider_forgiveness.rt,key_forgiveness.keys,slider_mad.response,slider_mad.rt,trialseq.thisRepN,trialseq.thisTrialN,trialseq.thisN,trialseq.thisIndex,trialseq.ran,type_trial,stipic,DV,picture,answer,number,key_forgiveness.rt,key_guilt.rt,key_share.rt,key_apology.rt,incompleteTrials,trials_redo.thisRepN,trials_redo.thisTrialN,trials_redo.thisN,trials_redo.thisIndex,trials_redo.ran
"[199,88,102,165,125,82,163,28,137,113,40,64,8,144,190,159,130,106,119,91,189,177,136,135,120,192,48,19,76,174,148,58,68,110,72,151,97,87,59,170,185,60]",R_6qDGpWVB0cADqOv,space,5.5625,space,3.256,space,21.8993,space,18.6219,space,55.5968,space,6.181,space,6.097,3,5.0859,1,8.1313,3,9.3622,2,4.8417,2,2.1662,0,0,0,0,1,R_6qDGpWVB0cADqOv,1,2024-05-23_09h54.36.985,interaction task,2021.2.3,MacIntel,59.88023952,120715,,,,,,,,,,,,,,,,,,,,,,,,,,,,,,,,,,,,,,,,,,,,,,,,,,,,,,,,,,,,,,,
,,,,,,,,,,,,,,,,,,,,,,,,,,,,,,,R_6qDGpWVB0cADqOv,1,2024-05-23_09h54.36.985,interaction task,2021.2.3,MacIntel,59.88023952,120715,space,3.3286,"[""LeftButton_2""]",-0.256825087,-0.331440972,1,0,0,LeftButton_2,0,0,0,0,1,LeftButton_2,11dot1.png,Greater,Smaller,,,,,,,,,,,,,,,,,,,,,,,,,,,,,,,,,,,,,,,,,,,,,
,,,,,,,,,,,,,,,,,,,,,,,,,,,,,,,R_6qDGpWVB0cADqOv,1,2024-05-23_09h54.36.985,interaction task,2021.2.3,MacIntel,59.88023952,120715,,,"[""LeftButton_2""]",-0.2621148,-0.314453125,1,0,0,LeftButton_2,0,1,1,1,1,RightButton_2,9dot2.png,Greater,Smaller,,,,,,,,,,,,,,,,,,,,,,,,,,,,,,,,,,,,,,,,,,,,,
,,,,,,,,,,,,,,,,,,,,,,,,,,,,,,,R_6qDGpWVB0cADqOv,1,2024-05-23_09h54.36.985,interaction task,2021.2.3,MacIntel,59.88023952,120715,,,"[""LeftButton_2""]",-0.32413737,-0.308741319,1,0,0,LeftButton_2,0,2,2,2,1,RightButton_2,9dot2.png,Greater,Smaller,,,,,,,,,,,,,,,,,,,,,,,,,,,,,,,,,,,,,,,,,,,,,
,,,,,,,,,,,,,,,,,,,,,,,,,,,,,,,R_6qDGpWVB0cADqOv,1,2024-05-23_09h54.36.985,interaction task,2021.2.3,MacIntel,59.88023952,120715,,,,,,,,,,,,,,,,,Greater,Smaller,0.2,0.289420573,-0.509539931,1,0,0,RightButton,"[""RightButton""]",,,,,,,,,,,,,,,,,0,0,0,0,1,5,both_right.png,10,RandomDot42.png,RightButton,19,,,,,,,,,,
,,,,,,,,,,,,,,,,,,,,,,,,,,,,,,,R_6qDGpWVB0cADqOv,1,2024-05-23_09h54.36.985,interaction task,2021.2.3,MacIntel,59.88023952,120715,,,,,,,,,,,,,,,,,Greater,Smaller,,0.348876953,-0.510329861,1,0,0,RightButton,"[""RightButton""]",,,,,,,,,,,,90.60022973,11.1739,space,20.14469785,13.2947,0,1,1,1,1,1,both_wrong.png,3,RandomDot30.png,No answer,20,0.4377,,,,,,,,,
,,,,,,,,,,,,,,,,,,,,,,,,,,,,,,,R_6qDGpWVB0cADqOv,1,2024-05-23_09h54.36.985,interaction task,2021.2.3,MacIntel,59.88023952,120715,,,,,,,,,,,,,,,,,Smaller,Greater,,-0.264881727,-0.529930556,1,0,0,LeftButton,"[""LeftButton""]",0,2.8037,space,,,,,,,,,,,,,,0,2,2,2,1,2,only_sub_right.png,0,RandomDot16.png,No answer,21,,0.9296,,,,,,,,
,,,,,,,,,,,,,,,,,,,,,,,,,,,,,,,R_6qDGpWVB0cADqOv,1,2024-05-23_09h54.36.985,interaction task,2021.2.3,MacIntel,59.88023952,120715,,,,,,,,,,,,,,,,,Smaller,Greater,,0.303130425,-0.515763889,1,0,0,RightButton,"[""RightButton""]",,,,2.98844401,16.8473,space,,,,,,,,,,,0,3,3,3,1,3,only_sub_wrong.png,1,RandomDot6.png,No answer,21,,,1.2204,,,,,,,
,,,,,,,,,,,,,,,,,,,,,,,,,,,,,,,R_6qDGpWVB0cADqOv,1,2024-05-23_09h54.36.985,interaction task,2021.2.3,MacIntel,59.88023952,120715,,,,,,,,,,,,,,,,,Greater,Smaller,,0.276502821,-0.539565972,1,0,0,RightButton,"[""RightButton""]",,,,,,,10,4.3467,space,40,8.3256,,,,,,0,4,4,4,1,2,only_sub_right.png,2,RandomDot36.png,No answer,21,,,,0.7417,,,,,,
,,,,,,,,,,,,,,,,,,,,,,,,,,,,,,,R_6qDGpWVB0cADqOv,1,2024-05-23_09h54.36.985,interaction task,2021.2.3,MacIntel,59.88023952,120715,,,,,,,,,,,,,,,,,Smaller,Greater,,0.235687934,-0.506666667,1,0,0,RightButton,"[""RightButton""]",,,,,,,1,8.1813,space,20,12.2652,,,,,,0,5,5,5,1,1,both_wrong.png,2,RandomDot7.png,No answer,21,,,,1.2182,,,,,,
,,,,,,,,,,,,,,,,,,,,,,,,,,,,,,,R_6qDGpWVB0cADqOv,1,2024-05-23_09h54.36.985,interaction task,2021.2.3,MacIntel,59.88023952,120715,,,,,,,,,,,,,,,,,Smaller,Greater,,0.272987196,-0.527326389,1,0,0,RightButton,"[""RightButton""]",,,,1.007432726,9.8282,space,,,,,,,,,,,0,6,6,6,1,3,only_sub_wrong.png,1,RandomDot6.png,No answer,20,,,0.7898,,,,,,,
,,,,,,,,,,,,,,,,,,,,,,,,,,,,,,,R_6qDGpWVB0cADqOv,1,2024-05-23_09h54.36.985,interaction task,2021.2.3,MacIntel,59.88023952,120715,,,,,,,,,,,,,,,,,Greater,Smaller,,0.291351997,-0.504036458,1,0,0,RightButton,"[""RightButton""]",,,,,,,,,,,,,,,,,0,7,7,7,1,0,both_right.png,2,RandomDot23.png,No answer,19,,,,,,,,,,
,,,,,,,,,,,,,,,,,,,,,,,,,,,,,,,R_6qDGpWVB0cADqOv,1,2024-05-23_09h54.36.985,interaction task,2021.2.3,MacIntel,59.88023952,120715,,,,,,,,,,,,,,,,,Greater,Smaller,,0.335091146,-0.505529514,1,0,0,RightButton,"[""RightButton""]",,,,,,,,,,,,68.69169122,17.1269,space,41.16983638,20.4649,0,8,8,8,1,2,only_sub_right.png,3,RandomDot23.png,No answer,20,0.4808,,,,,,,,,
,,,,,,,,,,,,,,,,,,,,,,,,,,,,,,,R_6qDGpWVB0cADqOv,1,2024-05-23_09h54.36.985,interaction task,2021.2.3,MacIntel,59.88023952,120715,,,,,,,,,,,,,,,,,Greater,Smaller,,0.277734375,-0.527552083,1,0,0,RightButton,"[""RightButton""]",,,,0.816134983,12.7125,space,,,,,,,,,,,0,9,9,9,1,2,only_sub_right.png,1,RandomDot3.png,No answer,20,,,0.902,,,,,,,
,,,,,,,,,,,,,,,,,,,,,,,,,,,,,,,R_6qDGpWVB0cADqOv,1,2024-05-23_09h54.36.985,interaction task,2021.2.3,MacIntel,59.88023952,120715,,,,,,,,,,,,,,,,,Greater,Smaller,,0.31437717,-0.478888889,1,0,0,RightButton,"[""RightButton""]",,,,,,,,,,,,,,,,,0,10,10,10,1,0,both_right.png,3,RandomDot36.png,No answer,20,,,,,,,,,,
,,,,,,,,,,,,,,,,,,,,,,,,,,,,,,,R_6qDGpWVB0cADqOv,1,2024-05-23_09h54.36.985,interaction task,2021.2.3,MacIntel,59.88023952,120715,,,,,,,,,,,,,,,,,Greater,Smaller,,0.31437717,-0.478888889,1,0,0,RightButton,"[""RightButton""]",,,,0.055582682,6.7611,space,,,,,,,,,,,0,11,11,11,1,1,both_wrong.png,1,RandomDot6.png,No answer,20,,,4.3626,,,,,,,
,,,,,,,,,,,,,,,,,,,,,,,,,,,,,,,R_6qDGpWVB0cADqOv,1,2024-05-23_09h54.36.985,interaction task,2021.2.3,MacIntel,59.88023952,120715,,,,,,,,,,,,,,,,,Smaller,Greater,,-0.330137804,-0.470512153,1,0,0,LeftButton,"[""LeftButton""]",,,,,,,,,,,,,,,,,0,12,12,12,1,0,both_right.png,0,RandomDot15.png,No answer,21,,,,,,,,,,
,,,,,,,,,,,,,,,,,,,,,,,,,,,,,,,R_6qDGpWVB0cADqOv,1,2024-05-23_09h54.36.985,interaction task,2021.2.3,MacIntel,59.88023952,120715,,,,,,,,,,,,,,,,,Greater,Smaller,,-0.34718967,-0.513428819,1,0,0,LeftButton,"[""LeftButton""]",0,2.5821,space,,,,,,,,,,,,,,0,13,13,13,1,3,only_sub_wrong.png,0,RandomDot33.png,No answer,19,,0.7384,,,,,,,,
,,,,,,,,,,,,,,,,,,,,,,,,,,,,,,,R_6qDGpWVB0cADqOv,1,2024-05-23_09h54.36.985,interaction task,2021.2.3,MacIntel,59.88023952,120715,,,,,,,,,,,,,,,,,Smaller,Greater,,0.247374132,-0.456649306,1,0,0,RightButton,"[""RightButton""]",,,,,,,,,,,,68.44892063,5.1288,space,32.45091979,6.2298,0,14,14,14,1,3,only_sub_wrong.png,3,RandomDot7.png,No answer,19,0.587,,,,,,,,,
,,,,,,,,,,,,,,,,,,,,,,,,,,,,,,,R_6qDGpWVB0cADqOv,1,2024-05-23_09h54.36.985,interaction task,2021.2.3,MacIntel,59.88023952,120715,,,,,,,,,,,,,,,,,Greater,Smaller,,-0.347645399,-0.545078125,1,0,0,LeftButton,"[""LeftButton""]",,,,0.002821181,7.0288,space,,,,,,,,,,,0,15,15,15,1,3,only_sub_wrong.png,1,RandomDot11.png,No answer,20,,,2.5429,,,,,,,
,,,,,,,,,,,,,,,,,,,,,,,,,,,,,,,R_6qDGpWVB0cADqOv,1,2024-05-23_09h54.36.985,interaction task,2021.2.3,MacIntel,59.88023952,120715,,,,,,,,,,,,,,,,,Smaller,Greater,,-0.235476345,-0.527838542,1,0,0,LeftButton,"[""LeftButton""]",,,,,,,0,7.0072,space,19,8.618,,,,,,0,16,16,16,1,2,only_sub_right.png,2,RandomDot8.png,No answer,21,,,,0.5556,,,,,,
,,,,,,,,,,,,,,,,,,,,,,,,,,,,,,,R_6qDGpWVB0cADqOv,1,2024-05-23_09h54.36.985,interaction task,2021.2.3,MacIntel,59.88023952,120715,,,,,,,,,,,,,,,,,Smaller,Greater,,-0.353293186,-0.492178819,1,0,0,LeftButton,"[""LeftButton""]",0,3.2971,space,,,,,,,,,,,,,,0,17,17,17,1,2,only_sub_right.png,0,RandomDot39.png,No answer,19,,0.7407,,,,,,,,
,,,,,,,,,,,,,,,,,,,,,,,,,,,,,,,R_6qDGpWVB0cADqOv,1,2024-05-23_09h54.36.985,interaction task,2021.2.3,MacIntel,59.88023952,120715,,,,,,,,,,,,,,,,,Smaller,Greater,,0.346061198,-0.524982639,1,0,0,RightButton,"[""RightButton""]",,,,0.010715061,3.6841,space,,,,,,,,,,,0,18,18,18,1,2,only_sub_right.png,1,RandomDot38.png,No answer,19,,,0.7079,,,,,,,
,,,,,,,,,,,,,,,,,,,,,,,,,,,,,,,R_6qDGpWVB0cADqOv,1,2024-05-23_09h54.36.985,interaction task,2021.2.3,MacIntel,59.88023952,120715,,,,,,,,,,,,,,,,,Smaller,Greater,,0.196999783,-0.496996528,1,0,0,RightButton,"[""RightButton""]",,,,,,,,,,,,91.65132225,5.5133,space,30.90222976,3.4633,0,19,19,19,1,1,both_wrong.png,3,RandomDot23.png,No answer,20,2.3214,,,,,,,,,
,,,,,,,,,,,,,,,,,,,,,,,,,,,,,,,R_6qDGpWVB0cADqOv,1,2024-05-23_09h54.36.985,interaction task,2021.2.3,MacIntel,59.88023952,120715,,,,,,,,,,,,,,,,,Smaller,Greater,,-0.212310113,-0.490894097,1,0,0,LeftButton,"[""LeftButton""]",,,,,,,,,,,,82.33123334,2.4121,space,17.33064148,3.4659,0,20,20,20,1,3,only_sub_wrong.png,3,RandomDot38.png,No answer,20,0.7415,,,,,,,,,
,,,,,,,,,,,,,,,,,,,,,,,,,,,,,,,R_6qDGpWVB0cADqOv,1,2024-05-23_09h54.36.985,interaction task,2021.2.3,MacIntel,59.88023952,120715,,,,,,,,,,,,,,,,,Smaller,Greater,,0.297688802,-0.521727431,1,0,0,RightButton,"[""RightButton""]",,,,,,,5,6.4612,space,9,7.8654,,,,,,0,21,21,21,1,3,only_sub_wrong.png,2,RandomDot31.png,No answer,19,,,,0.724,,,,,,
,,,,,,,,,,,,,,,,,,,,,,,,,,,,,,,R_6qDGpWVB0cADqOv,1,2024-05-23_09h54.36.985,interaction task,2021.2.3,MacIntel,59.88023952,120715,,,,,,,,,,,,,,,,,Greater,Smaller,,-0.219151476,-0.505512153,1,0,0,LeftButton,"[""LeftButton""]",,,,,,,,,,,,94.08341225,6.0304,space,7.703664247,7.0296,0,22,22,22,1,2,only_sub_right.png,3,RandomDot10.png,No answer,19,1.0391,,,,,,,,,
,,,,,,,,,,,,,,,,,,,,,,,,,,,,,,,R_6qDGpWVB0cADqOv,1,2024-05-23_09h54.36.985,interaction task,2021.2.3,MacIntel,59.88023952,120715,,,,,,,,,,,,,,,,,Greater,Smaller,,-0.065521918,-0.441822917,0,0,0,,[],,,,,,,,,,,,,,,,,0,23,23,23,1,2,only_sub_right.png,3,RandomDot26.png,No answer,20,,,,,135,,,,,
,,,,,,,,,,,,,,,,,,,,,,,,,,,,,,,R_6qDGpWVB0cADqOv,1,2024-05-23_09h54.36.985,interaction task,2021.2.3,MacIntel,59.88023952,120715,,,,,,,,,,,,,,,,,Greater,Smaller,,0.288726128,-0.490295139,1,0,0,RightButton,"[""RightButton""]",,,,,,,2,8.099,space,21,11.9786,,,,,,0,24,24,24,1,2,only_sub_right.png,2,RandomDot21.png,No answer,21,,,,0.573,,,,,,
,,,,,,,,,,,,,,,,,,,,,,,,,,,,,,,R_6qDGpWVB0cADqOv,1,2024-05-23_09h54.36.985,interaction task,2021.2.3,MacIntel,59.88023952,120715,,,,,,,,,,,,,,,,,Greater,Smaller,,-0.334988064,-0.519192708,1,0,0,LeftButton,"[""LeftButton""]",,,,,,,,,,,,,,,,,0,25,25,25,1,4,both_right.png,10,RandomDot41.png,LeftButton,5,,,,,,,,,,
,,,,,,,,,,,,,,,,,,,,,,,,,,,,,,,R_6qDGpWVB0cADqOv,1,2024-05-23_09h54.36.985,interaction task,2021.2.3,MacIntel,59.88023952,120715,,,,,,,,,,,,,,,,,Greater,Smaller,,0.299956597,-0.510859375,1,0,0,RightButton,"[""RightButton""]",0,4.4803,space,,,,,,,,,,,,,,0,26,26,26,1,1,both_wrong.png,0,RandomDot24.png,No answer,21,,0.1441,,,,,,,,
,,,,,,,,,,,,,,,,,,,,,,,,,,,,,,,R_6qDGpWVB0cADqOv,1,2024-05-23_09h54.36.985,interaction task,2021.2.3,MacIntel,59.88023952,120715,,,,,,,,,,,,,,,,,Smaller,Greater,,-0.283132595,-0.486067708,1,0,0,LeftButton,"[""LeftButton""]",,,,,,,,,,,,,,,,,0,27,27,27,1,0,both_right.png,1,RandomDot36.png,No answer,19,,,,,,,,,,
,,,,,,,,,,,,,,,,,,,,,,,,,,,,,,,R_6qDGpWVB0cADqOv,1,2024-05-23_09h54.36.985,interaction task,2021.2.3,MacIntel,59.88023952,120715,,,,,,,,,,,,,,,,,Greater,Smaller,,0.338840061,-0.492196181,1,0,0,RightButton,"[""RightButton""]",,,,,,,4,6.7784,space,13,7.6816,,,,,,0,28,28,28,1,1,both_wrong.png,2,RandomDot9.png,No answer,21,,,,0.7063,,,,,,
,,,,,,,,,,,,,,,,,,,,,,,,,,,,,,,R_6qDGpWVB0cADqOv,1,2024-05-23_09h54.36.985,interaction task,2021.2.3,MacIntel,59.88023952,120715,,,,,,,,,,,,,,,,,Smaller,Greater,,-0.317979601,-0.505529514,1,0,0,LeftButton,"[""LeftButton""]",,,,,,,2,2.6151,space,7,1.5146,,,,,,0,29,29,29,1,3,only_sub_wrong.png,2,RandomDot15.png,No answer,21,,,,0.5377,,,,,,
,,,,,,,,,,,,,,,,,,,,,,,,,,,,,,,R_6qDGpWVB0cADqOv,1,2024-05-23_09h54.36.985,interaction task,2021.2.3,MacIntel,59.88023952,120715,,,,,,,,,,,,,,,,,Greater,Smaller,,-0.30710178,-0.497899306,1,0,0,LeftButton,"[""LeftButton""]",1,2.7495,space,,,,,,,,,,,,,,0,30,30,30,1,3,only_sub_wrong.png,0,RandomDot12.png,No answer,20,,0.6678,,,,,,,,
,,,,,,,,,,,,,,,,,,,,,,,,,,,,,,,R_6qDGpWVB0cADqOv,1,2024-05-23_09h54.36.985,interaction task,2021.2.3,MacIntel,59.88023952,120715,,,,,,,,,,,,,,,,,Smaller,Greater,,-0.297840712,-0.507352431,1,0,0,LeftButton,"[""LeftButton""]",0,1.6586,space,,,,,,,,,,,,,,0,31,31,31,1,1,both_wrong.png,0,RandomDot34.png,No answer,19,,0.805,,,,,,,,
,,,,,,,,,,,,,,,,,,,,,,,,,,,,,,,R_6qDGpWVB0cADqOv,1,2024-05-23_09h54.36.985,interaction task,2021.2.3,MacIntel,59.88023952,120715,,,,,,,,,,,,,,,,,Smaller,Greater,,-0.226291233,-0.506536458,1,0,0,LeftButton,"[""LeftButton""]",,,,0.008056641,3.3021,space,,,,,,,,,,,0,32,32,32,1,1,both_wrong.png,1,RandomDot8.png,No answer,21,,,0.8872,,,,,,,
,,,,,,,,,,,,,,,,,,,,,,,,,,,,,,,R_6qDGpWVB0cADqOv,1,2024-05-23_09h54.36.985,interaction task,2021.2.3,MacIntel,59.88023952,120715,,,,,,,,,,,,,,,,,Greater,Smaller,,-0.311029731,-0.506432292,1,0,0,LeftButton,"[""LeftButton""]",,,,0.055230035,2.3495,space,,,,,,,,,,,0,33,33,33,1,2,only_sub_right.png,1,RandomDot6.png,No answer,21,,,0.7903,,,,,,,
,,,,,,,,,,,,,,,,,,,,,,,,,,,,,,,R_6qDGpWVB0cADqOv,1,2024-05-23_09h54.36.985,interaction task,2021.2.3,MacIntel,59.88023952,120715,,,,,,,,,,,,,,,,,Greater,Smaller,,0.33882921,-0.496961806,1,0,0,RightButton,"[""RightButton""]",,,,,,,5,2.1652,space,7,3.308,,,,,,0,34,34,34,1,1,both_wrong.png,2,RandomDot1.png,No answer,21,,,,0.3108,,,,,,
,,,,,,,,,,,,,,,,,,,,,,,,,,,,,,,R_6qDGpWVB0cADqOv,1,2024-05-23_09h54.36.985,interaction task,2021.2.3,MacIntel,59.88023952,120715,,,,,,,,,,,,,,,,,Smaller,Greater,,-0.269932726,-0.505824653,1,0,0,LeftButton,"[""LeftButton""]",3,2.4125,space,,,,,,,,,,,,,,0,35,35,35,1,3,only_sub_wrong.png,0,RandomDot26.png,No answer,19,,0.7414,,,,,,,,
,,,,,,,,,,,,,,,,,,,,,,,,,,,,,,,R_6qDGpWVB0cADqOv,1,2024-05-23_09h54.36.985,interaction task,2021.2.3,MacIntel,59.88023952,120715,,,,,,,,,,,,,,,,,Greater,Smaller,,-0.324419488,-0.505034722,1,0,0,LeftButton,"[""LeftButton""]",3,2.0339,space,,,,,,,,,,,,,,0,36,36,36,1,2,only_sub_right.png,0,RandomDot8.png,No answer,20,,1.196,,,,,,,,
,,,,,,,,,,,,,,,,,,,,,,,,,,,,,,,R_6qDGpWVB0cADqOv,1,2024-05-23_09h54.36.985,interaction task,2021.2.3,MacIntel,59.88023952,120715,,,,,,,,,,,,,,,,,Greater,Smaller,,-0.307378472,-0.498671875,1,0,0,LeftButton,"[""LeftButton""]",,,,,,,,,,,,90.0796156,3.0666,space,11.66745581,4.0824,0,37,37,37,1,1,both_wrong.png,3,RandomDot17.png,No answer,21,0.6385,,,,,,,,,
,,,,,,,,,,,,,,,,,,,,,,,,,,,,,,,R_6qDGpWVB0cADqOv,1,2024-05-23_09h54.36.985,interaction task,2021.2.3,MacIntel,59.88023952,120715,,,,,,,,,,,,,,,,,Smaller,Greater,,-0.275287543,-0.498637153,1,0,0,LeftButton,"[""LeftButton""]",3,2.4853,space,,,,,,,,,,,,,,0,38,38,38,1,1,both_wrong.png,0,RandomDot14.png,No answer,21,,0.6694,,,,,,,,
,,,,,,,,,,,,,,,,,,,,,,,,,,,,,,,R_6qDGpWVB0cADqOv,1,2024-05-23_09h54.36.985,interaction task,2021.2.3,MacIntel,59.88023952,120715,,,,,,,,,,,,,,,,,Greater,Smaller,,0.238075087,-0.472126736,1,0,0,RightButton,"[""RightButton""]",,,,,,,20,2.4989,space,21,3.6817,,,,,,0,39,39,39,1,3,only_sub_wrong.png,2,RandomDot39.png,No answer,20,,,,0.669,,,,,,
,,,,,,,,,,,,,,,,,,,,,,,,,,,,,,,R_6qDGpWVB0cADqOv,1,2024-05-23_09h54.36.985,interaction task,2021.2.3,MacIntel,59.88023952,120715,,,,,,,,,,,,,,,,,Greater,Smaller,,-0.272634549,-0.4946875,1,0,0,LeftButton,"[""LeftButton""]",,,,,,,,,,,,84.14132646,3.2478,space,17.5449153,4.2964,0,40,40,40,1,3,only_sub_wrong.png,3,RandomDot34.png,No answer,20,0.1738,,,,,,,,,
,,,,,,,,,,,,,,,,,,,,,,,,,,,,,,,R_6qDGpWVB0cADqOv,1,2024-05-23_09h54.36.985,interaction task,2021.2.3,MacIntel,59.88023952,120715,,,,,,,,,,,,,,,,,Greater,Smaller,,-0.2230523,-0.5290625,1,0,0,LeftButton,"[""LeftButton""]",,,,0.032633464,2.235,space,,,,,,,,,,,0,41,41,41,1,1,both_wrong.png,1,RandomDot13.png,No answer,19,,,0.5718,,,,,,,
,,,,,,,,,,,,,,,,,,,,,,,,,,,,,,,R_6qDGpWVB0cADqOv,1,2024-05-23_09h54.36.985,interaction task,2021.2.3,MacIntel,59.88023952,120715,,,,,,,,,,,,,,,,,Greater,Smaller,,-0.289100477,-0.486788194,1,0,0,LeftButton,"[""LeftButton""]",,,,,,,,,,,,79.27550242,8.4641,space,8.101523043,9.4294,,,,,,2,only_sub_right.png,3,RandomDot26.png,No answer,20,0.2202,,,,,0,0,0,0,1
