choose_trial,key_resp.keys,key_resp.rt,key_resp_4.keys,key_resp_4.rt,session_trait,slider_face_judge.response,slider_face_judge.rt,key_resp_3.keys,key_resp_3.rt,face_loop.thisRepN,face_loop.thisTrialN,face_loop.thisN,face_loop.thisIndex,face_loop.ran,face_serial,image_name,isCheck,answer,check_question,participant,session,date,expName,psychopyVersion,OS,frameRate,SONAid,session.thisRepN,session.thisTrialN,session.thisN,session.thisIndex,session.ran,session_serial,slider_judge_img
"[0,1,2,3,4,5,6,7,8,9,10,11,12,13,14,15,16,17,18,19,20,21,22,23,24,25,26,27,28,29,30,31,32,33,34,35,36,37,38,39,40,41,42,43,44,45,46,47,48,49,60,59,55]",space,5.6781,space,8.5734,competent,4.036883036,2.779,space,1.1029,0,0,0,17,1,18,image/18.jpg,0,0,,R_6upvmTfOk884ujf,2,2024-05-28_14h03.34.893,face trait task,2021.2.3,Linux x86_64,30.03003003,120472,,,,,,,
,,,,,,4.004570431,3.6704,space,0.5689,0,1,1,14,1,15,image/15.jpg,0,0,,R_6upvmTfOk884ujf,2,2024-05-28_14h03.34.893,face trait task,2021.2.3,Linux x86_64,30.03003003,120472,,,,,,,
,,,,,,2.935602824,5.8267,space,0.6828,0,2,2,33,1,34,image/34.jpg,0,0,,R_6upvmTfOk884ujf,2,2024-05-28_14h03.34.893,face trait task,2021.2.3,Linux x86_64,30.03003003,120472,,,,,,,
,,,,,,2.904476166,3.1212,space,0.1066,0,3,3,49,1,50,image/50.jpg,0,0,,R_6upvmTfOk884ujf,2,2024-05-28_14h03.34.893,face trait task,2021.2.3,Linux x86_64,30.03003003,120472,,,,,,,
,,,,,,2.009144041,10.1856,space,0.4727,0,4,4,21,1,22,image/22.jpg,0,0,,R_6upvmTfOk884ujf,2,2024-05-28_14h03.34.893,face trait task,2021.2.3,Linux x86_64,30.03003003,120472,,,,,,,
,,,,,,3.009051429,4.0116,space,0.1492,0,5,5,44,1,45,image/45.jpg,0,0,,R_6upvmTfOk884ujf,2,2024-05-28_14h03.34.893,face trait task,2021.2.3,Linux x86_64,30.03003003,120472,,,,,,,
,,,,,,1.945935779,3.5064,space,1.6365,0,6,6,22,1,23,image/23.jpg,0,0,,R_6upvmTfOk884ujf,2,2024-05-28_14h03.34.893,face trait task,2021.2.3,Linux x86_64,30.03003003,120472,,,,,,,
,,,,,,3.961004893,5.0736,space,0.5695,0,7,7,7,1,8,image/8.jpg,0,0,,R_6upvmTfOk884ujf,2,2024-05-28_14h03.34.893,face trait task,2021.2.3,Linux x86_64,30.03003003,120472,,,,,,,
,,,,,,6.990519206,5.6593,space,0.1739,0,8,8,51,1,60,image/fill_img.png,1,7,Please move the slider all the way to the RIGHT to show that you are paying attention.,R_6upvmTfOk884ujf,2,2024-05-28_14h03.34.893,face trait task,2021.2.3,Linux x86_64,30.03003003,120472,,,,,,,
,,,,,,2.985993279,6.4814,space,0.1764,0,9,9,38,1,39,image/39.jpg,0,0,,R_6upvmTfOk884ujf,2,2024-05-28_14h03.34.893,face trait task,2021.2.3,Linux x86_64,30.03003003,120472,,,,,,,
,,,,,,5.923220317,2.9987,space,0.1145,0,10,10,20,1,21,image/21.jpg,0,0,,R_6upvmTfOk884ujf,2,2024-05-28_14h03.34.893,face trait task,2021.2.3,Linux x86_64,30.03003003,120472,,,,,,,
,,,,,,3.010457781,2.5141,space,1.9065,0,11,11,19,1,20,image/20.jpg,0,0,,R_6upvmTfOk884ujf,2,2024-05-28_14h03.34.893,face trait task,2021.2.3,Linux x86_64,30.03003003,120472,,,,,,,
,,,,,,1.027394401,3.3966,space,0.1682,0,12,12,16,1,17,image/17.jpg,0,0,,R_6upvmTfOk884ujf,2,2024-05-28_14h03.34.893,face trait task,2021.2.3,Linux x86_64,30.03003003,120472,,,,,,,
,,,,,,6.986552768,4.8564,space,1.1408,0,13,13,43,1,44,image/44.jpg,0,0,,R_6upvmTfOk884ujf,2,2024-05-28_14h03.34.893,face trait task,2021.2.3,Linux x86_64,30.03003003,120472,,,,,,,
,,,,,,1.01923116,2.8046,space,0.3013,0,14,14,40,1,41,image/41.jpg,0,0,,R_6upvmTfOk884ujf,2,2024-05-28_14h03.34.893,face trait task,2021.2.3,Linux x86_64,30.03003003,120472,,,,,,,
,,,,,,2.047332128,2.4102,space,0.2895,0,15,15,30,1,31,image/31.jpg,0,0,,R_6upvmTfOk884ujf,2,2024-05-28_14h03.34.893,face trait task,2021.2.3,Linux x86_64,30.03003003,120472,,,,,,,
,,,,,,3.105431875,3.4536,space,0.3918,0,16,16,37,1,38,image/38.jpg,0,0,,R_6upvmTfOk884ujf,2,2024-05-28_14h03.34.893,face trait task,2021.2.3,Linux x86_64,30.03003003,120472,,,,,,,
,,,,,,3.992324829,2.3486,space,0.2382,0,17,17,39,1,40,image/40.jpg,0,0,,R_6upvmTfOk884ujf,2,2024-05-28_14h03.34.893,face trait task,2021.2.3,Linux x86_64,30.03003003,120472,,,,,,,
,,,,,,4.947309282,4.1904,space,0.137,0,18,18,42,1,43,image/43.jpg,0,0,,R_6upvmTfOk884ujf,2,2024-05-28_14h03.34.893,face trait task,2021.2.3,Linux x86_64,30.03003003,120472,,,,,,,
,,,,,,4.947419061,2.1479,space,0.3754,0,19,19,25,1,26,image/26.jpg,0,0,,R_6upvmTfOk884ujf,2,2024-05-28_14h03.34.893,face trait task,2021.2.3,Linux x86_64,30.03003003,120472,,,,,,,
,,,,,,4.922394647,2.7782,space,0.1716,0,20,20,23,1,24,image/24.jpg,0,0,,R_6upvmTfOk884ujf,2,2024-05-28_14h03.34.893,face trait task,2021.2.3,Linux x86_64,30.03003003,120472,,,,,,,
,,,,,,4.07318751,1.5626,space,0.1279,0,21,21,6,1,7,image/7.jpg,0,0,,R_6upvmTfOk884ujf,2,2024-05-28_14h03.34.893,face trait task,2021.2.3,Linux x86_64,30.03003003,120472,,,,,,,
,,,,,,4.071185642,1.6552,space,0.3388,0,22,22,31,1,32,image/32.jpg,0,0,,R_6upvmTfOk884ujf,2,2024-05-28_14h03.34.893,face trait task,2021.2.3,Linux x86_64,30.03003003,120472,,,,,,,
,,,,,,4.033148872,1.7453,space,0.1911,0,23,23,13,1,14,image/14.jpg,0,0,,R_6upvmTfOk884ujf,2,2024-05-28_14h03.34.893,face trait task,2021.2.3,Linux x86_64,30.03003003,120472,,,,,,,
,,,,,,4.979078081,1.6829,space,0.1125,0,24,24,46,1,47,image/47.jpg,0,0,,R_6upvmTfOk884ujf,2,2024-05-28_14h03.34.893,face trait task,2021.2.3,Linux x86_64,30.03003003,120472,,,,,,,
,,,,,,4.936077118,3.4995,space,1.2335,0,25,25,52,1,56,image/fill_img.png,1,7,Please move the slider all the way to the RIGHT to show that you are paying attention.,R_6upvmTfOk884ujf,2,2024-05-28_14h03.34.893,face trait task,2021.2.3,Linux x86_64,30.03003003,120472,,,,,,,
,,,,,,5.031400045,413.0039,space,5.1111,0,26,26,36,1,37,image/37.jpg,0,0,,R_6upvmTfOk884ujf,2,2024-05-28_14h03.34.893,face trait task,2021.2.3,Linux x86_64,30.03003003,120472,,,,,,,
,,,,,,5.033326467,2.4231,space,0.0078,0,27,27,5,1,6,image/6.jpg,0,0,,R_6upvmTfOk884ujf,2,2024-05-28_14h03.34.893,face trait task,2021.2.3,Linux x86_64,30.03003003,120472,,,,,,,
,,,,,,6.181298998,1.6127,space,0.182,0,28,28,35,1,36,image/36.jpg,0,0,,R_6upvmTfOk884ujf,2,2024-05-28_14h03.34.893,face trait task,2021.2.3,Linux x86_64,30.03003003,120472,,,,,,,
,,,,,,4.038400862,0.9772,space,0.2887,0,29,29,15,1,16,image/16.jpg,0,0,,R_6upvmTfOk884ujf,2,2024-05-28_14h03.34.893,face trait task,2021.2.3,Linux x86_64,30.03003003,120472,,,,,,,
,,,,,,4.210592482,2.6933,space,0.7396,0,30,30,47,1,48,image/48.jpg,0,0,,R_6upvmTfOk884ujf,2,2024-05-28_14h03.34.893,face trait task,2021.2.3,Linux x86_64,30.03003003,120472,,,,,,,
,,,,,,5.980592516,21.5931,space,1.1537,0,31,31,45,1,46,image/46.jpg,0,0,,R_6upvmTfOk884ujf,2,2024-05-28_14h03.34.893,face trait task,2021.2.3,Linux x86_64,30.03003003,120472,,,,,,,
,,,,,,5.967655606,1.4175,space,0.3143,0,32,32,10,1,11,image/11.jpg,0,0,,R_6upvmTfOk884ujf,2,2024-05-28_14h03.34.893,face trait task,2021.2.3,Linux x86_64,30.03003003,120472,,,,,,,
,,,,,,5.098682404,1.9597,space,0.6099,0,33,33,2,1,3,image/3.jpg,0,0,,R_6upvmTfOk884ujf,2,2024-05-28_14h03.34.893,face trait task,2021.2.3,Linux x86_64,30.03003003,120472,,,,,,,
,,,,,,3.840082381,1.0577,space,0.0213,0,34,34,18,1,19,image/19.jpg,0,0,,R_6upvmTfOk884ujf,2,2024-05-28_14h03.34.893,face trait task,2021.2.3,Linux x86_64,30.03003003,120472,,,,,,,
,,,,,,1.561690013,1.7714,space,0.0471,0,35,35,8,1,9,image/9.jpg,0,0,,R_6upvmTfOk884ujf,2,2024-05-28_14h03.34.893,face trait task,2021.2.3,Linux x86_64,30.03003003,120472,,,,,,,
,,,,,,2.408528222,1.7348,space,0.3401,0,36,36,28,1,29,image/29.jpg,0,0,,R_6upvmTfOk884ujf,2,2024-05-28_14h03.34.893,face trait task,2021.2.3,Linux x86_64,30.03003003,120472,,,,,,,
,,,,,,2.84203932,1.2684,space,0.3024,0,37,37,0,1,1,image/1.jpg,0,0,,R_6upvmTfOk884ujf,2,2024-05-28_14h03.34.893,face trait task,2021.2.3,Linux x86_64,30.03003003,120472,,,,,,,
,,,,,,1.975885391,1.0533,space,0.3406,0,38,38,29,1,30,image/30.jpg,0,0,,R_6upvmTfOk884ujf,2,2024-05-28_14h03.34.893,face trait task,2021.2.3,Linux x86_64,30.03003003,120472,,,,,,,
,,,,,,3.007328881,4.9957,space,0.1675,0,39,39,1,1,2,image/2.jpg,0,0,,R_6upvmTfOk884ujf,2,2024-05-28_14h03.34.893,face trait task,2021.2.3,Linux x86_64,30.03003003,120472,,,,,,,
,,,,,,4.956050025,1.5284,space,0.339,0,40,40,4,1,5,image/5.jpg,0,0,,R_6upvmTfOk884ujf,2,2024-05-28_14h03.34.893,face trait task,2021.2.3,Linux x86_64,30.03003003,120472,,,,,,,
,,,,,,3.1293229,1.986,space,0.1554,0,41,41,26,1,27,image/27.jpg,0,0,,R_6upvmTfOk884ujf,2,2024-05-28_14h03.34.893,face trait task,2021.2.3,Linux x86_64,30.03003003,120472,,,,,,,
,,,,,,4.964714474,2.2896,space,0.2208,0,42,42,48,1,49,image/49.jpg,0,0,,R_6upvmTfOk884ujf,2,2024-05-28_14h03.34.893,face trait task,2021.2.3,Linux x86_64,30.03003003,120472,,,,,,,
,,,,,,5.003224691,1.7631,space,0.1895,0,43,43,34,1,35,image/35.jpg,0,0,,R_6upvmTfOk884ujf,2,2024-05-28_14h03.34.893,face trait task,2021.2.3,Linux x86_64,30.03003003,120472,,,,,,,
,,,,,,3.978117625,3.2545,space,0.5752,0,44,44,24,1,25,image/25.jpg,0,0,,R_6upvmTfOk884ujf,2,2024-05-28_14h03.34.893,face trait task,2021.2.3,Linux x86_64,30.03003003,120472,,,,,,,
,,,,,,4.017466651,1.3406,space,0.2149,0,45,45,32,1,33,image/33.jpg,0,0,,R_6upvmTfOk884ujf,2,2024-05-28_14h03.34.893,face trait task,2021.2.3,Linux x86_64,30.03003003,120472,,,,,,,
,,,,,,3.972422706,1.0507,space,0.2248,0,46,46,11,1,12,image/12.jpg,0,0,,R_6upvmTfOk884ujf,2,2024-05-28_14h03.34.893,face trait task,2021.2.3,Linux x86_64,30.03003003,120472,,,,,,,
,,,,,,5.655460782,3.4467,space,0.474,0,47,47,50,1,61,image/fill_img.png,1,7,Please move the slider all the way to the RIGHT to show that you are paying attention.,R_6upvmTfOk884ujf,2,2024-05-28_14h03.34.893,face trait task,2021.2.3,Linux x86_64,30.03003003,120472,,,,,,,
,,,,,,5.938385857,3.3951,space,0.5055,0,48,48,3,1,4,image/4.jpg,0,0,,R_6upvmTfOk884ujf,2,2024-05-28_14h03.34.893,face trait task,2021.2.3,Linux x86_64,30.03003003,120472,,,,,,,
,,,,,,3.925178952,1.1693,space,0.4008,0,49,49,9,1,10,image/10.jpg,0,0,,R_6upvmTfOk884ujf,2,2024-05-28_14h03.34.893,face trait task,2021.2.3,Linux x86_64,30.03003003,120472,,,,,,,
,,,,,,3.614510854,2.2495,space,0.0387,0,50,50,41,1,42,image/42.jpg,0,0,,R_6upvmTfOk884ujf,2,2024-05-28_14h03.34.893,face trait task,2021.2.3,Linux x86_64,30.03003003,120472,,,,,,,
,,,,,,5.286869473,1.7708,space,0.0836,0,51,51,12,1,13,image/13.jpg,0,0,,R_6upvmTfOk884ujf,2,2024-05-28_14h03.34.893,face trait task,2021.2.3,Linux x86_64,30.03003003,120472,,,,,,,
,,,,,,5.793942769,2.382,space,0.0802,0,52,52,27,1,28,image/28.jpg,0,0,,R_6upvmTfOk884ujf,2,2024-05-28_14h03.34.893,face trait task,2021.2.3,Linux x86_64,30.03003003,120472,,,,,,,
,,,,,,,,,,,,,,,,,,,,R_6upvmTfOk884ujf,2,2024-05-28_14h03.34.893,face trait task,2021.2.3,Linux x86_64,30.03003003,120472,0,0,0,1,1,1,competent.png
,,,,,critical,5.12427987,3.6591,space,0.1782,0,0,0,18,1,19,image/19.jpg,0,0,,R_6upvmTfOk884ujf,2,2024-05-28_14h03.34.893,face trait task,2021.2.3,Linux x86_64,30.03003003,120472,,,,,,,
,,,,,,5.033111572,2.1714,space,0.3597,0,1,1,36,1,37,image/37.jpg,0,0,,R_6upvmTfOk884ujf,2,2024-05-28_14h03.34.893,face trait task,2021.2.3,Linux x86_64,30.03003003,120472,,,,,,,
,,,,,,4.900346544,1.1495,space,0.1838,0,2,2,48,1,49,image/49.jpg,0,0,,R_6upvmTfOk884ujf,2,2024-05-28_14h03.34.893,face trait task,2021.2.3,Linux x86_64,30.03003003,120472,,,,,,,
,,,,,,5.010453966,1.0403,space,0.1573,0,3,3,34,1,35,image/35.jpg,0,0,,R_6upvmTfOk884ujf,2,2024-05-28_14h03.34.893,face trait task,2021.2.3,Linux x86_64,30.03003003,120472,,,,,,,
,,,,,,6.637497796,3.8522,space,0.003,0,4,4,21,1,22,image/22.jpg,0,0,,R_6upvmTfOk884ujf,2,2024-05-28_14h03.34.893,face trait task,2021.2.3,Linux x86_64,30.03003003,120472,,,,,,,
,,,,,,6.392259386,0.9455,space,0.3618,0,5,5,22,1,23,image/23.jpg,0,0,,R_6upvmTfOk884ujf,2,2024-05-28_14h03.34.893,face trait task,2021.2.3,Linux x86_64,30.03003003,120472,,,,,,,
,,,,,,6.389256795,0.9717,space,0.4195,0,6,6,29,1,30,image/30.jpg,0,0,,R_6upvmTfOk884ujf,2,2024-05-28_14h03.34.893,face trait task,2021.2.3,Linux x86_64,30.03003003,120472,,,,,,,
,,,,,,6.404271444,1.1552,space,0.5743,0,7,7,26,1,27,image/27.jpg,0,0,,R_6upvmTfOk884ujf,2,2024-05-28_14h03.34.893,face trait task,2021.2.3,Linux x86_64,30.03003003,120472,,,,,,,
,,,,,,6.363231235,0.9543,space,0.1956,0,8,8,3,1,4,image/4.jpg,0,0,,R_6upvmTfOk884ujf,2,2024-05-28_14h03.34.893,face trait task,2021.2.3,Linux x86_64,30.03003003,120472,,,,,,,
,,,,,,6.348216587,1.4592,space,0.7698,0,9,9,9,1,10,image/10.jpg,0,0,,R_6upvmTfOk884ujf,2,2024-05-28_14h03.34.893,face trait task,2021.2.3,Linux x86_64,30.03003003,120472,,,,,,,
,,,,,,6.333201938,1.3433,space,0.3199,0,10,10,4,1,5,image/5.jpg,0,0,,R_6upvmTfOk884ujf,2,2024-05-28_14h03.34.893,face trait task,2021.2.3,Linux x86_64,30.03003003,120472,,,,,,,
,,,,,,6.347215441,1.0376,space,0.0838,0,11,11,12,1,13,image/13.jpg,0,0,,R_6upvmTfOk884ujf,2,2024-05-28_14h03.34.893,face trait task,2021.2.3,Linux x86_64,30.03003003,120472,,,,,,,
,,,,,,6.347215441,1.1906,space,0.1378,0,12,12,44,1,45,image/45.jpg,0,0,,R_6upvmTfOk884ujf,2,2024-05-28_14h03.34.893,face trait task,2021.2.3,Linux x86_64,30.03003003,120472,,,,,,,
,,,,,,6.337205675,1.0282,space,0.1937,0,13,13,32,1,33,image/33.jpg,0,0,,R_6upvmTfOk884ujf,2,2024-05-28_14h03.34.893,face trait task,2021.2.3,Linux x86_64,30.03003003,120472,,,,,,,
,,,,,,6.333201938,1.0361,space,0.1689,0,14,14,35,1,36,image/36.jpg,0,0,,R_6upvmTfOk884ujf,2,2024-05-28_14h03.34.893,face trait task,2021.2.3,Linux x86_64,30.03003003,120472,,,,,,,
,,,,,,6.239110311,1.1584,space,0.1447,0,15,15,40,1,41,image/41.jpg,0,0,,R_6upvmTfOk884ujf,2,2024-05-28_14h03.34.893,face trait task,2021.2.3,Linux x86_64,30.03003003,120472,,,,,,,
,,,,,,6.210933261,1.2744,space,0.1388,0,16,16,10,1,11,image/11.jpg,0,0,,R_6upvmTfOk884ujf,2,2024-05-28_14h03.34.893,face trait task,2021.2.3,Linux x86_64,30.03003003,120472,,,,,,,
,,,,,,6.145869785,1.2051,space,0.1729,0,17,17,33,1,34,image/34.jpg,0,0,,R_6upvmTfOk884ujf,2,2024-05-28_14h03.34.893,face trait task,2021.2.3,Linux x86_64,30.03003003,120472,,,,,,,
,,,,,,6.136861165,0.9979,space,0.5229,0,18,18,42,1,43,image/43.jpg,0,0,,R_6upvmTfOk884ujf,2,2024-05-28_14h03.34.893,face trait task,2021.2.3,Linux x86_64,30.03003003,120472,,,,,,,
,,,,,,6.09181722,1.4303,space,0.3162,0,19,19,13,1,14,image/14.jpg,0,0,,R_6upvmTfOk884ujf,2,2024-05-28_14h03.34.893,face trait task,2021.2.3,Linux x86_64,30.03003003,120472,,,,,,,
,,,,,,6.09181722,1.138,space,0.1186,0,20,20,24,1,25,image/25.jpg,0,0,,R_6upvmTfOk884ujf,2,2024-05-28_14h03.34.893,face trait task,2021.2.3,Linux x86_64,30.03003003,120472,,,,,,,
,,,,,,3.847647349,3.4844,space,0.751,0,21,21,2,1,3,image/3.jpg,0,0,,R_6upvmTfOk884ujf,2,2024-05-28_14h03.34.893,face trait task,2021.2.3,Linux x86_64,30.03003003,120472,,,,,,,
,,,,,,5.912508647,46.3188,space,0.2511,0,22,22,20,1,21,image/21.jpg,0,0,,R_6upvmTfOk884ujf,2,2024-05-28_14h03.34.893,face trait task,2021.2.3,Linux x86_64,30.03003003,120472,,,,,,,
,,,,,,5.912508647,1.095,space,0.2368,0,23,23,46,1,47,image/47.jpg,0,0,,R_6upvmTfOk884ujf,2,2024-05-28_14h03.34.893,face trait task,2021.2.3,Linux x86_64,30.03003003,120472,,,,,,,
,,,,,,5.912508647,0.9918,space,0.2058,0,24,24,31,1,32,image/32.jpg,0,0,,R_6upvmTfOk884ujf,2,2024-05-28_14h03.34.893,face trait task,2021.2.3,Linux x86_64,30.03003003,120472,,,,,,,
,,,,,,5.912508647,1.0067,space,0.1323,0,25,25,19,1,20,image/20.jpg,0,0,,R_6upvmTfOk884ujf,2,2024-05-28_14h03.34.893,face trait task,2021.2.3,Linux x86_64,30.03003003,120472,,,,,,,
,,,,,,6.025620355,1.0364,space,0.2185,0,26,26,5,1,6,image/6.jpg,0,0,,R_6upvmTfOk884ujf,2,2024-05-28_14h03.34.893,face trait task,2021.2.3,Linux x86_64,30.03003003,120472,,,,,,,
,,,,,,5.98658159,0.8949,space,0.2042,0,27,27,45,1,46,image/46.jpg,0,0,,R_6upvmTfOk884ujf,2,2024-05-28_14h03.34.893,face trait task,2021.2.3,Linux x86_64,30.03003003,120472,,,,,,,
,,,,,,5.98658159,0.6133,space,0.18,0,28,28,47,1,48,image/48.jpg,0,0,,R_6upvmTfOk884ujf,2,2024-05-28_14h03.34.893,face trait task,2021.2.3,Linux x86_64,30.03003003,120472,,,,,,,
,,,,,,5.98658159,1.3614,space,0.3508,0,29,29,11,1,12,image/12.jpg,0,0,,R_6upvmTfOk884ujf,2,2024-05-28_14h03.34.893,face trait task,2021.2.3,Linux x86_64,30.03003003,120472,,,,,,,
,,,,,,4.867558373,1.0829,space,0.1196,0,30,30,15,1,16,image/16.jpg,0,0,,R_6upvmTfOk884ujf,2,2024-05-28_14h03.34.893,face trait task,2021.2.3,Linux x86_64,30.03003003,120472,,,,,,,
,,,,,,5.519897461,1.0325,space,0.2525,0,31,31,1,1,2,image/2.jpg,0,0,,R_6upvmTfOk884ujf,2,2024-05-28_14h03.34.893,face trait task,2021.2.3,Linux x86_64,30.03003003,120472,,,,,,,
,,,,,,5.507885827,1.0981,space,0.1162,0,32,32,28,1,29,image/29.jpg,0,0,,R_6upvmTfOk884ujf,2,2024-05-28_14h03.34.893,face trait task,2021.2.3,Linux x86_64,30.03003003,120472,,,,,,,
,,,,,,5.506884681,1.1048,space,0.3838,0,33,33,50,1,61,image/fill_img.png,1,7,Please move the slider all the way to the RIGHT to show that you are paying attention.,R_6upvmTfOk884ujf,2,2024-05-28_14h03.34.893,face trait task,2021.2.3,Linux x86_64,30.03003003,120472,,,,,,,
,,,,,,2.005078846,2.9348,space,0.7388,0,34,34,27,1,28,image/28.jpg,0,0,,R_6upvmTfOk884ujf,2,2024-05-28_14h03.34.893,face trait task,2021.2.3,Linux x86_64,30.03003003,120472,,,,,,,
,,,,,,4.116534763,3.109,space,0.1053,0,35,35,23,1,24,image/24.jpg,0,0,,R_6upvmTfOk884ujf,2,2024-05-28_14h03.34.893,face trait task,2021.2.3,Linux x86_64,30.03003003,120472,,,,,,,
,,,,,,5.572837406,1.242,space,0.8761,0,36,36,8,1,9,image/9.jpg,0,0,,R_6upvmTfOk884ujf,2,2024-05-28_14h03.34.893,face trait task,2021.2.3,Linux x86_64,30.03003003,120472,,,,,,,
,,,,,,6.07980601,3.071,space,0.4699,0,37,37,37,1,38,image/38.jpg,0,0,,R_6upvmTfOk884ujf,2,2024-05-28_14h03.34.893,face trait task,2021.2.3,Linux x86_64,30.03003003,120472,,,,,,,
,,,,,,6.047113207,2.2823,space,1.7821,0,38,38,7,1,8,image/8.jpg,0,0,,R_6upvmTfOk884ujf,2,2024-05-28_14h03.34.893,face trait task,2021.2.3,Linux x86_64,30.03003003,120472,,,,,,,
,,,,,,5.595824771,4.8561,space,0.4236,0,39,39,17,1,18,image/18.jpg,0,0,,R_6upvmTfOk884ujf,2,2024-05-28_14h03.34.893,face trait task,2021.2.3,Linux x86_64,30.03003003,120472,,,,,,,
,,,,,,5.559789446,1.0081,space,0.1127,0,40,40,49,1,50,image/50.jpg,0,0,,R_6upvmTfOk884ujf,2,2024-05-28_14h03.34.893,face trait task,2021.2.3,Linux x86_64,30.03003003,120472,,,,,,,
,,,,,,5.554784563,1.8527,space,0.8419,0,41,41,0,1,1,image/1.jpg,0,0,,R_6upvmTfOk884ujf,2,2024-05-28_14h03.34.893,face trait task,2021.2.3,Linux x86_64,30.03003003,120472,,,,,,,
,,,,,,5.554784563,1.0412,space,0.443,0,42,42,51,1,60,image/fill_img.png,1,7,Please move the slider all the way to the RIGHT to show that you are paying attention.,R_6upvmTfOk884ujf,2,2024-05-28_14h03.34.893,face trait task,2021.2.3,Linux x86_64,30.03003003,120472,,,,,,,
,,,,,,5.554784563,0.9569,space,0.9052,0,43,43,38,1,39,image/39.jpg,0,0,,R_6upvmTfOk884ujf,2,2024-05-28_14h03.34.893,face trait task,2021.2.3,Linux x86_64,30.03003003,120472,,,,,,,
,,,,,,5.569799211,2.5056,space,1.4683,0,44,44,43,1,44,image/44.jpg,0,0,,R_6upvmTfOk884ujf,2,2024-05-28_14h03.34.893,face trait task,2021.2.3,Linux x86_64,30.03003003,120472,,,,,,,
,,,,,,5.56572681,1.1371,space,0.3209,0,45,45,30,1,31,image/31.jpg,0,0,,R_6upvmTfOk884ujf,2,2024-05-28_14h03.34.893,face trait task,2021.2.3,Linux x86_64,30.03003003,120472,,,,,,,
,,,,,,5.571732839,0.8546,space,0.1553,0,46,46,39,1,40,image/40.jpg,0,0,,R_6upvmTfOk884ujf,2,2024-05-28_14h03.34.893,face trait task,2021.2.3,Linux x86_64,30.03003003,120472,,,,,,,
,,,,,,6.003447639,2.5784,space,0.1496,0,47,47,52,1,56,image/fill_img.png,1,7,Please move the slider all the way to the RIGHT to show that you are paying attention.,R_6upvmTfOk884ujf,2,2024-05-28_14h03.34.893,face trait task,2021.2.3,Linux x86_64,30.03003003,120472,,,,,,,
,,,,,,5.971416897,1.189,space,0.3301,0,48,48,25,1,26,image/26.jpg,0,0,,R_6upvmTfOk884ujf,2,2024-05-28_14h03.34.893,face trait task,2021.2.3,Linux x86_64,30.03003003,120472,,,,,,,
,,,,,,5.973418342,1.1864,space,0.2431,0,49,49,14,1,15,image/15.jpg,0,0,,R_6upvmTfOk884ujf,2,2024-05-28_14h03.34.893,face trait task,2021.2.3,Linux x86_64,30.03003003,120472,,,,,,,
,,,,,,5.967413161,1.1133,space,0.1793,0,50,50,41,1,42,image/42.jpg,0,0,,R_6upvmTfOk884ujf,2,2024-05-28_14h03.34.893,face trait task,2021.2.3,Linux x86_64,30.03003003,120472,,,,,,,
,,,,,,5.967413161,1.1942,space,1.9135,0,51,51,16,1,17,image/17.jpg,0,0,,R_6upvmTfOk884ujf,2,2024-05-28_14h03.34.893,face trait task,2021.2.3,Linux x86_64,30.03003003,120472,,,,,,,
,,,,,,5.967413161,1.2148,space,0.3603,0,52,52,6,1,7,image/7.jpg,0,0,,R_6upvmTfOk884ujf,2,2024-05-28_14h03.34.893,face trait task,2021.2.3,Linux x86_64,30.03003003,120472,,,,,,,
,,,,,,,,,,,,,,,,,,,,R_6upvmTfOk884ujf,2,2024-05-28_14h03.34.893,face trait task,2021.2.3,Linux x86_64,30.03003003,120472,0,1,1,0,1,0,critical.png
,,,,,friendly,5.979909261,2.0693,space,0.3031,0,0,0,21,1,22,image/22.jpg,0,0,,R_6upvmTfOk884ujf,2,2024-05-28_14h03.34.893,face trait task,2021.2.3,Linux x86_64,30.03003003,120472,,,,,,,
,,,,,,6.031741672,1.9069,space,0.5011,0,1,1,22,1,23,image/23.jpg,0,0,,R_6upvmTfOk884ujf,2,2024-05-28_14h03.34.893,face trait task,2021.2.3,Linux x86_64,30.03003003,120472,,,,,,,
,,,,,,6.019730462,1.0021,space,0.0384,0,2,2,17,1,18,image/18.jpg,0,0,,R_6upvmTfOk884ujf,2,2024-05-28_14h03.34.893,face trait task,2021.2.3,Linux x86_64,30.03003003,120472,,,,,,,
,,,,,,5.467264387,1.1741,space,0.31,0,3,3,23,1,24,image/24.jpg,0,0,,R_6upvmTfOk884ujf,2,2024-05-28_14h03.34.893,face trait task,2021.2.3,Linux x86_64,30.03003003,120472,,,,,,,
,,,,,,5.329556783,1.6744,space,0.3226,0,4,4,9,1,10,image/10.jpg,0,0,,R_6upvmTfOk884ujf,2,2024-05-28_14h03.34.893,face trait task,2021.2.3,Linux x86_64,30.03003003,120472,,,,,,,
,,,,,,5.537776947,0.5562,space,0.2337,0,5,5,6,1,7,image/7.jpg,0,0,,R_6upvmTfOk884ujf,2,2024-05-28_14h03.34.893,face trait task,2021.2.3,Linux x86_64,30.03003003,120472,,,,,,,
,,,,,,3.032307519,1.5601,space,0.7162,0,6,6,16,1,17,image/17.jpg,0,0,,R_6upvmTfOk884ujf,2,2024-05-28_14h03.34.893,face trait task,2021.2.3,Linux x86_64,30.03003003,120472,,,,,,,
,,,,,,4.112479316,1.2447,space,0.046,0,7,7,46,1,47,image/47.jpg,0,0,,R_6upvmTfOk884ujf,2,2024-05-28_14h03.34.893,face trait task,2021.2.3,Linux x86_64,30.03003003,120472,,,,,,,
,,,,,,5.71864446,2.1771,space,0.3673,0,8,8,36,1,37,image/37.jpg,0,0,,R_6upvmTfOk884ujf,2,2024-05-28_14h03.34.893,face trait task,2021.2.3,Linux x86_64,30.03003003,120472,,,,,,,
,,,,,,2.411427392,1.2358,space,0.0078,0,9,9,37,1,38,image/38.jpg,0,0,,R_6upvmTfOk884ujf,2,2024-05-28_14h03.34.893,face trait task,2021.2.3,Linux x86_64,30.03003003,120472,,,,,,,
,,,,,,4.931034936,1.6742,space,0.013,0,10,10,7,1,8,image/8.jpg,0,0,,R_6upvmTfOk884ujf,2,2024-05-28_14h03.34.893,face trait task,2021.2.3,Linux x86_64,30.03003003,120472,,,,,,,
,,,,,,3.964127858,3.119,space,0.249,0,11,11,20,1,21,image/21.jpg,0,0,,R_6upvmTfOk884ujf,2,2024-05-28_14h03.34.893,face trait task,2021.2.3,Linux x86_64,30.03003003,120472,,,,,,,
,,,,,,4.347851647,1.2704,space,0.5014,0,12,12,41,1,42,image/42.jpg,0,0,,R_6upvmTfOk884ujf,2,2024-05-28_14h03.34.893,face trait task,2021.2.3,Linux x86_64,30.03003003,120472,,,,,,,
,,,,,,4.474350399,2.0789,space,0.7664,0,13,13,44,1,45,image/45.jpg,0,0,,R_6upvmTfOk884ujf,2,2024-05-28_14h03.34.893,face trait task,2021.2.3,Linux x86_64,30.03003003,120472,,,,,,,
,,,,,,5.256893582,1.1247,space,0.2871,0,14,14,5,1,6,image/6.jpg,0,0,,R_6upvmTfOk884ujf,2,2024-05-28_14h03.34.893,face trait task,2021.2.3,Linux x86_64,30.03003003,120472,,,,,,,
,,,,,,5.261898465,1.4438,space,0.4192,0,15,15,34,1,35,image/35.jpg,0,0,,R_6upvmTfOk884ujf,2,2024-05-28_14h03.34.893,face trait task,2021.2.3,Linux x86_64,30.03003003,120472,,,,,,,
,,,,,,6.037101746,2.7602,space,0.1002,0,16,16,26,1,27,image/27.jpg,0,0,,R_6upvmTfOk884ujf,2,2024-05-28_14h03.34.893,face trait task,2021.2.3,Linux x86_64,30.03003003,120472,,,,,,,
,,,,,,6.434025235,2.1622,space,0.1077,0,17,17,8,1,9,image/9.jpg,0,0,,R_6upvmTfOk884ujf,2,2024-05-28_14h03.34.893,face trait task,2021.2.3,Linux x86_64,30.03003003,120472,,,,,,,
,,,,,,6.476043701,3.0763,space,0.1033,0,18,18,27,1,28,image/28.jpg,0,0,,R_6upvmTfOk884ujf,2,2024-05-28_14h03.34.893,face trait task,2021.2.3,Linux x86_64,30.03003003,120472,,,,,,,
,,,,,,6.459322611,1.403,space,0.0836,0,19,19,24,1,25,image/25.jpg,0,0,,R_6upvmTfOk884ujf,2,2024-05-28_14h03.34.893,face trait task,2021.2.3,Linux x86_64,30.03003003,120472,,,,,,,
,,,,,,5.216369205,1.2062,space,0.8422,0,20,20,18,1,19,image/19.jpg,0,0,,R_6upvmTfOk884ujf,2,2024-05-28_14h03.34.893,face trait task,2021.2.3,Linux x86_64,30.03003003,120472,,,,,,,
,,,,,,6.295195685,3.5373,space,2.6761,0,21,21,52,1,56,image/fill_img.png,1,7,Please move the slider all the way to the RIGHT to show that you are paying attention.,R_6upvmTfOk884ujf,2,2024-05-28_14h03.34.893,face trait task,2021.2.3,Linux x86_64,30.03003003,120472,,,,,,,
,,,,,,3.680790795,0.9142,space,0.4744,0,22,22,40,1,41,image/41.jpg,0,0,,R_6upvmTfOk884ujf,2,2024-05-28_14h03.34.893,face trait task,2021.2.3,Linux x86_64,30.03003003,120472,,,,,,,
,,,,,,4.306461334,0.9035,space,0.1996,0,23,23,42,1,43,image/43.jpg,0,0,,R_6upvmTfOk884ujf,2,2024-05-28_14h03.34.893,face trait task,2021.2.3,Linux x86_64,30.03003003,120472,,,,,,,
,,,,,,1.034189224,3.0163,space,0.0954,0,24,24,39,1,40,image/40.jpg,0,0,,R_6upvmTfOk884ujf,2,2024-05-28_14h03.34.893,face trait task,2021.2.3,Linux x86_64,30.03003003,120472,,,,,,,
,,,,,,2.983691321,2.247,space,0.4442,0,25,25,49,1,50,image/50.jpg,0,0,,R_6upvmTfOk884ujf,2,2024-05-28_14h03.34.893,face trait task,2021.2.3,Linux x86_64,30.03003003,120472,,,,,,,
,,,,,,3.947848426,5.1689,space,0.0049,0,26,26,47,1,48,image/48.jpg,0,0,,R_6upvmTfOk884ujf,2,2024-05-28_14h03.34.893,face trait task,2021.2.3,Linux x86_64,30.03003003,120472,,,,,,,
,,,,,,3.9973988,1.1343,space,0.3678,0,27,27,4,1,5,image/5.jpg,0,0,,R_6upvmTfOk884ujf,2,2024-05-28_14h03.34.893,face trait task,2021.2.3,Linux x86_64,30.03003003,120472,,,,,,,
,,,,,,5.021641201,1.7975,space,0.3172,0,28,28,10,1,11,image/11.jpg,0,0,,R_6upvmTfOk884ujf,2,2024-05-28_14h03.34.893,face trait task,2021.2.3,Linux x86_64,30.03003003,120472,,,,,,,
,,,,,,5.000004662,2.5581,space,0.4579,0,29,29,11,1,12,image/12.jpg,0,0,,R_6upvmTfOk884ujf,2,2024-05-28_14h03.34.893,face trait task,2021.2.3,Linux x86_64,30.03003003,120472,,,,,,,
,,,,,,4.048056285,1.5961,space,0.2497,0,30,30,12,1,13,image/13.jpg,0,0,,R_6upvmTfOk884ujf,2,2024-05-28_14h03.34.893,face trait task,2021.2.3,Linux x86_64,30.03003003,120472,,,,,,,
,,,,,,3.996005588,1.4589,space,0.1745,0,31,31,2,1,3,image/3.jpg,0,0,,R_6upvmTfOk884ujf,2,2024-05-28_14h03.34.893,face trait task,2021.2.3,Linux x86_64,30.03003003,120472,,,,,,,
,,,,,,4.012021383,1.0707,space,0.1408,0,32,32,38,1,39,image/39.jpg,0,0,,R_6upvmTfOk884ujf,2,2024-05-28_14h03.34.893,face trait task,2021.2.3,Linux x86_64,30.03003003,120472,,,,,,,
,,,,,,4.050058577,2.2342,space,0.0213,0,33,33,43,1,44,image/44.jpg,0,0,,R_6upvmTfOk884ujf,2,2024-05-28_14h03.34.893,face trait task,2021.2.3,Linux x86_64,30.03003003,120472,,,,,,,
,,,,,,3.979209476,1.1034,space,0.1022,0,34,34,28,1,29,image/29.jpg,0,0,,R_6upvmTfOk884ujf,2,2024-05-28_14h03.34.893,face trait task,2021.2.3,Linux x86_64,30.03003003,120472,,,,,,,
,,,,,,3.970200857,0.9481,space,0.212,0,35,35,33,1,34,image/34.jpg,0,0,,R_6upvmTfOk884ujf,2,2024-05-28_14h03.34.893,face trait task,2021.2.3,Linux x86_64,30.03003003,120472,,,,,,,
,,,,,,3.986216227,1.315,space,0.2425,0,36,36,31,1,32,image/32.jpg,0,0,,R_6upvmTfOk884ujf,2,2024-05-28_14h03.34.893,face trait task,2021.2.3,Linux x86_64,30.03003003,120472,,,,,,,
,,,,,,3.990220388,1.2419,space,0.3387,0,37,37,1,1,2,image/2.jpg,0,0,,R_6upvmTfOk884ujf,2,2024-05-28_14h03.34.893,face trait task,2021.2.3,Linux x86_64,30.03003003,120472,,,,,,,
,,,,,,3.977207184,1.0536,space,0.1921,0,38,38,30,1,31,image/31.jpg,0,0,,R_6upvmTfOk884ujf,2,2024-05-28_14h03.34.893,face trait task,2021.2.3,Linux x86_64,30.03003003,120472,,,,,,,
,,,,,,3.977708181,1.0182,space,0.1491,0,39,39,0,1,1,image/1.jpg,0,0,,R_6upvmTfOk884ujf,2,2024-05-28_14h03.34.893,face trait task,2021.2.3,Linux x86_64,30.03003003,120472,,,,,,,
,,,,,,4.529770321,1.5634,space,0.2846,0,40,40,14,1,15,image/15.jpg,0,0,,R_6upvmTfOk884ujf,2,2024-05-28_14h03.34.893,face trait task,2021.2.3,Linux x86_64,30.03003003,120472,,,,,,,
,,,,,,6.009385003,1.317,space,0.1696,0,41,41,19,1,20,image/20.jpg,0,0,,R_6upvmTfOk884ujf,2,2024-05-28_14h03.34.893,face trait task,2021.2.3,Linux x86_64,30.03003003,120472,,,,,,,
,,,,,,5.975351122,1.11,space,0.2275,0,42,42,50,1,61,image/fill_img.png,1,7,Please move the slider all the way to the RIGHT to show that you are paying attention.,R_6upvmTfOk884ujf,2,2024-05-28_14h03.34.893,face trait task,2021.2.3,Linux x86_64,30.03003003,120472,,,,,,,
,,,,,,3.000514984,5.5225,space,0.3202,0,43,43,45,1,46,image/46.jpg,0,0,,R_6upvmTfOk884ujf,2,2024-05-28_14h03.34.893,face trait task,2021.2.3,Linux x86_64,30.03003003,120472,,,,,,,
,,,,,,2.006795671,3.2074,space,0.0277,0,44,44,29,1,30,image/30.jpg,0,0,,R_6upvmTfOk884ujf,2,2024-05-28_14h03.34.893,face trait task,2021.2.3,Linux x86_64,30.03003003,120472,,,,,,,
,,,,,,4.09042316,6.2397,space,0.165,0,45,45,32,1,33,image/33.jpg,0,0,,R_6upvmTfOk884ujf,2,2024-05-28_14h03.34.893,face trait task,2021.2.3,Linux x86_64,30.03003003,120472,,,,,,,
,,,,,,6.988382128,2.5111,space,0.9492,0,46,46,3,1,4,image/4.jpg,0,0,,R_6upvmTfOk884ujf,2,2024-05-28_14h03.34.893,face trait task,2021.2.3,Linux x86_64,30.03003003,120472,,,,,,,
,,,,,,3.043210347,2.2048,space,0.1079,0,47,47,13,1,14,image/14.jpg,0,0,,R_6upvmTfOk884ujf,2,2024-05-28_14h03.34.893,face trait task,2021.2.3,Linux x86_64,30.03003003,120472,,,,,,,
,,,,,,6.036663479,2.8915,space,0.5242,0,48,48,15,1,16,image/16.jpg,0,0,,R_6upvmTfOk884ujf,2,2024-05-28_14h03.34.893,face trait task,2021.2.3,Linux x86_64,30.03003003,120472,,,,,,,
,,,,,,5.967565748,1.6632,space,0.1803,0,49,49,48,1,49,image/49.jpg,0,0,,R_6upvmTfOk884ujf,2,2024-05-28_14h03.34.893,face trait task,2021.2.3,Linux x86_64,30.03003003,120472,,,,,,,
,,,,,,5.980578952,1.1671,space,0.2287,0,50,50,51,1,60,image/fill_img.png,1,7,Please move the slider all the way to the RIGHT to show that you are paying attention.,R_6upvmTfOk884ujf,2,2024-05-28_14h03.34.893,face trait task,2021.2.3,Linux x86_64,30.03003003,120472,,,,,,,
,,,,,,6.880187141,2.359,space,0.315,0,51,51,35,1,36,image/36.jpg,0,0,,R_6upvmTfOk884ujf,2,2024-05-28_14h03.34.893,face trait task,2021.2.3,Linux x86_64,30.03003003,120472,,,,,,,
,,,,,,6.895524767,3.8237,space,0.6401,0,52,52,25,1,26,image/26.jpg,0,0,,R_6upvmTfOk884ujf,2,2024-05-28_14h03.34.893,face trait task,2021.2.3,Linux x86_64,30.03003003,120472,,,,,,,
,,,,,,,,,,,,,,,,,,,,R_6upvmTfOk884ujf,2,2024-05-28_14h03.34.893,face trait task,2021.2.3,Linux x86_64,30.03003003,120472,0,2,2,3,1,3,friendly.png
,,,,,trustworthy,5.96137068,3.7331,space,0.2053,0,0,0,41,1,42,image/42.jpg,0,0,,R_6upvmTfOk884ujf,2,2024-05-28_14h03.34.893,face trait task,2021.2.3,Linux x86_64,30.03003003,120472,,,,,,,
,,,,,,1.006880866,2.9237,space,0.1391,0,1,1,40,1,41,image/41.jpg,0,0,,R_6upvmTfOk884ujf,2,2024-05-28_14h03.34.893,face trait task,2021.2.3,Linux x86_64,30.03003003,120472,,,,,,,
,,,,,,4.017105526,2.5022,space,0.3265,0,2,2,3,1,4,image/4.jpg,0,0,,R_6upvmTfOk884ujf,2,2024-05-28_14h03.34.893,face trait task,2021.2.3,Linux x86_64,30.03003003,120472,,,,,,,
,,,,,,5.982748244,2.3699,space,1.0445,0,3,3,32,1,33,image/33.jpg,0,0,,R_6upvmTfOk884ujf,2,2024-05-28_14h03.34.893,face trait task,2021.2.3,Linux x86_64,30.03003003,120472,,,,,,,
,,,,,,3.992493947,2.4965,space,0.0919,0,4,4,36,1,37,image/37.jpg,0,0,,R_6upvmTfOk884ujf,2,2024-05-28_14h03.34.893,face trait task,2021.2.3,Linux x86_64,30.03003003,120472,,,,,,,
,,,,,,5.962351481,9.8503,space,0.5196,0,5,5,39,1,40,image/40.jpg,0,0,,R_6upvmTfOk884ujf,2,2024-05-28_14h03.34.893,face trait task,2021.2.3,Linux x86_64,30.03003003,120472,,,,,,,
,,,,,,6.10505422,1.6184,space,0.333,0,6,6,19,1,20,image/20.jpg,0,0,,R_6upvmTfOk884ujf,2,2024-05-28_14h03.34.893,face trait task,2021.2.3,Linux x86_64,30.03003003,120472,,,,,,,
,,,,,,5.728477902,1.0763,space,0.4557,0,7,7,31,1,32,image/32.jpg,0,0,,R_6upvmTfOk884ujf,2,2024-05-28_14h03.34.893,face trait task,2021.2.3,Linux x86_64,30.03003003,120472,,,,,,,
,,,,,,5.589102003,1.2402,space,0.3242,0,8,8,23,1,24,image/24.jpg,0,0,,R_6upvmTfOk884ujf,2,2024-05-28_14h03.34.893,face trait task,2021.2.3,Linux x86_64,30.03003003,120472,,,,,,,
,,,,,,3.925514645,1.3543,space,0.0132,0,9,9,35,1,36,image/36.jpg,0,0,,R_6upvmTfOk884ujf,2,2024-05-28_14h03.34.893,face trait task,2021.2.3,Linux x86_64,30.03003003,120472,,,,,,,
,,,,,,5.696185218,1.1913,space,0.2927,0,10,10,16,1,17,image/17.jpg,0,0,,R_6upvmTfOk884ujf,2,2024-05-28_14h03.34.893,face trait task,2021.2.3,Linux x86_64,30.03003003,120472,,,,,,,
,,,,,,5.745233324,0.9642,space,0.3237,0,11,11,42,1,43,image/43.jpg,0,0,,R_6upvmTfOk884ujf,2,2024-05-28_14h03.34.893,face trait task,2021.2.3,Linux x86_64,30.03003003,120472,,,,,,,
,,,,,,5.644134521,1.2841,space,0.3803,0,12,12,25,1,26,image/26.jpg,0,0,,R_6upvmTfOk884ujf,2,2024-05-28_14h03.34.893,face trait task,2021.2.3,Linux x86_64,30.03003003,120472,,,,,,,
,,,,,,3.222236209,1.0739,space,0.2913,0,13,13,34,1,35,image/35.jpg,0,0,,R_6upvmTfOk884ujf,2,2024-05-28_14h03.34.893,face trait task,2021.2.3,Linux x86_64,30.03003003,120472,,,,,,,
,,,,,,5.085984548,1.8082,space,0.4575,0,14,14,1,1,2,image/2.jpg,0,0,,R_6upvmTfOk884ujf,2,2024-05-28_14h03.34.893,face trait task,2021.2.3,Linux x86_64,30.03003003,120472,,,,,,,
,,,,,,4.028137631,2.1347,space,0.0791,0,15,15,8,1,9,image/9.jpg,0,0,,R_6upvmTfOk884ujf,2,2024-05-28_14h03.34.893,face trait task,2021.2.3,Linux x86_64,30.03003003,120472,,,,,,,
,,,,,,5.602307214,1.1718,space,0.3431,0,16,16,22,1,23,image/23.jpg,0,0,,R_6upvmTfOk884ujf,2,2024-05-28_14h03.34.893,face trait task,2021.2.3,Linux x86_64,30.03003003,120472,,,,,,,
,,,,,,5.988185459,1.2816,space,0.1136,0,17,17,27,1,28,image/28.jpg,0,0,,R_6upvmTfOk884ujf,2,2024-05-28_14h03.34.893,face trait task,2021.2.3,Linux x86_64,30.03003003,120472,,,,,,,
,,,,,,5.026014116,1.916,space,0.1539,0,18,18,52,1,56,image/fill_img.png,1,7,Please move the slider all the way to the RIGHT to show that you are paying attention.,R_6upvmTfOk884ujf,2,2024-05-28_14h03.34.893,face trait task,2021.2.3,Linux x86_64,30.03003003,120472,,,,,,,
,,,,,,6.508601718,2.0344,space,0.1352,0,19,19,2,1,3,image/3.jpg,0,0,,R_6upvmTfOk884ujf,2,2024-05-28_14h03.34.893,face trait task,2021.2.3,Linux x86_64,30.03003003,120472,,,,,,,
,,,,,,6.950694614,4.3357,space,0.3476,0,20,20,14,1,15,image/15.jpg,0,0,,R_6upvmTfOk884ujf,2,2024-05-28_14h03.34.893,face trait task,2021.2.3,Linux x86_64,30.03003003,120472,,,,,,,
,,,,,,3.023052216,2.3405,space,0.1614,0,21,21,30,1,31,image/31.jpg,0,0,,R_6upvmTfOk884ujf,2,2024-05-28_14h03.34.893,face trait task,2021.2.3,Linux x86_64,30.03003003,120472,,,,,,,
,,,,,,4.609757741,2.0947,space,0.4116,0,22,22,6,1,7,image/7.jpg,0,0,,R_6upvmTfOk884ujf,2,2024-05-28_14h03.34.893,face trait task,2021.2.3,Linux x86_64,30.03003003,120472,,,,,,,
,,,,,,7,4.9564,space,3.4389,0,23,23,50,1,61,image/fill_img.png,1,7,Please move the slider all the way to the RIGHT to show that you are paying attention.,R_6upvmTfOk884ujf,2,2024-05-28_14h03.34.893,face trait task,2021.2.3,Linux x86_64,30.03003003,120472,,,,,,,
,,,,,,4.090586768,1.5737,space,0.3348,0,24,24,37,1,38,image/38.jpg,0,0,,R_6upvmTfOk884ujf,2,2024-05-28_14h03.34.893,face trait task,2021.2.3,Linux x86_64,30.03003003,120472,,,,,,,
,,,,,,3.265598721,0.9252,space,0.3098,0,25,25,12,1,13,image/13.jpg,0,0,,R_6upvmTfOk884ujf,2,2024-05-28_14h03.34.893,face trait task,2021.2.3,Linux x86_64,30.03003003,120472,,,,,,,
,,,,,,5.341203478,1.4918,space,0.2522,0,26,26,10,1,11,image/11.jpg,0,0,,R_6upvmTfOk884ujf,2,2024-05-28_14h03.34.893,face trait task,2021.2.3,Linux x86_64,30.03003003,120472,,,,,,,
,,,,,,2.449747297,0.998,space,0.5034,0,27,27,29,1,30,image/30.jpg,0,0,,R_6upvmTfOk884ujf,2,2024-05-28_14h03.34.893,face trait task,2021.2.3,Linux x86_64,30.03003003,120472,,,,,,,
,,,,,,2.071351581,1.4405,space,0.1287,0,28,28,17,1,18,image/18.jpg,0,0,,R_6upvmTfOk884ujf,2,2024-05-28_14h03.34.893,face trait task,2021.2.3,Linux x86_64,30.03003003,120472,,,,,,,
,,,,,,3.087130653,1.9458,space,0.0779,0,29,29,5,1,6,image/6.jpg,0,0,,R_6upvmTfOk884ujf,2,2024-05-28_14h03.34.893,face trait task,2021.2.3,Linux x86_64,30.03003003,120472,,,,,,,
,,,,,,6.989209493,5.2792,space,0.3704,0,30,30,51,1,60,image/fill_img.png,1,7,Please move the slider all the way to the RIGHT to show that you are paying attention.,R_6upvmTfOk884ujf,2,2024-05-28_14h03.34.893,face trait task,2021.2.3,Linux x86_64,30.03003003,120472,,,,,,,
,,,,,,1.378502952,1.5727,space,0.3359,0,31,31,45,1,46,image/46.jpg,0,0,,R_6upvmTfOk884ujf,2,2024-05-28_14h03.34.893,face trait task,2021.2.3,Linux x86_64,30.03003003,120472,,,,,,,
,,,,,,5.65098487,1.8754,space,0.3024,0,32,32,43,1,44,image/44.jpg,0,0,,R_6upvmTfOk884ujf,2,2024-05-28_14h03.34.893,face trait task,2021.2.3,Linux x86_64,30.03003003,120472,,,,,,,
,,,,,,3.348749797,1.3418,space,0.477,0,33,33,24,1,25,image/25.jpg,0,0,,R_6upvmTfOk884ujf,2,2024-05-28_14h03.34.893,face trait task,2021.2.3,Linux x86_64,30.03003003,120472,,,,,,,
,,,,,,4.015894996,2.8736,space,0.241,0,34,34,26,1,27,image/27.jpg,0,0,,R_6upvmTfOk884ujf,2,2024-05-28_14h03.34.893,face trait task,2021.2.3,Linux x86_64,30.03003003,120472,,,,,,,
,,,,,,2.548581865,2.1062,space,0.1115,0,35,35,0,1,1,image/1.jpg,0,0,,R_6upvmTfOk884ujf,2,2024-05-28_14h03.34.893,face trait task,2021.2.3,Linux x86_64,30.03003003,120472,,,,,,,
,,,,,,5.06459554,1.3607,space,0.2733,0,36,36,48,1,49,image/49.jpg,0,0,,R_6upvmTfOk884ujf,2,2024-05-28_14h03.34.893,face trait task,2021.2.3,Linux x86_64,30.03003003,120472,,,,,,,
,,,,,,5.056587643,1.3035,space,0.1821,0,37,37,18,1,19,image/19.jpg,0,0,,R_6upvmTfOk884ujf,2,2024-05-28_14h03.34.893,face trait task,2021.2.3,Linux x86_64,30.03003003,120472,,,,,,,
,,,,,,4.957255893,1.1851,space,0.841,0,38,38,4,1,5,image/5.jpg,0,0,,R_6upvmTfOk884ujf,2,2024-05-28_14h03.34.893,face trait task,2021.2.3,Linux x86_64,30.03003003,120472,,,,,,,
,,,,,,5.098044078,1.0781,space,0.2193,0,39,39,20,1,21,image/21.jpg,0,0,,R_6upvmTfOk884ujf,2,2024-05-28_14h03.34.893,face trait task,2021.2.3,Linux x86_64,30.03003003,120472,,,,,,,
,,,,,,5.085031721,0.9545,space,0.3168,0,40,40,13,1,14,image/14.jpg,0,0,,R_6upvmTfOk884ujf,2,2024-05-28_14h03.34.893,face trait task,2021.2.3,Linux x86_64,30.03003003,120472,,,,,,,
,,,,,,5.081027561,0.8749,space,0.2539,0,41,41,46,1,47,image/47.jpg,0,0,,R_6upvmTfOk884ujf,2,2024-05-28_14h03.34.893,face trait task,2021.2.3,Linux x86_64,30.03003003,120472,,,,,,,
,,,,,,5.081027561,1.0132,space,0.655,0,42,42,47,1,48,image/48.jpg,0,0,,R_6upvmTfOk884ujf,2,2024-05-28_14h03.34.893,face trait task,2021.2.3,Linux x86_64,30.03003003,120472,,,,,,,
,,,,,,5.529963599,3.0395,space,0.0609,0,43,43,9,1,10,image/10.jpg,0,0,,R_6upvmTfOk884ujf,2,2024-05-28_14h03.34.893,face trait task,2021.2.3,Linux x86_64,30.03003003,120472,,,,,,,
,,,,,,4.106900957,1.3629,space,0.1436,0,44,44,28,1,29,image/29.jpg,0,0,,R_6upvmTfOk884ujf,2,2024-05-28_14h03.34.893,face trait task,2021.2.3,Linux x86_64,30.03003003,120472,,,,,,,
,,,,,,5.112673018,1.4567,space,0.3413,0,45,45,21,1,22,image/22.jpg,0,0,,R_6upvmTfOk884ujf,2,2024-05-28_14h03.34.893,face trait task,2021.2.3,Linux x86_64,30.03003003,120472,,,,,,,
,,,,,,5.158718109,1.7064,space,0.9473,0,46,46,7,1,8,image/8.jpg,0,0,,R_6upvmTfOk884ujf,2,2024-05-28_14h03.34.893,face trait task,2021.2.3,Linux x86_64,30.03003003,120472,,,,,,,
,,,,,,5.116676754,1.2737,space,0.3344,0,47,47,44,1,45,image/45.jpg,0,0,,R_6upvmTfOk884ujf,2,2024-05-28_14h03.34.893,face trait task,2021.2.3,Linux x86_64,30.03003003,120472,,,,,,,
,,,,,,5.114674886,1.0166,space,0.2143,0,48,48,33,1,34,image/34.jpg,0,0,,R_6upvmTfOk884ujf,2,2024-05-28_14h03.34.893,face trait task,2021.2.3,Linux x86_64,30.03003003,120472,,,,,,,
,,,,,,5.160719977,1.6124,space,0.2416,0,49,49,49,1,50,image/50.jpg,0,0,,R_6upvmTfOk884ujf,2,2024-05-28_14h03.34.893,face trait task,2021.2.3,Linux x86_64,30.03003003,120472,,,,,,,
,,,,,,5.082136366,1.0411,space,0.2936,0,50,50,15,1,16,image/16.jpg,0,0,,R_6upvmTfOk884ujf,2,2024-05-28_14h03.34.893,face trait task,2021.2.3,Linux x86_64,30.03003003,120472,,,,,,,
,,,,,,4.918451097,2.4149,space,0.4976,0,51,51,11,1,12,image/12.jpg,0,0,,R_6upvmTfOk884ujf,2,2024-05-28_14h03.34.893,face trait task,2021.2.3,Linux x86_64,30.03003003,120472,,,,,,,
,,,,,,4.745196448,1.7196,space,0.139,0,52,52,38,1,39,image/39.jpg,0,0,,R_6upvmTfOk884ujf,2,2024-05-28_14h03.34.893,face trait task,2021.2.3,Linux x86_64,30.03003003,120472,,,,,,,
,,,,,,,,,,,,,,,,,,,,R_6upvmTfOk884ujf,2,2024-05-28_14h03.34.893,face trait task,2021.2.3,Linux x86_64,30.03003003,120472,0,3,3,2,1,2,trustworthy.png
