chooserow,ParID,pre_instru_resp_2.keys,pre_instru_resp_2.rt,pre_instru_resp_3.keys,pre_instru_resp_3.rt,pre_instru_resp_9.keys,pre_instru_resp_9.rt,pre_instru_resp_8.keys,pre_instru_resp_8.rt,pre_instru_resp_4.keys,pre_instru_resp_4.rt,pre_instru_resp_5.keys,pre_instru_resp_5.rt,pre_instru_resp_6.keys,pre_instru_resp_6.rt,key_resp_3.keys,key_resp_3.rt,key_resp_4.keys,key_resp_4.rt,key_resp_5.keys,key_resp_5.rt,key_resp_6.keys,key_resp_6.rt,key_resp_7.keys,key_resp_7.rt,trials_2.thisRepN,trials_2.thisTrialN,trials_2.thisN,trials_2.thisIndex,trials_2.ran,participant,session,date,expName,psychopyVersion,OS,frameRate,SONAid,pre_instru_resp.keys,pre_instru_resp.rt,clicked,judge_2.x,judge_2.y,judge_2.leftButton,judge_2.midButton,judge_2.rightButton,trials.thisRepN,trials.thisTrialN,trials.thisN,trials.thisIndex,trials.ran,prac_answer,prac_dot_sti,dotlefttext,dotrighttext,judge_2.clicked_name,prac_acc,judge.x,judge.y,judge.leftButton,judge.midButton,judge.rightButton,judge.clicked_name,clicked_guilt,slider_guilt.response,slider_guilt.rt,key_guilt.keys,share_slider.response,share_slider.rt,key_share.keys,key_share.rt,slider_apology.response,slider_apology.rt,key_apology.keys,slider_hide.response,slider_hide.rt,slider_forgiveness.response,slider_forgiveness.rt,key_forgiveness.keys,slider_mad.response,slider_mad.rt,trialseq.thisRepN,trialseq.thisTrialN,trialseq.thisN,trialseq.thisIndex,trialseq.ran,type_trial,stipic,DV,picture,answer,number,key_forgiveness.rt,key_apology.rt,key_guilt.rt,incompleteTrials,trials_redo.thisRepN,trials_redo.thisTrialN,trials_redo.thisN,trials_redo.thisIndex,trials_redo.ran
"[63,137,70,168,80,118,157,9,23,120,194,158,36,91,56,87,156,186,135,144,67,148,95,97,202,26,52,169,79,116,99,180,176,125,182,146,78,50,133,131,113,106]",R_6upvmTfOk884ujf,space,1.3127,space,3.0416,space,7.9082,space,5.4686,space,6.0207,space,8.8607,space,1.5428,1,1.4739,3,7.2072,1,7.2961,2,1.4245,1,1.5905,0,0,0,0,1,R_6upvmTfOk884ujf,1,2024-05-28_13h39.13.924,interaction task,2021.2.3,Linux x86_64,59.88023952,120472,,,,,,,,,,,,,,,,,,,,,,,,,,,,,,,,,,,,,,,,,,,,,,,,,,,,,,,,,,,,,,,
,,,,space,3.8927,space,10.8851,space,20.7525,space,24.1284,space,9.4604,space,4.1693,3,5.4518,1,7.9189,2,5.9199,1,12.9296,3,12.1384,1,0,1,0,1,R_6upvmTfOk884ujf,1,2024-05-28_13h39.13.924,interaction task,2021.2.3,Linux x86_64,59.88023952,120472,,,,,,,,,,,,,,,,,,,,,,,,,,,,,,,,,,,,,,,,,,,,,,,,,,,,,,,,,,,,,,,
,,,,space,0.0342,space,0.1514,space,0.15,space,0.1137,space,0.7515,space,0.6415,3,2.5532,1,3.822,3,6.8035,1,7.3467,2,5.0059,2,0,2,0,1,R_6upvmTfOk884ujf,1,2024-05-28_13h39.13.924,interaction task,2021.2.3,Linux x86_64,59.88023952,120472,,,,,,,,,,,,,,,,,,,,,,,,,,,,,,,,,,,,,,,,,,,,,,,,,,,,,,,,,,,,,,,
,,,,space,0.196,space,0.386,space,0.2177,space,0.2006,space,0.6061,space,0.5116,3,1.5222,1,2.0836,3,10.6181,1,5.0821,2,1.3841,3,0,3,0,1,R_6upvmTfOk884ujf,1,2024-05-28_13h39.13.924,interaction task,2021.2.3,Linux x86_64,59.88023952,120472,,,,,,,,,,,,,,,,,,,,,,,,,,,,,,,,,,,,,,,,,,,,,,,,,,,,,,,,,,,,,,,
,,,,space,0.0328,space,0.5158,space,0.1524,space,0.1347,space,0.7852,space,0.1408,3,1.4689,1,2.6004,3,2.621,3,1.4506,2,1.3392,4,0,4,0,1,R_6upvmTfOk884ujf,1,2024-05-28_13h39.13.924,interaction task,2021.2.3,Linux x86_64,59.88023952,120472,,,,,,,,,,,,,,,,,,,,,,,,,,,,,,,,,,,,,,,,,,,,,,,,,,,,,,,,,,,,,,,
,,,,space,0.9807,space,0.5667,space,0.3147,space,0.1931,space,6.8051,space,0.2039,3,1.3894,1,5.4518,3,2.0433,1,0.8539,3,1.2848,5,0,5,0,1,R_6upvmTfOk884ujf,1,2024-05-28_13h39.13.924,interaction task,2021.2.3,Linux x86_64,59.88023952,120472,,,,,,,,,,,,,,,,,,,,,,,,,,,,,,,,,,,,,,,,,,,,,,,,,,,,,,,,,,,,,,,
,,,,space,0.127,space,0.1765,space,0.1827,space,0.1635,space,0.9355,space,0.4821,3,0.2156,1,2.4647,3,2.4248,2,4.3167,3,3.2174,6,0,6,0,1,R_6upvmTfOk884ujf,1,2024-05-28_13h39.13.924,interaction task,2021.2.3,Linux x86_64,59.88023952,120472,,,,,,,,,,,,,,,,,,,,,,,,,,,,,,,,,,,,,,,,,,,,,,,,,,,,,,,,,,,,,,,
,,,,space,0.5113,space,0.2658,space,0.1854,space,0.14,space,4.7384,space,0.2971,3,1.3744,1,0.2514,3,0.292,2,7.4585,1,7.1722,7,0,7,0,1,R_6upvmTfOk884ujf,1,2024-05-28_13h39.13.924,interaction task,2021.2.3,Linux x86_64,59.88023952,120472,,,,,,,,,,,,,,,,,,,,,,,,,,,,,,,,,,,,,,,,,,,,,,,,,,,,,,,,,,,,,,,
,,,,space,0.0073,space,0.1501,space,0.1417,space,0.1374,space,2.1219,space,0.3991,3,1.181,1,3.255,3,0.2925,1,4.1068,3,2.8809,8,0,8,0,1,R_6upvmTfOk884ujf,1,2024-05-28_13h39.13.924,interaction task,2021.2.3,Linux x86_64,59.88023952,120472,,,,,,,,,,,,,,,,,,,,,,,,,,,,,,,,,,,,,,,,,,,,,,,,,,,,,,,,,,,,,,,
,,,,space,1.4384,space,0.1519,space,0.1647,space,0.122,space,0.8892,space,0.5569,3,0.2854,1,0.3243,3,0.2696,2,14.6124,2,11.8066,9,0,9,0,1,R_6upvmTfOk884ujf,1,2024-05-28_13h39.13.924,interaction task,2021.2.3,Linux x86_64,59.88023952,120472,,,,,,,,,,,,,,,,,,,,,,,,,,,,,,,,,,,,,,,,,,,,,,,,,,,,,,,,,,,,,,,
,,,,,,,,,,,,,,,,,,,,,,,,,,,,,,,R_6upvmTfOk884ujf,1,2024-05-28_13h39.13.924,interaction task,2021.2.3,Linux x86_64,59.88023952,120472,space,0.9272,[],0.22893246,-0.364811933,0,0,0,0,0,0,0,1,RightButton_2,9dot1.png,Greater,Smaller,,,,,,,,,,,,,,,,,,,,,,,,,,,,,,,,,,,,,,,,,,,,,,
,,,,,,,,,,,,,,,,,,,,,,,,,,,,,,,R_6upvmTfOk884ujf,1,2024-05-28_13h39.13.924,interaction task,2021.2.3,Linux x86_64,59.88023952,120472,,,"[""RightButton_2""]",0.261189302,-0.336033433,1,0,0,0,1,1,2,1,RightButton_2,11dot2.png,Smaller,Greater,RightButton_2,,,,,,,,,,,,,,,,,,,,,,,,,,,,,,,,,,,,,,,,,,,,,
,,,,,,,,,,,,,,,,,,,,,,,,,,,,,,,R_6upvmTfOk884ujf,1,2024-05-28_13h39.13.924,interaction task,2021.2.3,Linux x86_64,59.88023952,120472,,,"[""RightButton_2""]",0.316399256,-0.279755345,1,0,0,0,2,2,1,1,LeftButton_2,11dot1.png,Greater,Smaller,RightButton_2,,,,,,,,,,,,,,,,,,,,,,,,,,,,,,,,,,,,,,,,,,,,,
,,,,,,,,,,,,,,,,,,,,,,,,,,,,,,,R_6upvmTfOk884ujf,1,2024-05-28_13h39.13.924,interaction task,2021.2.3,Linux x86_64,59.88023952,120472,,,,,,,,,,,,,,,,Greater,Smaller,,0.2,-0.277286847,-0.524240988,1,0,0,LeftButton,"[""LeftButton""]",,,,2.08632191,13.4209,space,3.0218,,,,,,,,,,,0,0,0,0,1,1,both_wrong.png,1,RandomDot27.png,No answer,19,,,,,,,,,
,,,,,,,,,,,,,,,,,,,,,,,,,,,,,,,R_6upvmTfOk884ujf,1,2024-05-28_13h39.13.924,interaction task,2021.2.3,Linux x86_64,59.88023952,120472,,,,,,,,,,,,,,,,Greater,Smaller,,,-0.254354397,-0.471789325,1,0,0,LeftButton,"[""LeftButton""]",,,,,,,,,,,,,62.72372525,2.0551,space,58.96605578,3.3777,0,1,1,1,1,2,only_sub_right.png,3,RandomDot23.png,No answer,20,0.0033,,,,,,,,
,,,,,,,,,,,,,,,,,,,,,,,,,,,,,,,R_6upvmTfOk884ujf,1,2024-05-28_13h39.13.924,interaction task,2021.2.3,Linux x86_64,59.88023952,120472,,,,,,,,,,,,,,,,Smaller,Greater,,,-0.236689647,-0.519124632,1,0,0,LeftButton,"[""LeftButton""]",,,,4.127884706,2.5412,space,0.8642,,,,,,,,,,,0,2,2,2,1,1,both_wrong.png,1,RandomDot29.png,No answer,19,,,,,,,,,
,,,,,,,,,,,,,,,,,,,,,,,,,,,,,,,R_6upvmTfOk884ujf,1,2024-05-28_13h39.13.924,interaction task,2021.2.3,Linux x86_64,59.88023952,120472,,,,,,,,,,,,,,,,Greater,Smaller,,,0.31689477,-0.495172713,1,0,0,RightButton,"[""RightButton""]",,,,,,,,66,2.874,space,61,1.8967,,,,,,0,3,3,3,1,3,only_sub_wrong.png,2,RandomDot13.png,No answer,21,,0.5309,,,,,,,
,,,,,,,,,,,,,,,,,,,,,,,,,,,,,,,R_6upvmTfOk884ujf,1,2024-05-28_13h39.13.924,interaction task,2021.2.3,Linux x86_64,59.88023952,120472,,,,,,,,,,,,,,,,Smaller,Greater,,,0.307050943,-0.524445852,1,0,0,RightButton,"[""RightButton""]",,,,,,,,70,1.8672,space,62,0.7816,,,,,,0,4,4,4,1,1,both_wrong.png,2,RandomDot8.png,No answer,20,,0.5236,,,,,,,
,,,,,,,,,,,,,,,,,,,,,,,,,,,,,,,R_6upvmTfOk884ujf,1,2024-05-28_13h39.13.924,interaction task,2021.2.3,Linux x86_64,59.88023952,120472,,,,,,,,,,,,,,,,Smaller,Greater,,,0.238834143,-0.493185962,1,0,0,RightButton,"[""RightButton""]",,,,3.980709314,1.3167,space,0.6597,,,,,,,,,,,0,5,5,5,1,2,only_sub_right.png,1,RandomDot34.png,No answer,19,,,,,,,,,
,,,,,,,,,,,,,,,,,,,,,,,,,,,,,,,R_6upvmTfOk884ujf,1,2024-05-28_13h39.13.924,interaction task,2021.2.3,Linux x86_64,59.88023952,120472,,,,,,,,,,,,,,,,Greater,Smaller,,,-0.252263467,-0.52700184,1,0,0,LeftButton,"[""LeftButton""]",,,,4.025871356,2.1436,space,0.5091,,,,,,,,,,,0,6,6,6,1,3,only_sub_wrong.png,1,RandomDot8.png,No answer,21,,,,,,,,,
,,,,,,,,,,,,,,,,,,,,,,,,,,,,,,,R_6upvmTfOk884ujf,1,2024-05-28_13h39.13.924,interaction task,2021.2.3,Linux x86_64,59.88023952,120472,,,,,,,,,,,,,,,,Smaller,Greater,,,-0.255733569,-0.488595609,1,0,0,LeftButton,"[""LeftButton""]",,,,,,,,,,,,,,,,,,0,7,7,7,1,0,both_right.png,0,RandomDot5.png,No answer,21,,,,,,,,,
,,,,,,,,,,,,,,,,,,,,,,,,,,,,,,,R_6upvmTfOk884ujf,1,2024-05-28_13h39.13.924,interaction task,2021.2.3,Linux x86_64,59.88023952,120472,,,,,,,,,,,,,,,,Smaller,Greater,,,0.288446665,-0.490426805,1,0,0,RightButton,"[""RightButton""]",,,,,,,,,,,,,,,,,,0,8,8,8,1,0,both_right.png,1,RandomDot3.png,No answer,19,,,,,,,,,
,,,,,,,,,,,,,,,,,,,,,,,,,,,,,,,R_6upvmTfOk884ujf,1,2024-05-28_13h39.13.924,interaction task,2021.2.3,Linux x86_64,59.88023952,120472,,,,,,,,,,,,,,,,Greater,Smaller,,,-0.331570943,-0.455297682,1,0,0,LeftButton,"[""LeftButton""]",,,,,,,,99,6.8933,space,19,3.7167,,,,,,0,9,9,9,1,2,only_sub_right.png,2,RandomDot21.png,No answer,21,,0.492,,,,,,,
,,,,,,,,,,,,,,,,,,,,,,,,,,,,,,,R_6upvmTfOk884ujf,1,2024-05-28_13h39.13.924,interaction task,2021.2.3,Linux x86_64,59.88023952,120472,,,,,,,,,,,,,,,,Greater,Smaller,,,-0.192502419,-0.493547086,1,0,0,LeftButton,"[""LeftButton""]",,,,,,,,,,,,,,,,,,0,10,10,10,1,4,both_right.png,10,RandomDot41.png,LeftButton,5,,,,,,,,,
,,,,,,,,,,,,,,,,,,,,,,,,,,,,,,,R_6upvmTfOk884ujf,1,2024-05-28_13h39.13.924,interaction task,2021.2.3,Linux x86_64,59.88023952,120472,,,,,,,,,,,,,,,,Greater,Smaller,,,-0.212347031,-0.514168492,1,0,0,LeftButton,"[""LeftButton""]",,,,3.930056492,3.1712,space,0.0767,,,,,,,,,,,0,11,11,11,1,3,only_sub_wrong.png,1,RandomDot1.png,No answer,19,,,,,,,,,
,,,,,,,,,,,,,,,,,,,,,,,,,,,,,,,R_6upvmTfOk884ujf,1,2024-05-28_13h39.13.924,interaction task,2021.2.3,Linux x86_64,59.88023952,120472,,,,,,,,,,,,,,,,Greater,Smaller,,,-0.258729776,-0.510278349,1,0,0,LeftButton,"[""LeftButton""]",,,,,,,,,,,,,,,,,,0,12,12,12,1,0,both_right.png,3,RandomDot3.png,No answer,20,,,,,,,,,
,,,,,,,,,,,,,,,,,,,,,,,,,,,,,,,R_6upvmTfOk884ujf,1,2024-05-28_13h39.13.924,interaction task,2021.2.3,Linux x86_64,59.88023952,120472,,,,,,,,,,,,,,,,Smaller,Greater,,,0.29129084,-0.50171068,1,0,0,RightButton,"[""RightButton""]",,,,,,,,,,,,,96.84555812,2.9281,space,9.394321699,5.8136,0,13,13,13,1,1,both_wrong.png,3,RandomDot23.png,No answer,20,0.592,,,,,,,,
,,,,,,,,,,,,,,,,,,,,,,,,,,,,,,,R_6upvmTfOk884ujf,1,2024-05-28_13h39.13.924,interaction task,2021.2.3,Linux x86_64,59.88023952,120472,,,,,,,,,,,,,,,,Smaller,Greater,,,0.326379379,-0.482215034,1,0,0,RightButton,"[""RightButton""]",96,1.9264,space,,,,,,,,,,,,,,,0,14,14,14,1,1,both_wrong.png,0,RandomDot39.png,No answer,21,,,0.7404,,,,,,
,,,,,,,,,,,,,,,,,,,,,,,,,,,,,,,R_6upvmTfOk884ujf,1,2024-05-28_13h39.13.924,interaction task,2021.2.3,Linux x86_64,59.88023952,120472,,,,,,,,,,,,,,,,Greater,Smaller,,,-0.255111059,-0.471292284,1,0,0,LeftButton,"[""LeftButton""]",,,,,,,,,,,,,96.98350373,1.8215,space,95.94952169,2.7485,0,15,15,15,1,1,both_wrong.png,3,RandomDot17.png,No answer,21,0.337,,,,,,,,
,,,,,,,,,,,,,,,,,,,,,,,,,,,,,,,R_6upvmTfOk884ujf,1,2024-05-28_13h39.13.924,interaction task,2021.2.3,Linux x86_64,59.88023952,120472,,,,,,,,,,,,,,,,Greater,Smaller,,,0.287933588,-0.479466191,1,0,0,RightButton,"[""RightButton""]",,,,3.883976539,3.1169,space,0.7497,,,,,,,,,,,0,16,16,16,1,3,only_sub_wrong.png,1,RandomDot4.png,No answer,20,,,,,,,,,
,,,,,,,,,,,,,,,,,,,,,,,,,,,,,,,R_6upvmTfOk884ujf,1,2024-05-28_13h39.13.924,interaction task,2021.2.3,Linux x86_64,59.88023952,120472,,,,,,,,,,,,,,,,Smaller,Greater,,,0.286311229,-0.507720806,1,0,0,RightButton,"[""RightButton""]",,,,,,,,,,,,,91.40229338,10.8154,space,88.09265817,9.6119,0,17,17,17,1,3,only_sub_wrong.png,3,RandomDot9.png,No answer,19,1.7428,,,,,,,,
,,,,,,,,,,,,,,,,,,,,,,,,,,,,,,,R_6upvmTfOk884ujf,1,2024-05-28_13h39.13.924,interaction task,2021.2.3,Linux x86_64,59.88023952,120472,,,,,,,,,,,,,,,,Greater,Smaller,,,-0.289449771,-0.528545945,1,0,0,LeftButton,"[""LeftButton""]",,,,,,,,,,,,,88.22222302,3.0778,space,88.48899495,1.6498,0,18,18,18,1,2,only_sub_right.png,3,RandomDot26.png,No answer,20,0.5683,,,,,,,,
,,,,,,,,,,,,,,,,,,,,,,,,,,,,,,,R_6upvmTfOk884ujf,1,2024-05-28_13h39.13.924,interaction task,2021.2.3,Linux x86_64,59.88023952,120472,,,,,,,,,,,,,,,,Greater,Smaller,,,-0.254260461,-0.512505849,1,0,0,LeftButton,"[""LeftButton""]",87,1.3784,space,,,,,,,,,,,,,,,0,19,19,19,1,3,only_sub_wrong.png,0,RandomDot33.png,No answer,19,,,0.3061,,,,,,
,,,,,,,,,,,,,,,,,,,,,,,,,,,,,,,R_6upvmTfOk884ujf,1,2024-05-28_13h39.13.924,interaction task,2021.2.3,Linux x86_64,59.88023952,120472,,,,,,,,,,,,,,,,Smaller,Greater,,,0.274929047,-0.469317401,1,0,0,RightButton,"[""RightButton""]",,,,3.941829205,3.318,space,0.6315,,,,,,,,,,,0,20,20,20,1,1,both_wrong.png,1,RandomDot17.png,No answer,20,,,,,,,,,
,,,,,,,,,,,,,,,,,,,,,,,,,,,,,,,R_6upvmTfOk884ujf,1,2024-05-28_13h39.13.924,interaction task,2021.2.3,Linux x86_64,59.88023952,120472,,,,,,,,,,,,,,,,Greater,Smaller,,,-0.264958302,-0.516888513,1,0,0,LeftButton,"[""LeftButton""]",87,1.5535,space,,,,,,,,,,,,,,,0,21,21,21,1,3,only_sub_wrong.png,0,RandomDot12.png,No answer,20,,,0.3448,,,,,,
,,,,,,,,,,,,,,,,,,,,,,,,,,,,,,,R_6upvmTfOk884ujf,1,2024-05-28_13h39.13.924,interaction task,2021.2.3,Linux x86_64,59.88023952,120472,,,,,,,,,,,,,,,,Smaller,Greater,,,0.271011353,-0.480625718,1,0,0,RightButton,"[""RightButton""]",,,,,,,,,,,,,89.36258631,24.1158,space,69.8148477,23.0604,0,22,22,22,1,1,both_wrong.png,3,RandomDot12.png,No answer,19,0.0368,,,,,,,,
,,,,,,,,,,,,,,,,,,,,,,,,,,,,,,,R_6upvmTfOk884ujf,1,2024-05-28_13h39.13.924,interaction task,2021.2.3,Linux x86_64,59.88023952,120472,,,,,,,,,,,,,,,,Greater,Smaller,,,-0.263420502,-0.525886677,1,0,0,LeftButton,"[""LeftButton""]",80,2.6279,space,,,,,,,,,,,,,,,0,23,23,23,1,2,only_sub_right.png,0,RandomDot8.png,No answer,20,,,0.1723,,,,,,
,,,,,,,,,,,,,,,,,,,,,,,,,,,,,,,R_6upvmTfOk884ujf,1,2024-05-28_13h39.13.924,interaction task,2021.2.3,Linux x86_64,59.88023952,120472,,,,,,,,,,,,,,,,Smaller,Greater,,,-0.32704401,-0.544409717,1,0,0,LeftButton,"[""LeftButton""]",,,,,,,,,,,,,,,,,,0,24,24,24,1,5,both_right.png,10,RandomDot42.png,LeftButton,21,,,,,,,,,
,,,,,,,,,,,,,,,,,,,,,,,,,,,,,,,R_6upvmTfOk884ujf,1,2024-05-28_13h39.13.924,interaction task,2021.2.3,Linux x86_64,59.88023952,120472,,,,,,,,,,,,,,,,Greater,Smaller,,,-0.289145072,-0.522078761,1,0,0,LeftButton,"[""LeftButton""]",,,,,,,,,,,,,,,,,,0,25,25,25,1,0,both_right.png,2,RandomDot36.png,No answer,19,,,,,,,,,
,,,,,,,,,,,,,,,,,,,,,,,,,,,,,,,R_6upvmTfOk884ujf,1,2024-05-28_13h39.13.924,interaction task,2021.2.3,Linux x86_64,59.88023952,120472,,,,,,,,,,,,,,,,Greater,Smaller,,,-0.293196678,-0.53154571,1,0,0,LeftButton,"[""LeftButton""]",50,3.1224,space,,,,,,,,,,,,,,,0,26,26,26,1,1,both_wrong.png,0,RandomDot10.png,No answer,20,,,1.0618,,,,,,
,,,,,,,,,,,,,,,,,,,,,,,,,,,,,,,R_6upvmTfOk884ujf,1,2024-05-28_13h39.13.924,interaction task,2021.2.3,Linux x86_64,59.88023952,120472,,,,,,,,,,,,,,,,Greater,Smaller,,,-0.332374652,-0.50530257,1,0,0,LeftButton,"[""LeftButton""]",,,,,,,,79,3.1574,space,86,1.6278,,,,,,0,27,27,27,1,3,only_sub_wrong.png,2,RandomDot1.png,No answer,20,,1.1432,,,,,,,
,,,,,,,,,,,,,,,,,,,,,,,,,,,,,,,R_6upvmTfOk884ujf,1,2024-05-28_13h39.13.924,interaction task,2021.2.3,Linux x86_64,59.88023952,120472,,,,,,,,,,,,,,,,Smaller,Greater,,,0.296822786,-0.466084374,1,0,0,RightButton,"[""RightButton""]",,,,,,,,74,139.3923,space,71,137.9409,,,,,,0,28,28,28,1,1,both_wrong.png,2,RandomDot24.png,No answer,21,,0.2046,,,,,,,
,,,,,,,,,,,,,,,,,,,,,,,,,,,,,,,R_6upvmTfOk884ujf,1,2024-05-28_13h39.13.924,interaction task,2021.2.3,Linux x86_64,59.88023952,120472,,,,,,,,,,,,,,,,Smaller,Greater,,,-0.281583865,-0.504376447,1,0,0,LeftButton,"[""LeftButton""]",,,,3.144370317,2.2692,space,0.3093,,,,,,,,,,,0,29,29,29,1,2,only_sub_right.png,1,RandomDot25.png,No answer,19,,,,,,,,,
,,,,,,,,,,,,,,,,,,,,,,,,,,,,,,,R_6upvmTfOk884ujf,1,2024-05-28_13h39.13.924,interaction task,2021.2.3,Linux x86_64,59.88023952,120472,,,,,,,,,,,,,,,,Greater,Smaller,,,-0.202808619,-0.486117752,1,0,0,LeftButton,"[""LeftButton""]",71,1.9637,space,,,,,,,,,,,,,,,0,30,30,30,1,2,only_sub_right.png,0,RandomDot21.png,No answer,19,,,0.2037,,,,,,
,,,,,,,,,,,,,,,,,,,,,,,,,,,,,,,R_6upvmTfOk884ujf,1,2024-05-28_13h39.13.924,interaction task,2021.2.3,Linux x86_64,59.88023952,120472,,,,,,,,,,,,,,,,Greater,Smaller,,,0.287587086,-0.485717067,1,0,0,RightButton,"[""RightButton""]",,,,,,,,,,,,,73.93486524,2.7351,space,82.54774042,1.9604,0,31,31,31,1,3,only_sub_wrong.png,3,RandomDot20.png,No answer,19,0.786,,,,,,,,
,,,,,,,,,,,,,,,,,,,,,,,,,,,,,,,R_6upvmTfOk884ujf,1,2024-05-28_13h39.13.924,interaction task,2021.2.3,Linux x86_64,59.88023952,120472,,,,,,,,,,,,,,,,Smaller,Greater,,,0.255210797,-0.503039466,1,0,0,RightButton,"[""RightButton""]",,,,,,,,62,2.6732,space,60,1.369,,,,,,0,32,32,32,1,3,only_sub_wrong.png,2,RandomDot40.png,No answer,20,,1.5877,,,,,,,
,,,,,,,,,,,,,,,,,,,,,,,,,,,,,,,R_6upvmTfOk884ujf,1,2024-05-28_13h39.13.924,interaction task,2021.2.3,Linux x86_64,59.88023952,120472,,,,,,,,,,,,,,,,Greater,Smaller,,,0.659986496,0.368260701,0,0,0,,[],,,,,,,,,,,,,,,,,,0,33,33,33,1,2,only_sub_right.png,2,RandomDot36.png,No answer,21,,,,125,,,,,
,,,,,,,,,,,,,,,,,,,,,,,,,,,,,,,R_6upvmTfOk884ujf,1,2024-05-28_13h39.13.924,interaction task,2021.2.3,Linux x86_64,59.88023952,120472,,,,,,,,,,,,,,,,Greater,Smaller,,,0.659986496,0.368260701,0,0,0,,[],,,,,,,,,,,,,,,,,,0,34,34,34,1,3,only_sub_wrong.png,3,RandomDot8.png,No answer,21,,,,182,,,,,
,,,,,,,,,,,,,,,,,,,,,,,,,,,,,,,R_6upvmTfOk884ujf,1,2024-05-28_13h39.13.924,interaction task,2021.2.3,Linux x86_64,59.88023952,120472,,,,,,,,,,,,,,,,Greater,Smaller,,,0.659986496,0.368260701,0,0,0,,[],,,,,,,,,,,,,,,,,,0,35,35,35,1,3,only_sub_wrong.png,0,RandomDot38.png,No answer,21,,,,146,,,,,
,,,,,,,,,,,,,,,,,,,,,,,,,,,,,,,R_6upvmTfOk884ujf,1,2024-05-28_13h39.13.924,interaction task,2021.2.3,Linux x86_64,59.88023952,120472,,,,,,,,,,,,,,,,Smaller,Greater,,,0.659986496,0.368260701,0,0,0,,[],,,,,,,,,,,,,,,,,,0,36,36,36,1,1,both_wrong.png,2,RandomDot19.png,No answer,19,,,,78,,,,,
,,,,,,,,,,,,,,,,,,,,,,,,,,,,,,,R_6upvmTfOk884ujf,1,2024-05-28_13h39.13.924,interaction task,2021.2.3,Linux x86_64,59.88023952,120472,,,,,,,,,,,,,,,,Greater,Smaller,,,0.659986496,0.368260701,0,0,0,,[],,,,,,,,,,,,,,,,,,0,37,37,37,1,1,both_wrong.png,0,RandomDot12.png,No answer,21,,,,50,,,,,
,,,,,,,,,,,,,,,,,,,,,,,,,,,,,,,R_6upvmTfOk884ujf,1,2024-05-28_13h39.13.924,interaction task,2021.2.3,Linux x86_64,59.88023952,120472,,,,,,,,,,,,,,,,Greater,Smaller,,,-0.344151735,-0.492745717,1,0,0,LeftButton,"[""LeftButton""]",,,,,,,,,,,,,53.16355766,1.1015,space,66.80384581,2.1014,0,38,38,38,1,2,only_sub_right.png,3,RandomDot36.png,No answer,20,0.0075,,,,,,,,
,,,,,,,,,,,,,,,,,,,,,,,,,,,,,,,R_6upvmTfOk884ujf,1,2024-05-28_13h39.13.924,interaction task,2021.2.3,Linux x86_64,59.88023952,120472,,,,,,,,,,,,,,,,Smaller,Greater,,,-0.221420924,-0.544408586,1,0,0,LeftButton,"[""LeftButton""]",,,,,,,,82,1.486,space,63,0.6627,,,,,,0,39,39,39,1,2,only_sub_right.png,2,RandomDot5.png,No answer,21,,0.043,,,,,,,
,,,,,,,,,,,,,,,,,,,,,,,,,,,,,,,R_6upvmTfOk884ujf,1,2024-05-28_13h39.13.924,interaction task,2021.2.3,Linux x86_64,59.88023952,120472,,,,,,,,,,,,,,,,Greater,Smaller,,,0.361883005,-0.514500229,1,0,0,RightButton,"[""RightButton""]",,,,4.167118073,1.6232,space,0.4656,,,,,,,,,,,0,40,40,40,1,2,only_sub_right.png,1,RandomDot3.png,No answer,20,,,,,,,,,
,,,,,,,,,,,,,,,,,,,,,,,,,,,,,,,R_6upvmTfOk884ujf,1,2024-05-28_13h39.13.924,interaction task,2021.2.3,Linux x86_64,59.88023952,120472,,,,,,,,,,,,,,,,Smaller,Greater,,,0.329994361,-0.47291678,1,0,0,RightButton,"[""RightButton""]",3,2.7946,space,,,,,,,,,,,,,,,0,41,41,41,1,2,only_sub_right.png,0,RandomDot39.png,No answer,19,,,0.3691,,,,,,
,,,,,,,,,,,,,,,,,,,,,,,,,,,,,,,R_6upvmTfOk884ujf,1,2024-05-28_13h39.13.924,interaction task,2021.2.3,Linux x86_64,59.88023952,120472,,,,,,,,,,,,,,,,Greater,Smaller,,,-0.292338769,-0.512132009,1,0,0,LeftButton,"[""LeftButton""]",,,,,,,,4,1.0598,space,10,1.9904,,,,,,,,,,,2,only_sub_right.png,2,RandomDot36.png,No answer,21,,0.448,,,0,0,0,0,1
,,,,,,,,,,,,,,,,,,,,,,,,,,,,,,,R_6upvmTfOk884ujf,1,2024-05-28_13h39.13.924,interaction task,2021.2.3,Linux x86_64,59.88023952,120472,,,,,,,,,,,,,,,,Smaller,Greater,,,0.282983541,-0.540927039,1,0,0,RightButton,"[""RightButton""]",,,,,,,,28,6.107,space,50,4.3898,,,,,,,,,,,1,both_wrong.png,2,RandomDot19.png,No answer,19,,1.2079,,,0,1,1,3,1
,,,,,,,,,,,,,,,,,,,,,,,,,,,,,,,R_6upvmTfOk884ujf,1,2024-05-28_13h39.13.924,interaction task,2021.2.3,Linux x86_64,59.88023952,120472,,,,,,,,,,,,,,,,Greater,Smaller,,,-0.296824217,-0.497866454,1,0,0,LeftButton,"[""LeftButton""]",45,72.3275,space,,,,,,,,,,,,,,,,,,,,3,only_sub_wrong.png,0,RandomDot38.png,No answer,21,,,0.8401,,0,2,2,2,1
,,,,,,,,,,,,,,,,,,,,,,,,,,,,,,,R_6upvmTfOk884ujf,1,2024-05-28_13h39.13.924,interaction task,2021.2.3,Linux x86_64,59.88023952,120472,,,,,,,,,,,,,,,,Greater,Smaller,,,0.355822086,-0.516548298,1,0,0,RightButton,"[""RightButton""]",67,1.5967,space,,,,,,,,,,,,,,,,,,,,1,both_wrong.png,0,RandomDot12.png,No answer,21,,,0.0876,,0,3,3,4,1
,,,,,,,,,,,,,,,,,,,,,,,,,,,,,,,R_6upvmTfOk884ujf,1,2024-05-28_13h39.13.924,interaction task,2021.2.3,Linux x86_64,59.88023952,120472,,,,,,,,,,,,,,,,Greater,Smaller,,,0.275636911,-0.46909742,1,0,0,RightButton,"[""RightButton""]",,,,,,,,,,,,,46.84827496,3.4504,space,69.01666725,1.6331,,,,,,3,only_sub_wrong.png,3,RandomDot8.png,No answer,21,0.9604,,,,0,4,4,1,1
