chooserow,ParID,pre_instru_resp_2.keys,pre_instru_resp_2.rt,pre_instru_resp_3.keys,pre_instru_resp_3.rt,pre_instru_resp_9.keys,pre_instru_resp_9.rt,pre_instru_resp_8.keys,pre_instru_resp_8.rt,pre_instru_resp_4.keys,pre_instru_resp_4.rt,pre_instru_resp_5.keys,pre_instru_resp_5.rt,pre_instru_resp_6.keys,pre_instru_resp_6.rt,key_resp_3.keys,key_resp_3.rt,key_resp_4.keys,key_resp_4.rt,key_resp_5.keys,key_resp_5.rt,key_resp_6.keys,key_resp_6.rt,key_resp_7.keys,key_resp_7.rt,trials_2.thisRepN,trials_2.thisTrialN,trials_2.thisN,trials_2.thisIndex,trials_2.ran,participant,session,date,expName,psychopyVersion,OS,frameRate,SONAid,pre_instru_resp.keys,pre_instru_resp.rt,clicked,judge_2.x,judge_2.y,judge_2.leftButton,judge_2.midButton,judge_2.rightButton,judge_2.clicked_name,trials.thisRepN,trials.thisTrialN,trials.thisN,trials.thisIndex,trials.ran,prac_answer,prac_dot_sti,dotlefttext,dotrighttext,prac_acc,judge.x,judge.y,judge.leftButton,judge.midButton,judge.rightButton,judge.clicked_name,clicked_guilt,slider_guilt.response,slider_guilt.rt,key_guilt.keys,share_slider.response,share_slider.rt,key_share.keys,slider_apology.response,slider_apology.rt,key_apology.keys,key_apology.rt,slider_hide.response,slider_hide.rt,slider_forgiveness.response,slider_forgiveness.rt,key_forgiveness.keys,slider_mad.response,slider_mad.rt,trialseq.thisRepN,trialseq.thisTrialN,trialseq.thisN,trialseq.thisIndex,trialseq.ran,type_trial,stipic,DV,picture,answer,number,key_forgiveness.rt,key_share.rt,key_guilt.rt
"[128,140,163,104,185,171,106,55,188,110,151,19,41,64,172,56,159,113,2,184,82,80,203,91,150,174,86,162,66,146,196,87,109,67,125,133,107,126,134,52,24,79]",R_701Ahvlhq3udAHc,space,1.7523,space,9.6194,space,33.4493,space,40.3241,space,47.2053,space,29.5711,space,6.752,3,9.6378,1,12.8069,3,13.2217,1,12.2067,3,3.3686,0,0,0,0,1,R_701Ahvlhq3udAHc,1,2024-05-08_18h58.21.699,interaction task,2021.2.3,Win32,60.24096386,120545,,,,,,,,,,,,,,,,,,,,,,,,,,,,,,,,,,,,,,,,,,,,,,,,,,,,,,,,,
,,,,space,1.4009,space,2.8046,space,4.7638,space,63.2501,space,1.1371,space,0.8511,3,3.2005,1,1.8342,3,2.1503,2,2.0819,2,5.4303,1,0,1,0,1,R_701Ahvlhq3udAHc,1,2024-05-08_18h58.21.699,interaction task,2021.2.3,Win32,60.24096386,120545,,,,,,,,,,,,,,,,,,,,,,,,,,,,,,,,,,,,,,,,,,,,,,,,,,,,,,,,,
,,,,,,,,,,,,,,,,,,,,,,,,,,,,,,,R_701Ahvlhq3udAHc,1,2024-05-08_18h58.21.699,interaction task,2021.2.3,Win32,60.24096386,120545,space,5.7555,"[""RightButton_2""]",0.285416698,-0.288888889,1,0,0,RightButton_2,0,0,0,1,1,RightButton_2,11dot1.png,Smaller,Greater,,,,,,,,,,,,,,,,,,,,,,,,,,,,,,,,,,,,,,,
,,,,,,,,,,,,,,,,,,,,,,,,,,,,,,,R_701Ahvlhq3udAHc,1,2024-05-08_18h58.21.699,interaction task,2021.2.3,Win32,60.24096386,120545,,,"[""LeftButton_2""]",-0.267708302,-0.311111111,1,0,0,LeftButton_2,0,1,1,2,1,LeftButton_2,9dot2.png,Smaller,Greater,,,,,,,,,,,,,,,,,,,,,,,,,,,,,,,,,,,,,,,
,,,,,,,,,,,,,,,,,,,,,,,,,,,,,,,R_701Ahvlhq3udAHc,1,2024-05-08_18h58.21.699,interaction task,2021.2.3,Win32,60.24096386,120545,,,"[""LeftButton_2""]",-0.273958302,-0.275925954,1,0,0,LeftButton_2,0,2,2,0,1,LeftButton_2,11dot1.png,Greater,Smaller,,,,,,,,,,,,,,,,,,,,,,,,,,,,,,,,,,,,,,,
,,,,,,,,,,,,,,,,,,,,,,,,,,,,,,,R_701Ahvlhq3udAHc,1,2024-05-08_18h58.21.699,interaction task,2021.2.3,Win32,60.24096386,120545,,,,,,,,,,,,,,,,,Smaller,Greater,0.6,0.25625,-0.524074131,1,0,0,RightButton,"[""RightButton""]",,,,,,,0,14.7329,space,1.1244,0,24.0179,,,,,,0,0,0,0,1,2,only_sub_right.png,2,RandomDot22.png,No answer,20,,,
,,,,,,,,,,,,,,,,,,,,,,,,,,,,,,,R_701Ahvlhq3udAHc,1,2024-05-08_18h58.21.699,interaction task,2021.2.3,Win32,60.24096386,120545,,,,,,,,,,,,,,,,,Smaller,Greater,,-0.301041651,-0.531481595,1,0,0,LeftButton,"[""LeftButton""]",,,,,,,,,,,,,100,7.7941,space,0.336701942,12.366,0,1,1,1,1,2,only_sub_right.png,3,RandomDot8.png,No answer,19,0.618,,
,,,,,,,,,,,,,,,,,,,,,,,,,,,,,,,R_701Ahvlhq3udAHc,1,2024-05-08_18h58.21.699,interaction task,2021.2.3,Win32,60.24096386,120545,,,,,,,,,,,,,,,,,Smaller,Greater,,-0.272916651,-0.522222222,1,0,0,LeftButton,"[""LeftButton""]",,,,3.046875,11.2068,space,,,,,,,,,,,,0,2,2,2,1,3,only_sub_wrong.png,1,RandomDot6.png,No answer,20,,0.9471,
,,,,,,,,,,,,,,,,,,,,,,,,,,,,,,,R_701Ahvlhq3udAHc,1,2024-05-08_18h58.21.699,interaction task,2021.2.3,Win32,60.24096386,120545,,,,,,,,,,,,,,,,,Smaller,Greater,,-0.204166651,-0.503703817,1,0,0,LeftButton,"[""LeftButton""]",0,2.3035,space,,,,,,,,,,,,,,,0,3,3,3,1,2,only_sub_right.png,0,RandomDot29.png,No answer,20,,,0.5907
,,,,,,,,,,,,,,,,,,,,,,,,,,,,,,,R_701Ahvlhq3udAHc,1,2024-05-08_18h58.21.699,interaction task,2021.2.3,Win32,60.24096386,120545,,,,,,,,,,,,,,,,,Greater,Smaller,,0.2875,-0.494444444,1,0,0,RightButton,"[""RightButton""]",,,,,,,,,,,,,30.00842393,5.5139,space,29.69276255,7.8375,0,4,4,4,1,3,only_sub_wrong.png,3,RandomDot34.png,No answer,20,0.2686,,
,,,,,,,,,,,,,,,,,,,,,,,,,,,,,,,R_701Ahvlhq3udAHc,1,2024-05-08_18h58.21.699,interaction task,2021.2.3,Win32,60.24096386,120545,,,,,,,,,,,,,,,,,Greater,Smaller,,0.280208397,-0.540740797,1,0,0,RightButton,"[""RightButton""]",,,,,,,60,3.0762,space,0.3386,30,10.0099,,,,,,0,5,5,5,1,3,only_sub_wrong.png,2,RandomDot23.png,No answer,20,,,
,,,,,,,,,,,,,,,,,,,,,,,,,,,,,,,R_701Ahvlhq3udAHc,1,2024-05-08_18h58.21.699,interaction task,2021.2.3,Win32,60.24096386,120545,,,,,,,,,,,,,,,,,Smaller,Greater,,-0.254166651,-0.520370483,1,0,0,LeftButton,"[""LeftButton""]",0,2.3283,space,,,,,,,,,,,,,,,0,6,6,6,1,2,only_sub_right.png,0,RandomDot39.png,No answer,19,,,0.29
,,,,,,,,,,,,,,,,,,,,,,,,,,,,,,,R_701Ahvlhq3udAHc,1,2024-05-08_18h58.21.699,interaction task,2021.2.3,Win32,60.24096386,120545,,,,,,,,,,,,,,,,,Smaller,Greater,,0.344791698,-0.527777778,1,0,0,RightButton,"[""RightButton""]",0,2.3287,space,,,,,,,,,,,,,,,0,7,7,7,1,1,both_wrong.png,0,RandomDot28.png,No answer,19,,,0.2363
,,,,,,,,,,,,,,,,,,,,,,,,,,,,,,,R_701Ahvlhq3udAHc,1,2024-05-08_18h58.21.699,interaction task,2021.2.3,Win32,60.24096386,120545,,,,,,,,,,,,,,,,,Smaller,Greater,,-0.275,-0.492592706,1,0,0,LeftButton,"[""LeftButton""]",,,,,,,,,,,,,30.00842393,5.8296,space,70.62289883,7.9543,0,8,8,8,1,3,only_sub_wrong.png,3,RandomDot22.png,No answer,21,0.2762,,
,,,,,,,,,,,,,,,,,,,,,,,,,,,,,,,R_701Ahvlhq3udAHc,1,2024-05-08_18h58.21.699,interaction task,2021.2.3,Win32,60.24096386,120545,,,,,,,,,,,,,,,,,Greater,Smaller,,0.295833397,-0.501851908,1,0,0,RightButton,"[""RightButton""]",,,,2.458333492,7.5421,space,,,,,,,,,,,,0,9,9,9,1,2,only_sub_right.png,1,RandomDot6.png,No answer,21,,0.6804,
,,,,,,,,,,,,,,,,,,,,,,,,,,,,,,,R_701Ahvlhq3udAHc,1,2024-05-08_18h58.21.699,interaction task,2021.2.3,Win32,60.24096386,120545,,,,,,,,,,,,,,,,,Smaller,Greater,,-0.282291651,-0.520370483,1,0,0,LeftButton,"[""LeftButton""]",79,3.9824,space,,,,,,,,,,,,,,,0,10,10,10,1,3,only_sub_wrong.png,0,RandomDot26.png,No answer,19,,,0.2847
,,,,,,,,,,,,,,,,,,,,,,,,,,,,,,,R_701Ahvlhq3udAHc,1,2024-05-08_18h58.21.699,interaction task,2021.2.3,Win32,60.24096386,120545,,,,,,,,,,,,,,,,,Smaller,Greater,,-0.289583302,-0.522222222,1,0,0,LeftButton,"[""LeftButton""]",,,,,,,,,,,,,,,,,,0,11,11,11,1,0,both_right.png,1,RandomDot36.png,No answer,19,,,
,,,,,,,,,,,,,,,,,,,,,,,,,,,,,,,R_701Ahvlhq3udAHc,1,2024-05-08_18h58.21.699,interaction task,2021.2.3,Win32,60.24096386,120545,,,,,,,,,,,,,,,,,Greater,Smaller,,0.309375,-0.461111111,1,0,0,RightButton,"[""RightButton""]",,,,,,,,,,,,,,,,,,0,12,12,12,1,0,both_right.png,3,RandomDot30.png,No answer,19,,,
,,,,,,,,,,,,,,,,,,,,,,,,,,,,,,,R_701Ahvlhq3udAHc,1,2024-05-08_18h58.21.699,interaction task,2021.2.3,Win32,60.24096386,120545,,,,,,,,,,,,,,,,,Greater,Smaller,,0.25625,-0.518518575,1,0,0,RightButton,"[""RightButton""]",,,,2.453125,6.4058,space,,,,,,,,,,,,0,13,13,13,1,1,both_wrong.png,1,RandomDot6.png,No answer,20,,0.3312,
,,,,,,,,,,,,,,,,,,,,,,,,,,,,,,,R_701Ahvlhq3udAHc,1,2024-05-08_18h58.21.699,interaction task,2021.2.3,Win32,60.24096386,120545,,,,,,,,,,,,,,,,,Greater,Smaller,,0.25625,-0.524074131,1,0,0,RightButton,"[""RightButton""]",,,,,,,100,3.8582,space,0.355,9,6.5878,,,,,,0,14,14,14,1,3,only_sub_wrong.png,2,RandomDot38.png,No answer,21,,,
,,,,,,,,,,,,,,,,,,,,,,,,,,,,,,,R_701Ahvlhq3udAHc,1,2024-05-08_18h58.21.699,interaction task,2021.2.3,Win32,60.24096386,120545,,,,,,,,,,,,,,,,,Smaller,Greater,,-0.28125,-0.509259372,1,0,0,LeftButton,"[""LeftButton""]",0,3.1587,space,,,,,,,,,,,,,,,0,15,15,15,1,1,both_wrong.png,0,RandomDot39.png,No answer,21,,,0.1858
,,,,,,,,,,,,,,,,,,,,,,,,,,,,,,,R_701Ahvlhq3udAHc,1,2024-05-08_18h58.21.699,interaction task,2021.2.3,Win32,60.24096386,120545,,,,,,,,,,,,,,,,,Greater,Smaller,,-0.320833302,-0.485185242,1,0,0,LeftButton,"[""LeftButton""]",,,,2.484375,5.5682,space,,,,,,,,,,,,0,16,16,16,1,3,only_sub_wrong.png,1,RandomDot11.png,No answer,20,,0.9388,
,,,,,,,,,,,,,,,,,,,,,,,,,,,,,,,R_701Ahvlhq3udAHc,1,2024-05-08_18h58.21.699,interaction task,2021.2.3,Win32,60.24096386,120545,,,,,,,,,,,,,,,,,Greater,Smaller,,0.285416698,-0.531481595,1,0,0,RightButton,"[""RightButton""]",,,,2.484375,1.9087,space,,,,,,,,,,,,0,17,17,17,1,2,only_sub_right.png,1,RandomDot3.png,No answer,20,,0.2749,
,,,,,,,,,,,,,,,,,,,,,,,,,,,,,,,R_701Ahvlhq3udAHc,1,2024-05-08_18h58.21.699,interaction task,2021.2.3,Win32,60.24096386,120545,,,,,,,,,,,,,,,,,Greater,Smaller,,0.317708397,-0.514814928,1,0,0,RightButton,"[""RightButton""]",,,,,,,,,,,,,,,,,,0,18,18,18,1,0,both_right.png,0,RandomDot3.png,No answer,21,,,
,,,,,,,,,,,,,,,,,,,,,,,,,,,,,,,R_701Ahvlhq3udAHc,1,2024-05-08_18h58.21.699,interaction task,2021.2.3,Win32,60.24096386,120545,,,,,,,,,,,,,,,,,Greater,Smaller,,-0.265625,-0.496296353,1,0,0,LeftButton,"[""LeftButton""]",,,,,,,,,,,,,11.06902517,7.1108,space,30.3240805,8.0184,0,19,19,19,1,3,only_sub_wrong.png,3,RandomDot20.png,No answer,20,0.2761,,
,,,,,,,,,,,,,,,,,,,,,,,,,,,,,,,R_701Ahvlhq3udAHc,1,2024-05-08_18h58.21.699,interaction task,2021.2.3,Win32,60.24096386,120545,,,,,,,,,,,,,,,,,Smaller,Greater,,-0.235416651,-0.496296353,1,0,0,LeftButton,"[""LeftButton""]",,,,,,,0,2.462,space,0.2489,0,6.2251,,,,,,0,20,20,20,1,1,both_wrong.png,2,RandomDot7.png,No answer,21,,,
,,,,,,,,,,,,,,,,,,,,,,,,,,,,,,,R_701Ahvlhq3udAHc,1,2024-05-08_18h58.21.699,interaction task,2021.2.3,Win32,60.24096386,120545,,,,,,,,,,,,,,,,,Smaller,Greater,,0.265625,-0.462963019,1,0,0,RightButton,"[""RightButton""]",,,,,,,0,3.7684,space,0.3992,0,5.5148,,,,,,0,21,21,21,1,1,both_wrong.png,2,RandomDot8.png,No answer,20,,,
,,,,,,,,,,,,,,,,,,,,,,,,,,,,,,,R_701Ahvlhq3udAHc,1,2024-05-08_18h58.21.699,interaction task,2021.2.3,Win32,60.24096386,120545,,,,,,,,,,,,,,,,,Smaller,Greater,,0.270833397,-0.507407464,1,0,0,RightButton,"[""RightButton""]",,,,,,,,,,,,,,,,,,0,22,22,22,1,5,both_right.png,10,RandomDot42.png,LeftButton,21,,,
,,,,,,,,,,,,,,,,,,,,,,,,,,,,,,,R_701Ahvlhq3udAHc,1,2024-05-08_18h58.21.699,interaction task,2021.2.3,Win32,60.24096386,120545,,,,,,,,,,,,,,,,,Smaller,Greater,,-0.2875,-0.533333333,1,0,0,LeftButton,"[""LeftButton""]",,,,,,,,,,,,,50.10522207,1.4146,space,48.94781787,3.7595,0,23,23,23,1,1,both_wrong.png,3,RandomDot23.png,No answer,20,0.5366,,
,,,,,,,,,,,,,,,,,,,,,,,,,,,,,,,R_701Ahvlhq3udAHc,1,2024-05-08_18h58.21.699,interaction task,2021.2.3,Win32,60.24096386,120545,,,,,,,,,,,,,,,,,Smaller,Greater,,-0.292708302,-0.479629686,1,0,0,LeftButton,"[""LeftButton""]",100,4.2674,space,,,,,,,,,,,,,,,0,24,24,24,1,3,only_sub_wrong.png,0,RandomDot16.png,No answer,21,,,0.3176
,,,,,,,,,,,,,,,,,,,,,,,,,,,,,,,R_701Ahvlhq3udAHc,1,2024-05-08_18h58.21.699,interaction task,2021.2.3,Win32,60.24096386,120545,,,,,,,,,,,,,,,,,Smaller,Greater,,0.296875,-0.509259372,1,0,0,RightButton,"[""RightButton""]",,,,,,,100,3.878,space,0.4875,100,5.5624,,,,,,0,25,25,25,1,3,only_sub_wrong.png,2,RandomDot15.png,No answer,21,,,
,,,,,,,,,,,,,,,,,,,,,,,,,,,,,,,R_701Ahvlhq3udAHc,1,2024-05-08_18h58.21.699,interaction task,2021.2.3,Win32,60.24096386,120545,,,,,,,,,,,,,,,,,Greater,Smaller,,0.304166698,-0.498148261,1,0,0,RightButton,"[""RightButton""]",,,,,,,,,,,,,100,6.9195,space,0.336701942,9.8451,0,26,26,26,1,1,both_wrong.png,3,RandomDot13.png,No answer,21,0.234,,
,,,,,,,,,,,,,,,,,,,,,,,,,,,,,,,R_701Ahvlhq3udAHc,1,2024-05-08_18h58.21.699,interaction task,2021.2.3,Win32,60.24096386,120545,,,,,,,,,,,,,,,,,Smaller,Greater,,-0.295833302,-0.509259372,1,0,0,LeftButton,"[""LeftButton""]",,,,2.557291985,3.1799,space,,,,,,,,,,,,0,27,27,27,1,3,only_sub_wrong.png,1,RandomDot15.png,No answer,21,,0.3513,
,,,,,,,,,,,,,,,,,,,,,,,,,,,,,,,R_701Ahvlhq3udAHc,1,2024-05-08_18h58.21.699,interaction task,2021.2.3,Win32,60.24096386,120545,,,,,,,,,,,,,,,,,Smaller,Greater,,-0.333333302,-0.535185242,1,0,0,LeftButton,"[""LeftButton""]",,,,2.53125,1.955,space,,,,,,,,,,,,0,28,28,28,1,1,both_wrong.png,1,RandomDot10.png,No answer,19,,1.1089,
,,,,,,,,,,,,,,,,,,,,,,,,,,,,,,,R_701Ahvlhq3udAHc,1,2024-05-08_18h58.21.699,interaction task,2021.2.3,Win32,60.24096386,120545,,,,,,,,,,,,,,,,,Greater,Smaller,,0.213541698,-0.511111111,1,0,0,RightButton,"[""RightButton""]",100,2.5298,space,,,,,,,,,,,,,,,0,29,29,29,1,3,only_sub_wrong.png,0,RandomDot38.png,No answer,21,,,1.2675
,,,,,,,,,,,,,,,,,,,,,,,,,,,,,,,R_701Ahvlhq3udAHc,1,2024-05-08_18h58.21.699,interaction task,2021.2.3,Win32,60.24096386,120545,,,,,,,,,,,,,,,,,Smaller,Greater,,0.285416698,-0.525926039,1,0,0,RightButton,"[""RightButton""]",,,,,,,,,,,,,,,,,,0,30,30,30,1,4,both_right.png,10,RandomDot41.png,RightButton,5,,,
,,,,,,,,,,,,,,,,,,,,,,,,,,,,,,,R_701Ahvlhq3udAHc,1,2024-05-08_18h58.21.699,interaction task,2021.2.3,Win32,60.24096386,120545,,,,,,,,,,,,,,,,,Greater,Smaller,,0.2625,-0.479629686,1,0,0,RightButton,"[""RightButton""]",,,,,,,,,,,,,100,3.2476,space,0.547141258,9.449,0,31,31,31,1,1,both_wrong.png,3,RandomDot17.png,No answer,21,0.2816,,
,,,,,,,,,,,,,,,,,,,,,,,,,,,,,,,R_701Ahvlhq3udAHc,1,2024-05-08_18h58.21.699,interaction task,2021.2.3,Win32,60.24096386,120545,,,,,,,,,,,,,,,,,Greater,Smaller,,-0.252083302,-0.503703817,1,0,0,LeftButton,"[""LeftButton""]",,,,4.958333492,3.443,space,,,,,,,,,,,,0,32,32,32,1,2,only_sub_right.png,1,RandomDot3.png,No answer,19,,0.933,
,,,,,,,,,,,,,,,,,,,,,,,,,,,,,,,R_701Ahvlhq3udAHc,1,2024-05-08_18h58.21.699,interaction task,2021.2.3,Win32,60.24096386,120545,,,,,,,,,,,,,,,,,Smaller,Greater,,-0.283333302,-0.512963019,1,0,0,LeftButton,"[""LeftButton""]",,,,2.421875,4.3489,space,,,,,,,,,,,,0,33,33,33,1,1,both_wrong.png,1,RandomDot17.png,No answer,20,,0.5373,
,,,,,,,,,,,,,,,,,,,,,,,,,,,,,,,R_701Ahvlhq3udAHc,1,2024-05-08_18h58.21.699,interaction task,2021.2.3,Win32,60.24096386,120545,,,,,,,,,,,,,,,,,Greater,Smaller,,-0.258333302,-0.501851908,1,0,0,LeftButton,"[""LeftButton""]",,,,,,,1,4.5743,space,0.2096,1,8.1984,,,,,,0,34,34,34,1,2,only_sub_right.png,2,RandomDot36.png,No answer,21,,,
,,,,,,,,,,,,,,,,,,,,,,,,,,,,,,,R_701Ahvlhq3udAHc,1,2024-05-08_18h58.21.699,interaction task,2021.2.3,Win32,60.24096386,120545,,,,,,,,,,,,,,,,,Greater,Smaller,,-0.297916651,-0.490740797,1,0,0,LeftButton,"[""LeftButton""]",,,,,,,,,,,,,99.97895944,5.1609,space,0.968015074,7.1527,0,35,35,35,1,2,only_sub_right.png,3,RandomDot36.png,No answer,20,0.6678,,
,,,,,,,,,,,,,,,,,,,,,,,,,,,,,,,R_701Ahvlhq3udAHc,1,2024-05-08_18h58.21.699,interaction task,2021.2.3,Win32,60.24096386,120545,,,,,,,,,,,,,,,,,Smaller,Greater,,-0.25,-0.503703817,1,0,0,LeftButton,"[""LeftButton""]",1,4.3011,space,,,,,,,,,,,,,,,0,36,36,36,1,2,only_sub_right.png,0,RandomDot37.png,No answer,21,,,0.6342
,,,,,,,,,,,,,,,,,,,,,,,,,,,,,,,R_701Ahvlhq3udAHc,1,2024-05-08_18h58.21.699,interaction task,2021.2.3,Win32,60.24096386,120545,,,,,,,,,,,,,,,,,Smaller,Greater,,0.248958397,-0.488888889,1,0,0,RightButton,"[""RightButton""]",,,,,,,0,4.0995,space,0.3818,0,7.2016,,,,,,0,37,37,37,1,2,only_sub_right.png,2,RandomDot34.png,No answer,20,,,
,,,,,,,,,,,,,,,,,,,,,,,,,,,,,,,R_701Ahvlhq3udAHc,1,2024-05-08_18h58.21.699,interaction task,2021.2.3,Win32,60.24096386,120545,,,,,,,,,,,,,,,,,Greater,Smaller,,0.327083397,-0.520370483,1,0,0,RightButton,"[""RightButton""]",,,,,,,,,,,,,99.13721181,3.9509,space,0,8.3059,0,38,38,38,1,2,only_sub_right.png,3,RandomDot22.png,No answer,20,0.2238,,
,,,,,,,,,,,,,,,,,,,,,,,,,,,,,,,R_701Ahvlhq3udAHc,1,2024-05-08_18h58.21.699,interaction task,2021.2.3,Win32,60.24096386,120545,,,,,,,,,,,,,,,,,Greater,Smaller,,0.3,-0.474074131,1,0,0,RightButton,"[""RightButton""]",50,3.0293,space,,,,,,,,,,,,,,,0,39,39,39,1,1,both_wrong.png,0,RandomDot10.png,No answer,20,,,0.2938
,,,,,,,,,,,,,,,,,,,,,,,,,,,,,,,R_701Ahvlhq3udAHc,1,2024-05-08_18h58.21.699,interaction task,2021.2.3,Win32,60.24096386,120545,,,,,,,,,,,,,,,,,Greater,Smaller,,-0.321875,-0.529629686,1,0,0,LeftButton,"[""LeftButton""]",,,,,,,,,,,,,,,,,,0,40,40,40,1,0,both_right.png,2,RandomDot25.png,No answer,19,,,
,,,,,,,,,,,,,,,,,,,,,,,,,,,,,,,R_701Ahvlhq3udAHc,1,2024-05-08_18h58.21.699,interaction task,2021.2.3,Win32,60.24096386,120545,,,,,,,,,,,,,,,,,Smaller,Greater,,0.3,-0.507407464,1,0,0,RightButton,"[""RightButton""]",,,,,,,50,6.4726,space,0.2541,1,4.5256,,,,,,0,41,41,41,1,1,both_wrong.png,2,RandomDot24.png,No answer,21,,,
