chooserow,ParID,pre_instru_resp_2.keys,pre_instru_resp_2.rt,pre_instru_resp_3.keys,pre_instru_resp_3.rt,pre_instru_resp_9.keys,pre_instru_resp_9.rt,pre_instru_resp_8.keys,pre_instru_resp_8.rt,pre_instru_resp_4.keys,pre_instru_resp_4.rt,pre_instru_resp_5.keys,pre_instru_resp_5.rt,pre_instru_resp_6.keys,pre_instru_resp_6.rt,key_resp_3.keys,key_resp_3.rt,key_resp_4.keys,key_resp_4.rt,key_resp_5.keys,key_resp_5.rt,key_resp_6.keys,key_resp_6.rt,key_resp_7.keys,key_resp_7.rt,trials_2.thisRepN,trials_2.thisTrialN,trials_2.thisN,trials_2.thisIndex,trials_2.ran,participant,session,date,expName,psychopyVersion,OS,frameRate,SONAid,pre_instru_resp.keys,pre_instru_resp.rt,clicked,judge_2.x,judge_2.y,judge_2.leftButton,judge_2.midButton,judge_2.rightButton,trials.thisRepN,trials.thisTrialN,trials.thisN,trials.thisIndex,trials.ran,prac_answer,prac_dot_sti,dotlefttext,dotrighttext,judge_2.clicked_name,prac_acc,judge.x,judge.y,judge.leftButton,judge.midButton,judge.rightButton,judge.clicked_name,clicked_guilt,slider_guilt.response,slider_guilt.rt,key_guilt.keys,share_slider.response,share_slider.rt,key_share.keys,slider_apology.response,slider_apology.rt,key_apology.keys,key_apology.rt,slider_hide.response,slider_hide.rt,slider_forgiveness.response,slider_forgiveness.rt,key_forgiveness.keys,slider_mad.response,slider_mad.rt,trialseq.thisRepN,trialseq.thisTrialN,trialseq.thisN,trialseq.thisIndex,trialseq.ran,type_trial,stipic,DV,picture,answer,number,key_guilt.rt,incompleteTrials,key_share.rt,key_forgiveness.rt,trials_redo.thisRepN,trials_redo.thisTrialN,trials_redo.thisN,trials_redo.thisIndex,trials_redo.ran
"[170,151,123,58,5,116,106,18,130,71,188,59,167,66,55,25,107,203,95,145,115,91,143,103,36,175,191,75,78,86,165,69,81,127,149,114,195,133,157,178,140,189]",R_73JC3XxCdLeJrlD,space,2.5383,space,5.2006,space,25.6999,space,43.8078,space,94.4994,space,18.3433,space,9.11,3,25.5052,1,15.4636,3,13.4501,2,13.1947,2,5.1333,0,0,0,0,1,R_73JC3XxCdLeJrlD,1,2024-04-09_19h19.47.506,interaction task,2021.2.3,Win32,59.17159763,120370,,,,,,,,,,,,,,,,,,,,,,,,,,,,,,,,,,,,,,,,,,,,,,,,,,,,,,,,,,,,,,,
,,,,,,,,,,,,,,,,,,,,,,,,,,,,,,,R_73JC3XxCdLeJrlD,1,2024-04-09_19h19.47.506,interaction task,2021.2.3,Win32,59.17159763,120370,space,6.2623,[],0.300146413,-0.390625,0,0,0,0,0,0,1,1,LeftButton_2,11dot1.png,Greater,Smaller,,,,,,,,,,,,,,,,,,,,,,,,,,,,,,,,,,,,,,,,,,,,,,
,,,,,,,,,,,,,,,,,,,,,,,,,,,,,,,R_73JC3XxCdLeJrlD,1,2024-04-09_19h19.47.506,interaction task,2021.2.3,Win32,59.17159763,120370,,,"[""RightButton_2""]",0.243045388,-0.3359375,1,0,0,0,1,1,2,1,RightButton_2,9dot2.png,Greater,Smaller,RightButton_2,,,,,,,,,,,,,,,,,,,,,,,,,,,,,,,,,,,,,,,,,,,,,
,,,,,,,,,,,,,,,,,,,,,,,,,,,,,,,R_73JC3XxCdLeJrlD,1,2024-04-09_19h19.47.506,interaction task,2021.2.3,Win32,59.17159763,120370,,,"[""RightButton_2""]",0.276720351,-0.3203125,1,0,0,0,2,2,0,1,RightButton_2,11dot2.png,Smaller,Greater,RightButton_2,,,,,,,,,,,,,,,,,,,,,,,,,,,,,,,,,,,,,,,,,,,,,
,,,,,,,,,,,,,,,,,,,,,,,,,,,,,,,R_73JC3XxCdLeJrlD,1,2024-04-09_19h19.47.506,interaction task,2021.2.3,Win32,59.17159763,120370,,,,,,,,,,,,,,,,Greater,Smaller,,0.4,0.257686676,-0.484375,1,0,0,RightButton,"[""RightButton""]",,,,,,,69,21.4859,space,1.744,98,24.7647,,,,,,0,0,0,0,1,3,only_sub_wrong.png,2,RandomDot39.png,No answer,20,,,,,,,,,
,,,,,,,,,,,,,,,,,,,,,,,,,,,,,,,R_73JC3XxCdLeJrlD,1,2024-04-09_19h19.47.506,interaction task,2021.2.3,Win32,59.17159763,120370,,,,,,,,,,,,,,,,Smaller,Greater,,,-0.300146413,-0.536458333,1,0,0,LeftButton,"[""LeftButton""]",99,2.9855,space,,,,,,,,,,,,,,,0,1,1,1,1,3,only_sub_wrong.png,0,RandomDot26.png,No answer,19,1.3729,,,,,,,,
,,,,,,,,,,,,,,,,,,,,,,,,,,,,,,,R_73JC3XxCdLeJrlD,1,2024-04-09_19h19.47.506,interaction task,2021.2.3,Win32,59.17159763,120370,,,,,,,,,,,,,,,,Greater,Smaller,,,0.358711567,-0.533854167,1,0,0,RightButton,"[""RightButton""]",,,,,,,21,8.138,space,0.8589,90,11.6885,,,,,,0,2,2,2,1,2,only_sub_right.png,2,RandomDot16.png,No answer,20,,,,,,,,,
,,,,,,,,,,,,,,,,,,,,,,,,,,,,,,,R_73JC3XxCdLeJrlD,1,2024-04-09_19h19.47.506,interaction task,2021.2.3,Win32,59.17159763,120370,,,,,,,,,,,,,,,,Smaller,Greater,,,-0.319180088,-0.5234375,1,0,0,LeftButton,"[""LeftButton""]",60,2.7069,space,,,,,,,,,,,,,,,0,3,3,3,1,1,both_wrong.png,0,RandomDot34.png,No answer,19,1.584,,,,,,,,
,,,,,,,,,,,,,,,,,,,,,,,,,,,,,,,R_73JC3XxCdLeJrlD,1,2024-04-09_19h19.47.506,interaction task,2021.2.3,Win32,59.17159763,120370,,,,,,,,,,,,,,,,Greater,Smaller,,,0.325036603,-0.520833333,1,0,0,RightButton,"[""RightButton""]",,,,,,,,,,,,,,,,,,0,4,4,4,1,0,both_right.png,0,RandomDot2.png,No answer,19,,,,,,,,,
,,,,,,,,,,,,,,,,,,,,,,,,,,,,,,,R_73JC3XxCdLeJrlD,1,2024-04-09_19h19.47.506,interaction task,2021.2.3,Win32,59.17159763,120370,,,,,,,,,,,,,,,,Smaller,Greater,,,-0.342606149,-0.572916667,0,0,0,,[],,,,,,,,,,,,,,,,,,0,5,5,5,1,2,only_sub_right.png,1,RandomDot25.png,No answer,19,,116,,,,,,,
,,,,,,,,,,,,,,,,,,,,,,,,,,,,,,,R_73JC3XxCdLeJrlD,1,2024-04-09_19h19.47.506,interaction task,2021.2.3,Win32,59.17159763,120370,,,,,,,,,,,,,,,,Smaller,Greater,,,-0.297218155,-0.544270833,1,0,0,LeftButton,"[""LeftButton""]",30,3.0183,space,,,,,,,,,,,,,,,0,6,6,6,1,2,only_sub_right.png,0,RandomDot39.png,No answer,19,1.4921,,,,,,,,
,,,,,,,,,,,,,,,,,,,,,,,,,,,,,,,R_73JC3XxCdLeJrlD,1,2024-04-09_19h19.47.506,interaction task,2021.2.3,Win32,59.17159763,120370,,,,,,,,,,,,,,,,Smaller,Greater,,,-0.29136164,-0.4921875,1,0,0,LeftButton,"[""LeftButton""]",,,,,,,,,,,,,,,,,,0,7,7,7,1,0,both_right.png,1,RandomDot5.png,No answer,19,,,,,,,,,
,,,,,,,,,,,,,,,,,,,,,,,,,,,,,,,R_73JC3XxCdLeJrlD,1,2024-04-09_19h19.47.506,interaction task,2021.2.3,Win32,59.17159763,120370,,,,,,,,,,,,,,,,Smaller,Greater,,,-0.273792094,-0.526041667,1,0,0,LeftButton,"[""LeftButton""]",,,,,,,19,3.2392,space,2.172,59,5.7897,,,,,,0,8,8,8,1,2,only_sub_right.png,2,RandomDot8.png,No answer,21,,,,,,,,,
,,,,,,,,,,,,,,,,,,,,,,,,,,,,,,,R_73JC3XxCdLeJrlD,1,2024-04-09_19h19.47.506,interaction task,2021.2.3,Win32,59.17159763,120370,,,,,,,,,,,,,,,,Smaller,Greater,,,-0.279648609,-0.497395833,1,0,0,LeftButton,"[""LeftButton""]",,,,4.989019034,15.7006,space,,,,,,,,,,,,0,9,9,9,1,1,both_wrong.png,1,RandomDot14.png,No answer,20,,,2.0269,,,,,,
,,,,,,,,,,,,,,,,,,,,,,,,,,,,,,,R_73JC3XxCdLeJrlD,1,2024-04-09_19h19.47.506,interaction task,2021.2.3,Win32,59.17159763,120370,,,,,,,,,,,,,,,,Smaller,Greater,,,0.257686676,-0.5234375,1,0,0,RightButton,"[""RightButton""]",,,,,,,,,,,,,49.26054099,6.215,space,30.77406569,9.724,0,10,10,10,1,3,only_sub_wrong.png,3,RandomDot22.png,No answer,21,,,,0.8639,,,,,
,,,,,,,,,,,,,,,,,,,,,,,,,,,,,,,R_73JC3XxCdLeJrlD,1,2024-04-09_19h19.47.506,interaction task,2021.2.3,Win32,59.17159763,120370,,,,,,,,,,,,,,,,Smaller,Greater,,,0.295754026,-0.4609375,1,0,0,RightButton,"[""RightButton""]",99,2.9396,space,,,,,,,,,,,,,,,0,11,11,11,1,1,both_wrong.png,0,RandomDot14.png,No answer,21,2.542,,,,,,,,
,,,,,,,,,,,,,,,,,,,,,,,,,,,,,,,R_73JC3XxCdLeJrlD,1,2024-04-09_19h19.47.506,interaction task,2021.2.3,Win32,59.17159763,120370,,,,,,,,,,,,,,,,Smaller,Greater,,,-0.327964861,-0.513020833,1,0,0,LeftButton,"[""LeftButton""]",,,,4.945095168,4.2312,space,,,,,,,,,,,,0,12,12,12,1,3,only_sub_wrong.png,1,RandomDot22.png,No answer,20,,,0.8538,,,,,,
,,,,,,,,,,,,,,,,,,,,,,,,,,,,,,,R_73JC3XxCdLeJrlD,1,2024-04-09_19h19.47.506,interaction task,2021.2.3,Win32,59.17159763,120370,,,,,,,,,,,,,,,,Smaller,Greater,,,-0.310395315,-0.502604167,1,0,0,LeftButton,"[""LeftButton""]",,,,4.93045388,3.6993,space,,,,,,,,,,,,0,13,13,13,1,1,both_wrong.png,1,RandomDot10.png,No answer,19,,,1.0465,,,,,,
,,,,,,,,,,,,,,,,,,,,,,,,,,,,,,,R_73JC3XxCdLeJrlD,1,2024-04-09_19h19.47.506,interaction task,2021.2.3,Win32,59.17159763,120370,,,,,,,,,,,,,,,,Smaller,Greater,,,-0.332357247,-0.4921875,1,0,0,LeftButton,"[""LeftButton""]",100,2.1823,space,,,,,,,,,,,,,,,0,14,14,14,1,1,both_wrong.png,0,RandomDot28.png,No answer,19,1.161,,,,,,,,
,,,,,,,,,,,,,,,,,,,,,,,,,,,,,,,R_73JC3XxCdLeJrlD,1,2024-04-09_19h19.47.506,interaction task,2021.2.3,Win32,59.17159763,120370,,,,,,,,,,,,,,,,Greater,Smaller,,,0.325036603,-0.4921875,1,0,0,RightButton,"[""RightButton""]",,,,,,,,,,,,,,,,,,0,15,15,15,1,0,both_right.png,2,RandomDot39.png,No answer,20,,,,,,,,,
,,,,,,,,,,,,,,,,,,,,,,,,,,,,,,,R_73JC3XxCdLeJrlD,1,2024-04-09_19h19.47.506,interaction task,2021.2.3,Win32,59.17159763,120370,,,,,,,,,,,,,,,,Smaller,Greater,,,-0.295754026,-0.489583333,1,0,0,LeftButton,"[""LeftButton""]",21,2.6778,space,,,,,,,,,,,,,,,0,16,16,16,1,2,only_sub_right.png,0,RandomDot37.png,No answer,21,1.5169,,,,,,,,
,,,,,,,,,,,,,,,,,,,,,,,,,,,,,,,R_73JC3XxCdLeJrlD,1,2024-04-09_19h19.47.506,interaction task,2021.2.3,Win32,59.17159763,120370,,,,,,,,,,,,,,,,Smaller,Greater,,,-0.339677892,-0.528645833,1,0,0,LeftButton,"[""LeftButton""]",,,,,,,,,,,,,,,,,,0,17,17,17,1,5,both_right.png,10,RandomDot42.png,LeftButton,21,,,,,,,,,
,,,,,,,,,,,,,,,,,,,,,,,,,,,,,,,R_73JC3XxCdLeJrlD,1,2024-04-09_19h19.47.506,interaction task,2021.2.3,Win32,59.17159763,120370,,,,,,,,,,,,,,,,Smaller,Greater,,,0.308931186,-0.497395833,1,0,0,RightButton,"[""RightButton""]",,,,,,,,,,,,,71.44431134,3.2891,space,28.11201325,6.4542,0,18,18,18,1,1,both_wrong.png,3,RandomDot12.png,No answer,19,,,,0.8738,,,,,
,,,,,,,,,,,,,,,,,,,,,,,,,,,,,,,R_73JC3XxCdLeJrlD,1,2024-04-09_19h19.47.506,interaction task,2021.2.3,Win32,59.17159763,120370,,,,,,,,,,,,,,,,Greater,Smaller,,,0.301610542,-0.486979167,1,0,0,RightButton,"[""RightButton""]",100,1.6525,space,,,,,,,,,,,,,,,0,19,19,19,1,3,only_sub_wrong.png,0,RandomDot15.png,No answer,20,1.0885,,,,,,,,
,,,,,,,,,,,,,,,,,,,,,,,,,,,,,,,R_73JC3XxCdLeJrlD,1,2024-04-09_19h19.47.506,interaction task,2021.2.3,Win32,59.17159763,120370,,,,,,,,,,,,,,,,Smaller,Greater,,,-0.238653001,-0.466145833,1,0,0,LeftButton,"[""LeftButton""]",,,,4.989019034,4.0321,space,,,,,,,,,,,,0,20,20,20,1,2,only_sub_right.png,1,RandomDot14.png,No answer,20,,,1.0359,,,,,,
,,,,,,,,,,,,,,,,,,,,,,,,,,,,,,,R_73JC3XxCdLeJrlD,1,2024-04-09_19h19.47.506,interaction task,2021.2.3,Win32,59.17159763,120370,,,,,,,,,,,,,,,,Smaller,Greater,,,0.292825769,-0.484375,1,0,0,RightButton,"[""RightButton""]",,,,,,,,,,,,,61.23977698,3.2133,space,50,4.9874,0,21,21,21,1,1,both_wrong.png,3,RandomDot23.png,No answer,20,,,,0.7649,,,,,
,,,,,,,,,,,,,,,,,,,,,,,,,,,,,,,R_73JC3XxCdLeJrlD,1,2024-04-09_19h19.47.506,interaction task,2021.2.3,Win32,59.17159763,120370,,,,,,,,,,,,,,,,Smaller,Greater,,,0.36749634,-0.484375,1,0,0,RightButton,"[""RightButton""]",,,,,,,,,,,,,69.52171791,5.3678,space,21.90055755,6.9486,0,22,22,22,1,2,only_sub_right.png,3,RandomDot31.png,No answer,19,,,,0.7679,,,,,
,,,,,,,,,,,,,,,,,,,,,,,,,,,,,,,R_73JC3XxCdLeJrlD,1,2024-04-09_19h19.47.506,interaction task,2021.2.3,Win32,59.17159763,120370,,,,,,,,,,,,,,,,Smaller,Greater,,,-0.306002928,-0.466145833,1,0,0,LeftButton,"[""LeftButton""]",31,3.2139,space,,,,,,,,,,,,,,,0,23,23,23,1,2,only_sub_right.png,0,RandomDot21.png,No answer,21,0.9242,,,,,,,,
,,,,,,,,,,,,,,,,,,,,,,,,,,,,,,,R_73JC3XxCdLeJrlD,1,2024-04-09_19h19.47.506,interaction task,2021.2.3,Win32,59.17159763,120370,,,,,,,,,,,,,,,,Greater,Smaller,,,0.251830161,-0.4921875,1,0,0,RightButton,"[""RightButton""]",,,,,,,,,,,,,,,,,,0,24,24,24,1,0,both_right.png,3,RandomDot3.png,No answer,20,,,,,,,,,
,,,,,,,,,,,,,,,,,,,,,,,,,,,,,,,R_73JC3XxCdLeJrlD,1,2024-04-09_19h19.47.506,interaction task,2021.2.3,Win32,59.17159763,120370,,,,,,,,,,,,,,,,Smaller,Greater,,,0.259150805,-0.471354167,1,0,0,RightButton,"[""RightButton""]",,,,,,,98,3.7189,space,0.9178,70,5.7762,,,,,,0,25,25,25,1,3,only_sub_wrong.png,2,RandomDot17.png,No answer,19,,,,,,,,,
,,,,,,,,,,,,,,,,,,,,,,,,,,,,,,,R_73JC3XxCdLeJrlD,1,2024-04-09_19h19.47.506,interaction task,2021.2.3,Win32,59.17159763,120370,,,,,,,,,,,,,,,,Smaller,Greater,,,0.317715959,-0.466145833,1,0,0,RightButton,"[""RightButton""]",,,,,,,,,,,,,47.04216395,3.4794,space,77.21209163,6.6007,0,26,26,26,1,3,only_sub_wrong.png,3,RandomDot36.png,No answer,21,,,,1.6072,,,,,
,,,,,,,,,,,,,,,,,,,,,,,,,,,,,,,R_73JC3XxCdLeJrlD,1,2024-04-09_19h19.47.506,interaction task,2021.2.3,Win32,59.17159763,120370,,,,,,,,,,,,,,,,Greater,Smaller,,,-0.304538799,-0.466145833,1,0,0,LeftButton,"[""LeftButton""]",,,,,,,49,2.4823,space,0.646,80,3.6483,,,,,,0,27,27,27,1,1,both_wrong.png,2,RandomDot10.png,No answer,20,,,,,,,,,
,,,,,,,,,,,,,,,,,,,,,,,,,,,,,,,R_73JC3XxCdLeJrlD,1,2024-04-09_19h19.47.506,interaction task,2021.2.3,Win32,59.17159763,120370,,,,,,,,,,,,,,,,Smaller,Greater,,,0.32942899,-0.518229167,1,0,0,RightButton,"[""RightButton""]",,,,,,,70,2.4147,space,0.598,32,4.1063,,,,,,0,28,28,28,1,1,both_wrong.png,2,RandomDot19.png,No answer,19,,,,,,,,,
,,,,,,,,,,,,,,,,,,,,,,,,,,,,,,,R_73JC3XxCdLeJrlD,1,2024-04-09_19h19.47.506,interaction task,2021.2.3,Win32,59.17159763,120370,,,,,,,,,,,,,,,,Greater,Smaller,,,0.338213763,-0.518229167,1,0,0,RightButton,"[""RightButton""]",,,,,,,,,,,,,70.70485233,3.4017,space,40.23914104,6.0746,0,29,29,29,1,1,both_wrong.png,3,RandomDot13.png,No answer,21,,,,1.147,,,,,
,,,,,,,,,,,,,,,,,,,,,,,,,,,,,,,R_73JC3XxCdLeJrlD,1,2024-04-09_19h19.47.506,interaction task,2021.2.3,Win32,59.17159763,120370,,,,,,,,,,,,,,,,Smaller,Greater,,,-0.281112738,-0.4609375,1,0,0,LeftButton,"[""LeftButton""]",,,,4.886530015,5.2645,space,,,,,,,,,,,,0,30,30,30,1,3,only_sub_wrong.png,1,RandomDot6.png,No answer,21,,,1.1681,,,,,,
,,,,,,,,,,,,,,,,,,,,,,,,,,,,,,,R_73JC3XxCdLeJrlD,1,2024-04-09_19h19.47.506,interaction task,2021.2.3,Win32,59.17159763,120370,,,,,,,,,,,,,,,,Smaller,Greater,,,-0.281112738,-0.4609375,1,0,0,LeftButton,"[""LeftButton""]",,,,4.989019034,3.7439,space,,,,,,,,,,,,0,31,31,31,1,1,both_wrong.png,1,RandomDot13.png,No answer,19,,,1.2239,,,,,,
,,,,,,,,,,,,,,,,,,,,,,,,,,,,,,,R_73JC3XxCdLeJrlD,1,2024-04-09_19h19.47.506,interaction task,2021.2.3,Win32,59.17159763,120370,,,,,,,,,,,,,,,,Smaller,Greater,,,-0.319180088,-0.552083333,0,0,0,,[],,,,,,,,,,,,,,,,,,0,32,32,32,1,1,both_wrong.png,2,RandomDot21.png,No answer,20,,81,,,,,,,
,,,,,,,,,,,,,,,,,,,,,,,,,,,,,,,R_73JC3XxCdLeJrlD,1,2024-04-09_19h19.47.506,interaction task,2021.2.3,Win32,59.17159763,120370,,,,,,,,,,,,,,,,Smaller,Greater,,,0.303074671,-0.518229167,1,0,0,RightButton,"[""RightButton""]",,,,,,,20,3.4992,space,1.0009,26,6.3395,,,,,,0,33,33,33,1,2,only_sub_right.png,2,RandomDot22.png,No answer,19,,,,,,,,,
,,,,,,,,,,,,,,,,,,,,,,,,,,,,,,,R_73JC3XxCdLeJrlD,1,2024-04-09_19h19.47.506,interaction task,2021.2.3,Win32,59.17159763,120370,,,,,,,,,,,,,,,,Greater,Smaller,,,0.288433382,-0.4921875,1,0,0,RightButton,"[""RightButton""]",77,2.4133,space,,,,,,,,,,,,,,,0,34,34,34,1,3,only_sub_wrong.png,0,RandomDot24.png,No answer,20,0.9099,,,,,,,,
,,,,,,,,,,,,,,,,,,,,,,,,,,,,,,,R_73JC3XxCdLeJrlD,1,2024-04-09_19h19.47.506,interaction task,2021.2.3,Win32,59.17159763,120370,,,,,,,,,,,,,,,,Smaller,Greater,,,0.254758419,-0.479166667,1,0,0,RightButton,"[""RightButton""]",,,,4.871888726,1.4852,space,,,,,,,,,,,,0,35,35,35,1,2,only_sub_right.png,1,RandomDot15.png,No answer,19,,,1.7429,,,,,,
,,,,,,,,,,,,,,,,,,,,,,,,,,,,,,,R_73JC3XxCdLeJrlD,1,2024-04-09_19h19.47.506,interaction task,2021.2.3,Win32,59.17159763,120370,,,,,,,,,,,,,,,,Smaller,Greater,,,0.292825769,-0.5234375,1,0,0,RightButton,"[""RightButton""]",,,,,,,,,,,,,,,,,,0,36,36,36,1,4,both_right.png,10,RandomDot41.png,RightButton,5,,,,,,,,,
,,,,,,,,,,,,,,,,,,,,,,,,,,,,,,,R_73JC3XxCdLeJrlD,1,2024-04-09_19h19.47.506,interaction task,2021.2.3,Win32,59.17159763,120370,,,,,,,,,,,,,,,,Greater,Smaller,,,-0.29136164,-0.544270833,1,0,0,LeftButton,"[""LeftButton""]",,,,,,,,,,,,,9.329754352,3.3222,space,12.4354822,4.4559,0,37,37,37,1,2,only_sub_right.png,3,RandomDot36.png,No answer,20,,,,0.8711,,,,,
,,,,,,,,,,,,,,,,,,,,,,,,,,,,,,,R_73JC3XxCdLeJrlD,1,2024-04-09_19h19.47.506,interaction task,2021.2.3,Win32,59.17159763,120370,,,,,,,,,,,,,,,,Greater,Smaller,,,0.304538799,-0.4609375,1,0,0,RightButton,"[""RightButton""]",,,,4.945095168,2.554,space,,,,,,,,,,,,0,38,38,38,1,3,only_sub_wrong.png,1,RandomDot8.png,No answer,21,,,1.1455,,,,,,
,,,,,,,,,,,,,,,,,,,,,,,,,,,,,,,R_73JC3XxCdLeJrlD,1,2024-04-09_19h19.47.506,interaction task,2021.2.3,Win32,59.17159763,120370,,,,,,,,,,,,,,,,Smaller,Greater,,,0.295754026,-0.536458333,1,0,0,RightButton,"[""RightButton""]",,,,,,,97,2.6288,space,0.96,30,4.4229,,,,,,0,39,39,39,1,3,only_sub_wrong.png,2,RandomDot22.png,No answer,19,,,,,,,,,
,,,,,,,,,,,,,,,,,,,,,,,,,,,,,,,R_73JC3XxCdLeJrlD,1,2024-04-09_19h19.47.506,interaction task,2021.2.3,Win32,59.17159763,120370,,,,,,,,,,,,,,,,Smaller,Greater,,,-0.219619327,-0.53125,1,0,0,LeftButton,"[""LeftButton""]",,,,,,,,,,,,,63.60604582,3.2768,space,22.93580017,4.4193,0,40,40,40,1,2,only_sub_right.png,3,RandomDot8.png,No answer,19,,,,0.8756,,,,,
,,,,,,,,,,,,,,,,,,,,,,,,,,,,,,,R_73JC3XxCdLeJrlD,1,2024-04-09_19h19.47.506,interaction task,2021.2.3,Win32,59.17159763,120370,,,,,,,,,,,,,,,,Smaller,Greater,,,0.330893119,-0.510416667,1,0,0,RightButton,"[""RightButton""]",,,,,,,,,,,,,40.68281645,4.6865,space,73.51479657,5.936,0,41,41,41,1,3,only_sub_wrong.png,3,RandomDot38.png,No answer,20,,,,0.8991,,,,,
,,,,,,,,,,,,,,,,,,,,,,,,,,,,,,,R_73JC3XxCdLeJrlD,1,2024-04-09_19h19.47.506,interaction task,2021.2.3,Win32,59.17159763,120370,,,,,,,,,,,,,,,,Smaller,Greater,,,-0.330893119,-0.536458333,1,0,0,LeftButton,"[""LeftButton""]",,,,,,,96,2.1753,space,1.0671,26,4.9448,,,,,,,,,,,1,both_wrong.png,2,RandomDot21.png,No answer,20,,,,,0,0,0,1,1
,,,,,,,,,,,,,,,,,,,,,,,,,,,,,,,R_73JC3XxCdLeJrlD,1,2024-04-09_19h19.47.506,interaction task,2021.2.3,Win32,59.17159763,120370,,,,,,,,,,,,,,,,Smaller,Greater,,,0.241581259,-0.505208333,1,0,0,RightButton,"[""RightButton""]",,,,4.93045388,2.6677,space,,,,,,,,,,,,,,,,,2,only_sub_right.png,1,RandomDot25.png,No answer,19,,,0.8726,,0,1,1,0,1
