choose_trial,key_resp.keys,key_resp.rt,key_resp_4.keys,key_resp_4.rt,session_trait,slider_face_judge.response,slider_face_judge.rt,key_resp_3.keys,key_resp_3.rt,face_loop.thisRepN,face_loop.thisTrialN,face_loop.thisN,face_loop.thisIndex,face_loop.ran,face_serial,image_name,isCheck,answer,check_question,participant,session,date,expName,psychopyVersion,OS,frameRate,SONAid,session.thisRepN,session.thisTrialN,session.thisN,session.thisIndex,session.ran,session_serial,slider_judge_img
"[0,1,2,3,4,5,6,7,8,9,10,11,12,13,14,15,16,17,18,19,20,21,22,23,24,25,26,27,28,29,30,31,32,33,34,35,36,37,38,39,40,41,42,43,44,45,46,47,48,49,56,50,53]",space,7.0531,space,22.5631,critical,5.0234375,9.7959,space,1.2083,0,0,0,12,1,13,image/13.jpg,0,0,,R_742eAVEWlciGtQU,2,2024-05-31_18h28.59.804,face trait task,2021.2.3,Win32,59.88023952,120825,,,,,,,
,,,,,,2.9921875,7.4255,space,1.8821,0,1,1,14,1,15,image/15.jpg,0,0,,R_742eAVEWlciGtQU,2,2024-05-31_18h28.59.804,face trait task,2021.2.3,Win32,59.88023952,120825,,,,,,,
,,,,,,4.53125,5.5298,space,1.464,0,2,2,7,1,8,image/8.jpg,0,0,,R_742eAVEWlciGtQU,2,2024-05-31_18h28.59.804,face trait task,2021.2.3,Win32,59.88023952,120825,,,,,,,
,,,,,,2.9296875,4.6396,space,1.2826,0,3,3,4,1,5,image/5.jpg,0,0,,R_742eAVEWlciGtQU,2,2024-05-31_18h28.59.804,face trait task,2021.2.3,Win32,59.88023952,120825,,,,,,,
,,,,,,4.921875,5.7717,space,0.8056,0,4,4,33,1,34,image/34.jpg,0,0,,R_742eAVEWlciGtQU,2,2024-05-31_18h28.59.804,face trait task,2021.2.3,Win32,59.88023952,120825,,,,,,,
,,,,,,4.6875,6.2961,space,2.4975,0,5,5,3,1,4,image/4.jpg,0,0,,R_742eAVEWlciGtQU,2,2024-05-31_18h28.59.804,face trait task,2021.2.3,Win32,59.88023952,120825,,,,,,,
,,,,,,3.21875,7.1782,space,1.5944,0,6,6,15,1,16,image/16.jpg,0,0,,R_742eAVEWlciGtQU,2,2024-05-31_18h28.59.804,face trait task,2021.2.3,Win32,59.88023952,120825,,,,,,,
,,,,,,2.6171875,7.3136,space,2.5724,0,7,7,2,1,3,image/3.jpg,0,0,,R_742eAVEWlciGtQU,2,2024-05-31_18h28.59.804,face trait task,2021.2.3,Win32,59.88023952,120825,,,,,,,
,,,,,,3.84375,7.1794,space,3.1549,0,8,8,17,1,18,image/18.jpg,0,0,,R_742eAVEWlciGtQU,2,2024-05-31_18h28.59.804,face trait task,2021.2.3,Win32,59.88023952,120825,,,,,,,
,,,,,,5.109375,3.9338,space,1.2704,0,9,9,25,1,26,image/26.jpg,0,0,,R_742eAVEWlciGtQU,2,2024-05-31_18h28.59.804,face trait task,2021.2.3,Win32,59.88023952,120825,,,,,,,
,,,,,,3.96875,4.422,space,0.5001,0,10,10,36,1,37,image/37.jpg,0,0,,R_742eAVEWlciGtQU,2,2024-05-31_18h28.59.804,face trait task,2021.2.3,Win32,59.88023952,120825,,,,,,,
,,,,,,4.1875,7.0174,space,0.6196,0,11,11,1,1,2,image/2.jpg,0,0,,R_742eAVEWlciGtQU,2,2024-05-31_18h28.59.804,face trait task,2021.2.3,Win32,59.88023952,120825,,,,,,,
,,,,,,4.5859375,7.4246,space,0.7488,0,12,12,32,1,33,image/33.jpg,0,0,,R_742eAVEWlciGtQU,2,2024-05-31_18h28.59.804,face trait task,2021.2.3,Win32,59.88023952,120825,,,,,,,
,,,,,,5.0625,5.6004,space,0.883,0,13,13,26,1,27,image/27.jpg,0,0,,R_742eAVEWlciGtQU,2,2024-05-31_18h28.59.804,face trait task,2021.2.3,Win32,59.88023952,120825,,,,,,,
,,,,,,4.859375,3.2969,space,1.2332,0,14,14,37,1,38,image/38.jpg,0,0,,R_742eAVEWlciGtQU,2,2024-05-31_18h28.59.804,face trait task,2021.2.3,Win32,59.88023952,120825,,,,,,,
,,,,,,5.171875,4.3679,space,0.7493,0,15,15,27,1,28,image/28.jpg,0,0,,R_742eAVEWlciGtQU,2,2024-05-31_18h28.59.804,face trait task,2021.2.3,Win32,59.88023952,120825,,,,,,,
,,,,,,5.6796875,3.6152,space,0.6151,0,16,16,30,1,31,image/31.jpg,0,0,,R_742eAVEWlciGtQU,2,2024-05-31_18h28.59.804,face trait task,2021.2.3,Win32,59.88023952,120825,,,,,,,
,,,,,,4.796875,3.3916,space,0.9348,0,17,17,31,1,32,image/32.jpg,0,0,,R_742eAVEWlciGtQU,2,2024-05-31_18h28.59.804,face trait task,2021.2.3,Win32,59.88023952,120825,,,,,,,
,,,,,,4.6640625,3.5215,space,1.6259,0,18,18,48,1,49,image/49.jpg,0,0,,R_742eAVEWlciGtQU,2,2024-05-31_18h28.59.804,face trait task,2021.2.3,Win32,59.88023952,120825,,,,,,,
,,,,,,4.34375,3.7318,space,1.0501,0,19,19,5,1,6,image/6.jpg,0,0,,R_742eAVEWlciGtQU,2,2024-05-31_18h28.59.804,face trait task,2021.2.3,Win32,59.88023952,120825,,,,,,,
,,,,,,4.7265625,6.4472,space,0.3802,0,20,20,9,1,10,image/10.jpg,0,0,,R_742eAVEWlciGtQU,2,2024-05-31_18h28.59.804,face trait task,2021.2.3,Win32,59.88023952,120825,,,,,,,
,,,,,,4.5390625,4.43,space,0.4907,0,21,21,41,1,42,image/42.jpg,0,0,,R_742eAVEWlciGtQU,2,2024-05-31_18h28.59.804,face trait task,2021.2.3,Win32,59.88023952,120825,,,,,,,
,,,,,,4.1875,4.2261,space,1.3998,0,22,22,28,1,29,image/29.jpg,0,0,,R_742eAVEWlciGtQU,2,2024-05-31_18h28.59.804,face trait task,2021.2.3,Win32,59.88023952,120825,,,,,,,
,,,,,,5.2421875,3.0619,space,0.6533,0,23,23,40,1,41,image/41.jpg,0,0,,R_742eAVEWlciGtQU,2,2024-05-31_18h28.59.804,face trait task,2021.2.3,Win32,59.88023952,120825,,,,,,,
,,,,,,5.2109375,3.3726,space,1.3424,0,24,24,16,1,17,image/17.jpg,0,0,,R_742eAVEWlciGtQU,2,2024-05-31_18h28.59.804,face trait task,2021.2.3,Win32,59.88023952,120825,,,,,,,
,,,,,,4.1484375,5.2491,space,0.9832,0,25,25,35,1,36,image/36.jpg,0,0,,R_742eAVEWlciGtQU,2,2024-05-31_18h28.59.804,face trait task,2021.2.3,Win32,59.88023952,120825,,,,,,,
,,,,,,3.9140625,4.2143,space,0.7077,0,26,26,44,1,45,image/45.jpg,0,0,,R_742eAVEWlciGtQU,2,2024-05-31_18h28.59.804,face trait task,2021.2.3,Win32,59.88023952,120825,,,,,,,
,,,,,,6.984375,5.252,space,0.999,0,27,27,50,1,57,image/fill_img.png,1,7,Please move the slider all the way to the RIGHT to show that you are paying attention.,R_742eAVEWlciGtQU,2,2024-05-31_18h28.59.804,face trait task,2021.2.3,Win32,59.88023952,120825,,,,,,,
,,,,,,4.3046875,5.8309,space,3.1412,0,28,28,21,1,22,image/22.jpg,0,0,,R_742eAVEWlciGtQU,2,2024-05-31_18h28.59.804,face trait task,2021.2.3,Win32,59.88023952,120825,,,,,,,
,,,,,,3.859375,4.7874,space,0.54,0,29,29,22,1,23,image/23.jpg,0,0,,R_742eAVEWlciGtQU,2,2024-05-31_18h28.59.804,face trait task,2021.2.3,Win32,59.88023952,120825,,,,,,,
,,,,,,4.1015625,2.6507,space,0.8675,0,30,30,46,1,47,image/47.jpg,0,0,,R_742eAVEWlciGtQU,2,2024-05-31_18h28.59.804,face trait task,2021.2.3,Win32,59.88023952,120825,,,,,,,
,,,,,,4.9921875,12.2109,space,3.2469,0,31,31,42,1,43,image/43.jpg,0,0,,R_742eAVEWlciGtQU,2,2024-05-31_18h28.59.804,face trait task,2021.2.3,Win32,59.88023952,120825,,,,,,,
,,,,,,1.0234375,4.7847,space,0.76,0,32,32,51,1,51,image/fill_img.png,1,1,Please move the slider all the way to the LEFT to show that you are paying attention.,R_742eAVEWlciGtQU,2,2024-05-31_18h28.59.804,face trait task,2021.2.3,Win32,59.88023952,120825,,,,,,,
,,,,,,4.8671875,3.6875,space,0.3822,0,33,33,10,1,11,image/11.jpg,0,0,,R_742eAVEWlciGtQU,2,2024-05-31_18h28.59.804,face trait task,2021.2.3,Win32,59.88023952,120825,,,,,,,
,,,,,,5.046875,3.2834,space,0.5015,0,34,34,47,1,48,image/48.jpg,0,0,,R_742eAVEWlciGtQU,2,2024-05-31_18h28.59.804,face trait task,2021.2.3,Win32,59.88023952,120825,,,,,,,
,,,,,,4.9296875,5.7533,space,0.4093,0,35,35,19,1,20,image/20.jpg,0,0,,R_742eAVEWlciGtQU,2,2024-05-31_18h28.59.804,face trait task,2021.2.3,Win32,59.88023952,120825,,,,,,,
,,,,,,3.8984375,5.031,space,0.3689,0,36,36,49,1,50,image/50.jpg,0,0,,R_742eAVEWlciGtQU,2,2024-05-31_18h28.59.804,face trait task,2021.2.3,Win32,59.88023952,120825,,,,,,,
,,,,,,4.2578125,5.906,space,0.6877,0,37,37,13,1,14,image/14.jpg,0,0,,R_742eAVEWlciGtQU,2,2024-05-31_18h28.59.804,face trait task,2021.2.3,Win32,59.88023952,120825,,,,,,,
,,,,,,4.203125,7.9471,space,0.276,0,38,38,6,1,7,image/7.jpg,0,0,,R_742eAVEWlciGtQU,2,2024-05-31_18h28.59.804,face trait task,2021.2.3,Win32,59.88023952,120825,,,,,,,
,,,,,,4.7421875,2.7262,space,0.5401,0,39,39,45,1,46,image/46.jpg,0,0,,R_742eAVEWlciGtQU,2,2024-05-31_18h28.59.804,face trait task,2021.2.3,Win32,59.88023952,120825,,,,,,,
,,,,,,3.875,4.903,space,0.7923,0,40,40,23,1,24,image/24.jpg,0,0,,R_742eAVEWlciGtQU,2,2024-05-31_18h28.59.804,face trait task,2021.2.3,Win32,59.88023952,120825,,,,,,,
,,,,,,4.1484375,2.9531,space,1.1515,0,41,41,29,1,30,image/30.jpg,0,0,,R_742eAVEWlciGtQU,2,2024-05-31_18h28.59.804,face trait task,2021.2.3,Win32,59.88023952,120825,,,,,,,
,,,,,,5.1015625,2.5984,space,0.4106,0,42,42,38,1,39,image/39.jpg,0,0,,R_742eAVEWlciGtQU,2,2024-05-31_18h28.59.804,face trait task,2021.2.3,Win32,59.88023952,120825,,,,,,,
,,,,,,4.96875,6.2204,space,0.6819,0,43,43,34,1,35,image/35.jpg,0,0,,R_742eAVEWlciGtQU,2,2024-05-31_18h28.59.804,face trait task,2021.2.3,Win32,59.88023952,120825,,,,,,,
,,,,,,4.5859375,5.6978,space,0.7379,0,44,44,18,1,19,image/19.jpg,0,0,,R_742eAVEWlciGtQU,2,2024-05-31_18h28.59.804,face trait task,2021.2.3,Win32,59.88023952,120825,,,,,,,
,,,,,,4.9921875,4.5348,space,0.3368,0,45,45,39,1,40,image/40.jpg,0,0,,R_742eAVEWlciGtQU,2,2024-05-31_18h28.59.804,face trait task,2021.2.3,Win32,59.88023952,120825,,,,,,,
,,,,,,3.8671875,3.0099,space,0.3553,0,46,46,11,1,12,image/12.jpg,0,0,,R_742eAVEWlciGtQU,2,2024-05-31_18h28.59.804,face trait task,2021.2.3,Win32,59.88023952,120825,,,,,,,
,,,,,,4.09375,4.3822,space,0.3969,0,47,47,20,1,21,image/21.jpg,0,0,,R_742eAVEWlciGtQU,2,2024-05-31_18h28.59.804,face trait task,2021.2.3,Win32,59.88023952,120825,,,,,,,
,,,,,,1.015625,3.4304,space,0.2459,0,48,48,52,1,54,image/fill_img.png,1,1,Please move the slider all the way to the LEFT to show that you are paying attention.,R_742eAVEWlciGtQU,2,2024-05-31_18h28.59.804,face trait task,2021.2.3,Win32,59.88023952,120825,,,,,,,
,,,,,,5.078125,2.7601,space,0.342,0,49,49,8,1,9,image/9.jpg,0,0,,R_742eAVEWlciGtQU,2,2024-05-31_18h28.59.804,face trait task,2021.2.3,Win32,59.88023952,120825,,,,,,,
,,,,,,4.6171875,5.2531,space,0.3414,0,50,50,43,1,44,image/44.jpg,0,0,,R_742eAVEWlciGtQU,2,2024-05-31_18h28.59.804,face trait task,2021.2.3,Win32,59.88023952,120825,,,,,,,
,,,,,,4.875,5.009,space,0.4945,0,51,51,0,1,1,image/1.jpg,0,0,,R_742eAVEWlciGtQU,2,2024-05-31_18h28.59.804,face trait task,2021.2.3,Win32,59.88023952,120825,,,,,,,
,,,,,,4.03125,8.4453,space,0.3731,0,52,52,24,1,25,image/25.jpg,0,0,,R_742eAVEWlciGtQU,2,2024-05-31_18h28.59.804,face trait task,2021.2.3,Win32,59.88023952,120825,,,,,,,
,,,,,,,,,,,,,,,,,,,,R_742eAVEWlciGtQU,2,2024-05-31_18h28.59.804,face trait task,2021.2.3,Win32,59.88023952,120825,0,0,0,0,1,0,critical.png
,,,,,competent,1.0078125,2.5376,space,0.6545,0,0,0,52,1,54,image/fill_img.png,1,1,Please move the slider all the way to the LEFT to show that you are paying attention.,R_742eAVEWlciGtQU,2,2024-05-31_18h28.59.804,face trait task,2021.2.3,Win32,59.88023952,120825,,,,,,,
,,,,,,6.2578125,17.1941,space,5.5582,0,1,1,11,1,12,image/12.jpg,0,0,,R_742eAVEWlciGtQU,2,2024-05-31_18h28.59.804,face trait task,2021.2.3,Win32,59.88023952,120825,,,,,,,
,,,,,,6.3125,1.4978,space,0.4497,0,2,2,4,1,5,image/5.jpg,0,0,,R_742eAVEWlciGtQU,2,2024-05-31_18h28.59.804,face trait task,2021.2.3,Win32,59.88023952,120825,,,,,,,
,,,,,,6.3125,1.686,space,0.5332,0,3,3,24,1,25,image/25.jpg,0,0,,R_742eAVEWlciGtQU,2,2024-05-31_18h28.59.804,face trait task,2021.2.3,Win32,59.88023952,120825,,,,,,,
,,,,,,3.9921875,8.7793,space,0.5825,0,4,4,0,1,1,image/1.jpg,0,0,,R_742eAVEWlciGtQU,2,2024-05-31_18h28.59.804,face trait task,2021.2.3,Win32,59.88023952,120825,,,,,,,
,,,,,,3.9921875,1.4176,space,0.2883,0,5,5,2,1,3,image/3.jpg,0,0,,R_742eAVEWlciGtQU,2,2024-05-31_18h28.59.804,face trait task,2021.2.3,Win32,59.88023952,120825,,,,,,,
,,,,,,3.9921875,1.2185,space,0.2533,0,6,6,15,1,16,image/16.jpg,0,0,,R_742eAVEWlciGtQU,2,2024-05-31_18h28.59.804,face trait task,2021.2.3,Win32,59.88023952,120825,,,,,,,
,,,,,,3.9921875,2.2511,space,0.3519,0,7,7,27,1,28,image/28.jpg,0,0,,R_742eAVEWlciGtQU,2,2024-05-31_18h28.59.804,face trait task,2021.2.3,Win32,59.88023952,120825,,,,,,,
,,,,,,3.9921875,1.2511,space,0.5403,0,8,8,20,1,21,image/21.jpg,0,0,,R_742eAVEWlciGtQU,2,2024-05-31_18h28.59.804,face trait task,2021.2.3,Win32,59.88023952,120825,,,,,,,
,,,,,,3.9921875,1.5104,space,0.3228,0,9,9,44,1,45,image/45.jpg,0,0,,R_742eAVEWlciGtQU,2,2024-05-31_18h28.59.804,face trait task,2021.2.3,Win32,59.88023952,120825,,,,,,,
,,,,,,3.9921875,1.274,space,0.3569,0,10,10,19,1,20,image/20.jpg,0,0,,R_742eAVEWlciGtQU,2,2024-05-31_18h28.59.804,face trait task,2021.2.3,Win32,59.88023952,120825,,,,,,,
,,,,,,3.9921875,1.5571,space,0.8828,0,11,11,37,1,38,image/38.jpg,0,0,,R_742eAVEWlciGtQU,2,2024-05-31_18h28.59.804,face trait task,2021.2.3,Win32,59.88023952,120825,,,,,,,
,,,,,,3.9921875,1.1475,space,0.7214,0,12,12,25,1,26,image/26.jpg,0,0,,R_742eAVEWlciGtQU,2,2024-05-31_18h28.59.804,face trait task,2021.2.3,Win32,59.88023952,120825,,,,,,,
,,,,,,3.9921875,1.9044,space,0.3422,0,13,13,26,1,27,image/27.jpg,0,0,,R_742eAVEWlciGtQU,2,2024-05-31_18h28.59.804,face trait task,2021.2.3,Win32,59.88023952,120825,,,,,,,
,,,,,,3.9921875,2.1305,space,0.4266,0,14,14,36,1,37,image/37.jpg,0,0,,R_742eAVEWlciGtQU,2,2024-05-31_18h28.59.804,face trait task,2021.2.3,Win32,59.88023952,120825,,,,,,,
,,,,,,3.9921875,1.2752,space,0.4283,0,15,15,45,1,46,image/46.jpg,0,0,,R_742eAVEWlciGtQU,2,2024-05-31_18h28.59.804,face trait task,2021.2.3,Win32,59.88023952,120825,,,,,,,
,,,,,,3.9921875,1.9094,space,0.5845,0,16,16,14,1,15,image/15.jpg,0,0,,R_742eAVEWlciGtQU,2,2024-05-31_18h28.59.804,face trait task,2021.2.3,Win32,59.88023952,120825,,,,,,,
,,,,,,3.9921875,4.082,space,3.8478,0,17,17,12,1,13,image/13.jpg,0,0,,R_742eAVEWlciGtQU,2,2024-05-31_18h28.59.804,face trait task,2021.2.3,Win32,59.88023952,120825,,,,,,,
,,,,,,4.046875,1.1742,space,0.4234,0,18,18,3,1,4,image/4.jpg,0,0,,R_742eAVEWlciGtQU,2,2024-05-31_18h28.59.804,face trait task,2021.2.3,Win32,59.88023952,120825,,,,,,,
,,,,,,4.0234375,1.2206,space,0.492,0,19,19,38,1,39,image/39.jpg,0,0,,R_742eAVEWlciGtQU,2,2024-05-31_18h28.59.804,face trait task,2021.2.3,Win32,59.88023952,120825,,,,,,,
,,,,,,4,1.4211,space,0.5005,0,20,20,30,1,31,image/31.jpg,0,0,,R_742eAVEWlciGtQU,2,2024-05-31_18h28.59.804,face trait task,2021.2.3,Win32,59.88023952,120825,,,,,,,
,,,,,,4.03125,2.102,space,1.4205,0,21,21,17,1,18,image/18.jpg,0,0,,R_742eAVEWlciGtQU,2,2024-05-31_18h28.59.804,face trait task,2021.2.3,Win32,59.88023952,120825,,,,,,,
,,,,,,4.015625,1.4009,space,0.7858,0,22,22,41,1,42,image/42.jpg,0,0,,R_742eAVEWlciGtQU,2,2024-05-31_18h28.59.804,face trait task,2021.2.3,Win32,59.88023952,120825,,,,,,,
,,,,,,4.015625,1.4506,space,0.5333,0,23,23,32,1,33,image/33.jpg,0,0,,R_742eAVEWlciGtQU,2,2024-05-31_18h28.59.804,face trait task,2021.2.3,Win32,59.88023952,120825,,,,,,,
,,,,,,4.0546875,1.5585,space,0.4005,0,24,24,6,1,7,image/7.jpg,0,0,,R_742eAVEWlciGtQU,2,2024-05-31_18h28.59.804,face trait task,2021.2.3,Win32,59.88023952,120825,,,,,,,
,,,,,,4.0546875,1.8684,space,0.4112,0,25,25,23,1,24,image/24.jpg,0,0,,R_742eAVEWlciGtQU,2,2024-05-31_18h28.59.804,face trait task,2021.2.3,Win32,59.88023952,120825,,,,,,,
,,,,,,4,1.8363,space,0.3105,0,26,26,21,1,22,image/22.jpg,0,0,,R_742eAVEWlciGtQU,2,2024-05-31_18h28.59.804,face trait task,2021.2.3,Win32,59.88023952,120825,,,,,,,
,,,,,,4.0390625,1.3227,space,0.8539,0,27,27,31,1,32,image/32.jpg,0,0,,R_742eAVEWlciGtQU,2,2024-05-31_18h28.59.804,face trait task,2021.2.3,Win32,59.88023952,120825,,,,,,,
,,,,,,3.9921875,1.3793,space,0.6498,0,28,28,48,1,49,image/49.jpg,0,0,,R_742eAVEWlciGtQU,2,2024-05-31_18h28.59.804,face trait task,2021.2.3,Win32,59.88023952,120825,,,,,,,
,,,,,,4,1.5319,space,0.7323,0,29,29,43,1,44,image/44.jpg,0,0,,R_742eAVEWlciGtQU,2,2024-05-31_18h28.59.804,face trait task,2021.2.3,Win32,59.88023952,120825,,,,,,,
,,,,,,4.015625,1.097,space,0.4861,0,30,30,39,1,40,image/40.jpg,0,0,,R_742eAVEWlciGtQU,2,2024-05-31_18h28.59.804,face trait task,2021.2.3,Win32,59.88023952,120825,,,,,,,
,,,,,,4.015625,1.1863,space,0.5088,0,31,31,34,1,35,image/35.jpg,0,0,,R_742eAVEWlciGtQU,2,2024-05-31_18h28.59.804,face trait task,2021.2.3,Win32,59.88023952,120825,,,,,,,
,,,,,,4.015625,1.2681,space,0.5028,0,32,32,8,1,9,image/9.jpg,0,0,,R_742eAVEWlciGtQU,2,2024-05-31_18h28.59.804,face trait task,2021.2.3,Win32,59.88023952,120825,,,,,,,
,,,,,,4.015625,1.4803,space,0.659,0,33,33,49,1,50,image/50.jpg,0,0,,R_742eAVEWlciGtQU,2,2024-05-31_18h28.59.804,face trait task,2021.2.3,Win32,59.88023952,120825,,,,,,,
,,,,,,4.015625,1.2069,space,0.4105,0,34,34,29,1,30,image/30.jpg,0,0,,R_742eAVEWlciGtQU,2,2024-05-31_18h28.59.804,face trait task,2021.2.3,Win32,59.88023952,120825,,,,,,,
,,,,,,4.015625,1.3923,space,0.3499,0,35,35,7,1,8,image/8.jpg,0,0,,R_742eAVEWlciGtQU,2,2024-05-31_18h28.59.804,face trait task,2021.2.3,Win32,59.88023952,120825,,,,,,,
,,,,,,4.015625,1.0653,space,0.5729,0,36,36,22,1,23,image/23.jpg,0,0,,R_742eAVEWlciGtQU,2,2024-05-31_18h28.59.804,face trait task,2021.2.3,Win32,59.88023952,120825,,,,,,,
,,,,,,4.015625,1.105,space,0.6265,0,37,37,35,1,36,image/36.jpg,0,0,,R_742eAVEWlciGtQU,2,2024-05-31_18h28.59.804,face trait task,2021.2.3,Win32,59.88023952,120825,,,,,,,
,,,,,,6.9765625,4.2088,space,0.3339,0,38,38,50,1,57,image/fill_img.png,1,7,Please move the slider all the way to the RIGHT to show that you are paying attention.,R_742eAVEWlciGtQU,2,2024-05-31_18h28.59.804,face trait task,2021.2.3,Win32,59.88023952,120825,,,,,,,
,,,,,,1.0625,4.5222,space,0.2787,0,39,39,51,1,51,image/fill_img.png,1,1,Please move the slider all the way to the LEFT to show that you are paying attention.,R_742eAVEWlciGtQU,2,2024-05-31_18h28.59.804,face trait task,2021.2.3,Win32,59.88023952,120825,,,,,,,
,,,,,,4.015625,2.109,space,0.3509,0,40,40,1,1,2,image/2.jpg,0,0,,R_742eAVEWlciGtQU,2,2024-05-31_18h28.59.804,face trait task,2021.2.3,Win32,59.88023952,120825,,,,,,,
,,,,,,4.015625,1.2475,space,0.3325,0,41,41,47,1,48,image/48.jpg,0,0,,R_742eAVEWlciGtQU,2,2024-05-31_18h28.59.804,face trait task,2021.2.3,Win32,59.88023952,120825,,,,,,,
,,,,,,4.015625,1.1019,space,0.3257,0,42,42,46,1,47,image/47.jpg,0,0,,R_742eAVEWlciGtQU,2,2024-05-31_18h28.59.804,face trait task,2021.2.3,Win32,59.88023952,120825,,,,,,,
,,,,,,4.015625,1.2684,space,0.3002,0,43,43,10,1,11,image/11.jpg,0,0,,R_742eAVEWlciGtQU,2,2024-05-31_18h28.59.804,face trait task,2021.2.3,Win32,59.88023952,120825,,,,,,,
,,,,,,4.015625,1.2686,space,0.3416,0,44,44,40,1,41,image/41.jpg,0,0,,R_742eAVEWlciGtQU,2,2024-05-31_18h28.59.804,face trait task,2021.2.3,Win32,59.88023952,120825,,,,,,,
,,,,,,4.015625,1.151,space,0.377,0,45,45,5,1,6,image/6.jpg,0,0,,R_742eAVEWlciGtQU,2,2024-05-31_18h28.59.804,face trait task,2021.2.3,Win32,59.88023952,120825,,,,,,,
,,,,,,4.015625,1.1567,space,0.2387,0,46,46,16,1,17,image/17.jpg,0,0,,R_742eAVEWlciGtQU,2,2024-05-31_18h28.59.804,face trait task,2021.2.3,Win32,59.88023952,120825,,,,,,,
,,,,,,4.015625,2.7,space,0.3042,0,47,47,42,1,43,image/43.jpg,0,0,,R_742eAVEWlciGtQU,2,2024-05-31_18h28.59.804,face trait task,2021.2.3,Win32,59.88023952,120825,,,,,,,
,,,,,,4.015625,1.1882,space,0.5831,0,48,48,33,1,34,image/34.jpg,0,0,,R_742eAVEWlciGtQU,2,2024-05-31_18h28.59.804,face trait task,2021.2.3,Win32,59.88023952,120825,,,,,,,
,,,,,,4.015625,1.1012,space,0.3922,0,49,49,13,1,14,image/14.jpg,0,0,,R_742eAVEWlciGtQU,2,2024-05-31_18h28.59.804,face trait task,2021.2.3,Win32,59.88023952,120825,,,,,,,
,,,,,,4.015625,1.7961,space,0.3343,0,50,50,28,1,29,image/29.jpg,0,0,,R_742eAVEWlciGtQU,2,2024-05-31_18h28.59.804,face trait task,2021.2.3,Win32,59.88023952,120825,,,,,,,
,,,,,,4.015625,1.2919,space,0.3112,0,51,51,9,1,10,image/10.jpg,0,0,,R_742eAVEWlciGtQU,2,2024-05-31_18h28.59.804,face trait task,2021.2.3,Win32,59.88023952,120825,,,,,,,
,,,,,,4.015625,1.4267,space,0.3545,0,52,52,18,1,19,image/19.jpg,0,0,,R_742eAVEWlciGtQU,2,2024-05-31_18h28.59.804,face trait task,2021.2.3,Win32,59.88023952,120825,,,,,,,
,,,,,,,,,,,,,,,,,,,,R_742eAVEWlciGtQU,2,2024-05-31_18h28.59.804,face trait task,2021.2.3,Win32,59.88023952,120825,0,1,1,1,1,1,competent.png
,,,,,trustworthy,4.0234375,1.5086,space,0.3589,0,0,0,17,1,18,image/18.jpg,0,0,,R_742eAVEWlciGtQU,2,2024-05-31_18h28.59.804,face trait task,2021.2.3,Win32,59.88023952,120825,,,,,,,
,,,,,,4.0234375,1.0283,space,0.2663,0,1,1,44,1,45,image/45.jpg,0,0,,R_742eAVEWlciGtQU,2,2024-05-31_18h28.59.804,face trait task,2021.2.3,Win32,59.88023952,120825,,,,,,,
,,,,,,4.0234375,1.7421,space,0.9009,0,2,2,2,1,3,image/3.jpg,0,0,,R_742eAVEWlciGtQU,2,2024-05-31_18h28.59.804,face trait task,2021.2.3,Win32,59.88023952,120825,,,,,,,
,,,,,,4.0234375,1.4506,space,0.2669,0,3,3,25,1,26,image/26.jpg,0,0,,R_742eAVEWlciGtQU,2,2024-05-31_18h28.59.804,face trait task,2021.2.3,Win32,59.88023952,120825,,,,,,,
,,,,,,4.0234375,1.2643,space,0.327,0,4,4,24,1,25,image/25.jpg,0,0,,R_742eAVEWlciGtQU,2,2024-05-31_18h28.59.804,face trait task,2021.2.3,Win32,59.88023952,120825,,,,,,,
,,,,,,4.0234375,1.0021,space,0.3525,0,5,5,26,1,27,image/27.jpg,0,0,,R_742eAVEWlciGtQU,2,2024-05-31_18h28.59.804,face trait task,2021.2.3,Win32,59.88023952,120825,,,,,,,
,,,,,,4.0234375,1.2027,space,0.3168,0,6,6,47,1,48,image/48.jpg,0,0,,R_742eAVEWlciGtQU,2,2024-05-31_18h28.59.804,face trait task,2021.2.3,Win32,59.88023952,120825,,,,,,,
,,,,,,4.0234375,1.3641,space,0.2515,0,7,7,41,1,42,image/42.jpg,0,0,,R_742eAVEWlciGtQU,2,2024-05-31_18h28.59.804,face trait task,2021.2.3,Win32,59.88023952,120825,,,,,,,
,,,,,,4.0234375,1.1547,space,0.3911,0,8,8,15,1,16,image/16.jpg,0,0,,R_742eAVEWlciGtQU,2,2024-05-31_18h28.59.804,face trait task,2021.2.3,Win32,59.88023952,120825,,,,,,,
,,,,,,4.0234375,1.0308,space,0.2168,0,9,9,6,1,7,image/7.jpg,0,0,,R_742eAVEWlciGtQU,2,2024-05-31_18h28.59.804,face trait task,2021.2.3,Win32,59.88023952,120825,,,,,,,
,,,,,,4.0234375,1.8124,space,0.2075,0,10,10,9,1,10,image/10.jpg,0,0,,R_742eAVEWlciGtQU,2,2024-05-31_18h28.59.804,face trait task,2021.2.3,Win32,59.88023952,120825,,,,,,,
,,,,,,3.984375,1.9329,space,0.3655,0,11,11,3,1,4,image/4.jpg,0,0,,R_742eAVEWlciGtQU,2,2024-05-31_18h28.59.804,face trait task,2021.2.3,Win32,59.88023952,120825,,,,,,,
,,,,,,3.984375,1.033,space,0.4837,0,12,12,7,1,8,image/8.jpg,0,0,,R_742eAVEWlciGtQU,2,2024-05-31_18h28.59.804,face trait task,2021.2.3,Win32,59.88023952,120825,,,,,,,
,,,,,,3.984375,0.981,space,0.245,0,13,13,10,1,11,image/11.jpg,0,0,,R_742eAVEWlciGtQU,2,2024-05-31_18h28.59.804,face trait task,2021.2.3,Win32,59.88023952,120825,,,,,,,
,,,,,,1.078125,2.1827,space,0.4006,0,14,14,51,1,51,image/fill_img.png,1,1,Please move the slider all the way to the LEFT to show that you are paying attention.,R_742eAVEWlciGtQU,2,2024-05-31_18h28.59.804,face trait task,2021.2.3,Win32,59.88023952,120825,,,,,,,
,,,,,,4,1.3005,space,0.2675,0,15,15,33,1,34,image/34.jpg,0,0,,R_742eAVEWlciGtQU,2,2024-05-31_18h28.59.804,face trait task,2021.2.3,Win32,59.88023952,120825,,,,,,,
,,,,,,4,2.9668,space,2.097,0,16,16,21,1,22,image/22.jpg,0,0,,R_742eAVEWlciGtQU,2,2024-05-31_18h28.59.804,face trait task,2021.2.3,Win32,59.88023952,120825,,,,,,,
,,,,,,3.96875,1.1482,space,0.4724,0,17,17,37,1,38,image/38.jpg,0,0,,R_742eAVEWlciGtQU,2,2024-05-31_18h28.59.804,face trait task,2021.2.3,Win32,59.88023952,120825,,,,,,,
,,,,,,3.9921875,1.0308,space,0.311,0,18,18,39,1,40,image/40.jpg,0,0,,R_742eAVEWlciGtQU,2,2024-05-31_18h28.59.804,face trait task,2021.2.3,Win32,59.88023952,120825,,,,,,,
,,,,,,3.9921875,1.2962,space,0.1,0,19,19,40,1,41,image/41.jpg,0,0,,R_742eAVEWlciGtQU,2,2024-05-31_18h28.59.804,face trait task,2021.2.3,Win32,59.88023952,120825,,,,,,,
,,,,,,3.9921875,1.6467,space,1.2209,0,20,20,43,1,44,image/44.jpg,0,0,,R_742eAVEWlciGtQU,2,2024-05-31_18h28.59.804,face trait task,2021.2.3,Win32,59.88023952,120825,,,,,,,
,,,,,,4.015625,2.4818,space,1.6346,0,21,21,36,1,37,image/37.jpg,0,0,,R_742eAVEWlciGtQU,2,2024-05-31_18h28.59.804,face trait task,2021.2.3,Win32,59.88023952,120825,,,,,,,
,,,,,,4.0234375,1.1803,space,1.1512,0,22,22,11,1,12,image/12.jpg,0,0,,R_742eAVEWlciGtQU,2,2024-05-31_18h28.59.804,face trait task,2021.2.3,Win32,59.88023952,120825,,,,,,,
,,,,,,4.0390625,2.1609,space,0.898,0,23,23,14,1,15,image/15.jpg,0,0,,R_742eAVEWlciGtQU,2,2024-05-31_18h28.59.804,face trait task,2021.2.3,Win32,59.88023952,120825,,,,,,,
,,,,,,4.0390625,1.5887,space,1.0986,0,24,24,34,1,35,image/35.jpg,0,0,,R_742eAVEWlciGtQU,2,2024-05-31_18h28.59.804,face trait task,2021.2.3,Win32,59.88023952,120825,,,,,,,
,,,,,,6.9765625,2.612,space,0.9127,0,25,25,50,1,57,image/fill_img.png,1,7,Please move the slider all the way to the RIGHT to show that you are paying attention.,R_742eAVEWlciGtQU,2,2024-05-31_18h28.59.804,face trait task,2021.2.3,Win32,59.88023952,120825,,,,,,,
,,,,,,3.984375,2.321,space,1.1668,0,26,26,22,1,23,image/23.jpg,0,0,,R_742eAVEWlciGtQU,2,2024-05-31_18h28.59.804,face trait task,2021.2.3,Win32,59.88023952,120825,,,,,,,
,,,,,,3.984375,1.2503,space,0.5644,0,27,27,16,1,17,image/17.jpg,0,0,,R_742eAVEWlciGtQU,2,2024-05-31_18h28.59.804,face trait task,2021.2.3,Win32,59.88023952,120825,,,,,,,
,,,,,,3.984375,1.5315,space,1.1175,0,28,28,29,1,30,image/30.jpg,0,0,,R_742eAVEWlciGtQU,2,2024-05-31_18h28.59.804,face trait task,2021.2.3,Win32,59.88023952,120825,,,,,,,
,,,,,,3.984375,3.8123,space,0.4251,0,29,29,31,1,32,image/32.jpg,0,0,,R_742eAVEWlciGtQU,2,2024-05-31_18h28.59.804,face trait task,2021.2.3,Win32,59.88023952,120825,,,,,,,
,,,,,,3.984375,1.4031,space,0.6859,0,30,30,28,1,29,image/29.jpg,0,0,,R_742eAVEWlciGtQU,2,2024-05-31_18h28.59.804,face trait task,2021.2.3,Win32,59.88023952,120825,,,,,,,
,,,,,,3.984375,1.0654,space,0.6612,0,31,31,45,1,46,image/46.jpg,0,0,,R_742eAVEWlciGtQU,2,2024-05-31_18h28.59.804,face trait task,2021.2.3,Win32,59.88023952,120825,,,,,,,
,,,,,,1.078125,2.0964,space,0.2886,0,32,32,52,1,54,image/fill_img.png,1,1,Please move the slider all the way to the LEFT to show that you are paying attention.,R_742eAVEWlciGtQU,2,2024-05-31_18h28.59.804,face trait task,2021.2.3,Win32,59.88023952,120825,,,,,,,
,,,,,,4.0234375,1.7148,space,0.3396,0,33,33,1,1,2,image/2.jpg,0,0,,R_742eAVEWlciGtQU,2,2024-05-31_18h28.59.804,face trait task,2021.2.3,Win32,59.88023952,120825,,,,,,,
,,,,,,4.0078125,1.7154,space,0.2996,0,34,34,49,1,50,image/50.jpg,0,0,,R_742eAVEWlciGtQU,2,2024-05-31_18h28.59.804,face trait task,2021.2.3,Win32,59.88023952,120825,,,,,,,
,,,,,,4,1.7782,space,0.5094,0,35,35,46,1,47,image/47.jpg,0,0,,R_742eAVEWlciGtQU,2,2024-05-31_18h28.59.804,face trait task,2021.2.3,Win32,59.88023952,120825,,,,,,,
,,,,,,4,1.3092,space,0.5689,0,36,36,23,1,24,image/24.jpg,0,0,,R_742eAVEWlciGtQU,2,2024-05-31_18h28.59.804,face trait task,2021.2.3,Win32,59.88023952,120825,,,,,,,
,,,,,,4,1.6639,space,0.4749,0,37,37,38,1,39,image/39.jpg,0,0,,R_742eAVEWlciGtQU,2,2024-05-31_18h28.59.804,face trait task,2021.2.3,Win32,59.88023952,120825,,,,,,,
,,,,,,4,1.315,space,0.384,0,38,38,32,1,33,image/33.jpg,0,0,,R_742eAVEWlciGtQU,2,2024-05-31_18h28.59.804,face trait task,2021.2.3,Win32,59.88023952,120825,,,,,,,
,,,,,,4,1.4216,space,0.9028,0,39,39,0,1,1,image/1.jpg,0,0,,R_742eAVEWlciGtQU,2,2024-05-31_18h28.59.804,face trait task,2021.2.3,Win32,59.88023952,120825,,,,,,,
,,,,,,4,1.4826,space,0.8669,0,40,40,42,1,43,image/43.jpg,0,0,,R_742eAVEWlciGtQU,2,2024-05-31_18h28.59.804,face trait task,2021.2.3,Win32,59.88023952,120825,,,,,,,
,,,,,,4,1.247,space,0.7024,0,41,41,5,1,6,image/6.jpg,0,0,,R_742eAVEWlciGtQU,2,2024-05-31_18h28.59.804,face trait task,2021.2.3,Win32,59.88023952,120825,,,,,,,
,,,,,,4,1.1643,space,0.7575,0,42,42,35,1,36,image/36.jpg,0,0,,R_742eAVEWlciGtQU,2,2024-05-31_18h28.59.804,face trait task,2021.2.3,Win32,59.88023952,120825,,,,,,,
,,,,,,4,1.8162,space,0.4852,0,43,43,20,1,21,image/21.jpg,0,0,,R_742eAVEWlciGtQU,2,2024-05-31_18h28.59.804,face trait task,2021.2.3,Win32,59.88023952,120825,,,,,,,
,,,,,,4,1.5527,space,0.8273,0,44,44,30,1,31,image/31.jpg,0,0,,R_742eAVEWlciGtQU,2,2024-05-31_18h28.59.804,face trait task,2021.2.3,Win32,59.88023952,120825,,,,,,,
,,,,,,4,1.1143,space,0.9995,0,45,45,27,1,28,image/28.jpg,0,0,,R_742eAVEWlciGtQU,2,2024-05-31_18h28.59.804,face trait task,2021.2.3,Win32,59.88023952,120825,,,,,,,
,,,,,,4,1.6969,space,0.678,0,46,46,18,1,19,image/19.jpg,0,0,,R_742eAVEWlciGtQU,2,2024-05-31_18h28.59.804,face trait task,2021.2.3,Win32,59.88023952,120825,,,,,,,
,,,,,,4,1.2325,space,0.5755,0,47,47,4,1,5,image/5.jpg,0,0,,R_742eAVEWlciGtQU,2,2024-05-31_18h28.59.804,face trait task,2021.2.3,Win32,59.88023952,120825,,,,,,,
,,,,,,4,1.4988,space,0.971,0,48,48,13,1,14,image/14.jpg,0,0,,R_742eAVEWlciGtQU,2,2024-05-31_18h28.59.804,face trait task,2021.2.3,Win32,59.88023952,120825,,,,,,,
,,,,,,4,1.6332,space,0.4631,0,49,49,12,1,13,image/13.jpg,0,0,,R_742eAVEWlciGtQU,2,2024-05-31_18h28.59.804,face trait task,2021.2.3,Win32,59.88023952,120825,,,,,,,
,,,,,,4,1.8992,space,0.7586,0,50,50,8,1,9,image/9.jpg,0,0,,R_742eAVEWlciGtQU,2,2024-05-31_18h28.59.804,face trait task,2021.2.3,Win32,59.88023952,120825,,,,,,,
,,,,,,3.984375,1.7465,space,0.6362,0,51,51,19,1,20,image/20.jpg,0,0,,R_742eAVEWlciGtQU,2,2024-05-31_18h28.59.804,face trait task,2021.2.3,Win32,59.88023952,120825,,,,,,,
,,,,,,3.984375,1.7311,space,1.05,0,52,52,48,1,49,image/49.jpg,0,0,,R_742eAVEWlciGtQU,2,2024-05-31_18h28.59.804,face trait task,2021.2.3,Win32,59.88023952,120825,,,,,,,
,,,,,,,,,,,,,,,,,,,,R_742eAVEWlciGtQU,2,2024-05-31_18h28.59.804,face trait task,2021.2.3,Win32,59.88023952,120825,0,2,2,2,1,2,trustworthy.png
,,,,,friendly,3.625,4.2885,space,0.5154,0,0,0,0,1,1,image/1.jpg,0,0,,R_742eAVEWlciGtQU,2,2024-05-31_18h28.59.804,face trait task,2021.2.3,Win32,59.88023952,120825,,,,,,,
,,,,,,4.828125,1.935,space,0.344,0,1,1,17,1,18,image/18.jpg,0,0,,R_742eAVEWlciGtQU,2,2024-05-31_18h28.59.804,face trait task,2021.2.3,Win32,59.88023952,120825,,,,,,,
,,,,,,3.71875,1.917,space,0.3124,0,2,2,15,1,16,image/16.jpg,0,0,,R_742eAVEWlciGtQU,2,2024-05-31_18h28.59.804,face trait task,2021.2.3,Win32,59.88023952,120825,,,,,,,
,,,,,,4.2421875,1.9612,space,0.4021,0,3,3,23,1,24,image/24.jpg,0,0,,R_742eAVEWlciGtQU,2,2024-05-31_18h28.59.804,face trait task,2021.2.3,Win32,59.88023952,120825,,,,,,,
,,,,,,3.0859375,2.7047,space,0.6482,0,4,4,13,1,14,image/14.jpg,0,0,,R_742eAVEWlciGtQU,2,2024-05-31_18h28.59.804,face trait task,2021.2.3,Win32,59.88023952,120825,,,,,,,
,,,,,,1.140625,2.1487,space,0.1818,0,5,5,51,1,51,image/fill_img.png,1,1,Please move the slider all the way to the LEFT to show that you are paying attention.,R_742eAVEWlciGtQU,2,2024-05-31_18h28.59.804,face trait task,2021.2.3,Win32,59.88023952,120825,,,,,,,
,,,,,,3.4453125,3.0539,space,0.3922,0,6,6,47,1,48,image/48.jpg,0,0,,R_742eAVEWlciGtQU,2,2024-05-31_18h28.59.804,face trait task,2021.2.3,Win32,59.88023952,120825,,,,,,,
,,,,,,2.6875,1.9184,space,0.8996,0,7,7,30,1,31,image/31.jpg,0,0,,R_742eAVEWlciGtQU,2,2024-05-31_18h28.59.804,face trait task,2021.2.3,Win32,59.88023952,120825,,,,,,,
,,,,,,3.9140625,2.9738,space,0.4162,0,8,8,31,1,32,image/32.jpg,0,0,,R_742eAVEWlciGtQU,2,2024-05-31_18h28.59.804,face trait task,2021.2.3,Win32,59.88023952,120825,,,,,,,
,,,,,,3.8203125,2.6674,space,0.3772,0,9,9,6,1,7,image/7.jpg,0,0,,R_742eAVEWlciGtQU,2,2024-05-31_18h28.59.804,face trait task,2021.2.3,Win32,59.88023952,120825,,,,,,,
,,,,,,4.421875,1.9523,space,0.5285,0,10,10,11,1,12,image/12.jpg,0,0,,R_742eAVEWlciGtQU,2,2024-05-31_18h28.59.804,face trait task,2021.2.3,Win32,59.88023952,120825,,,,,,,
,,,,,,3.84375,2.6555,space,1.2855,0,11,11,28,1,29,image/29.jpg,0,0,,R_742eAVEWlciGtQU,2,2024-05-31_18h28.59.804,face trait task,2021.2.3,Win32,59.88023952,120825,,,,,,,
,,,,,,3.4765625,2.527,space,0.4918,0,12,12,37,1,38,image/38.jpg,0,0,,R_742eAVEWlciGtQU,2,2024-05-31_18h28.59.804,face trait task,2021.2.3,Win32,59.88023952,120825,,,,,,,
,,,,,,3.90625,2.5062,space,1.0058,0,13,13,1,1,2,image/2.jpg,0,0,,R_742eAVEWlciGtQU,2,2024-05-31_18h28.59.804,face trait task,2021.2.3,Win32,59.88023952,120825,,,,,,,
,,,,,,3.9375,3.7508,space,0.3955,0,14,14,24,1,25,image/25.jpg,0,0,,R_742eAVEWlciGtQU,2,2024-05-31_18h28.59.804,face trait task,2021.2.3,Win32,59.88023952,120825,,,,,,,
,,,,,,4.15625,2.6001,space,0.436,0,15,15,48,1,49,image/49.jpg,0,0,,R_742eAVEWlciGtQU,2,2024-05-31_18h28.59.804,face trait task,2021.2.3,Win32,59.88023952,120825,,,,,,,
,,,,,,3.5,3.0294,space,0.4435,0,16,16,29,1,30,image/30.jpg,0,0,,R_742eAVEWlciGtQU,2,2024-05-31_18h28.59.804,face trait task,2021.2.3,Win32,59.88023952,120825,,,,,,,
,,,,,,3.8125,2.1795,space,0.5161,0,17,17,19,1,20,image/20.jpg,0,0,,R_742eAVEWlciGtQU,2,2024-05-31_18h28.59.804,face trait task,2021.2.3,Win32,59.88023952,120825,,,,,,,
,,,,,,3.640625,2.8342,space,0.8356,0,18,18,26,1,27,image/27.jpg,0,0,,R_742eAVEWlciGtQU,2,2024-05-31_18h28.59.804,face trait task,2021.2.3,Win32,59.88023952,120825,,,,,,,
,,,,,,3.3203125,2.8892,space,0.4607,0,19,19,42,1,43,image/43.jpg,0,0,,R_742eAVEWlciGtQU,2,2024-05-31_18h28.59.804,face trait task,2021.2.3,Win32,59.88023952,120825,,,,,,,
,,,,,,3.5546875,3.1398,space,0.7168,0,20,20,14,1,15,image/15.jpg,0,0,,R_742eAVEWlciGtQU,2,2024-05-31_18h28.59.804,face trait task,2021.2.3,Win32,59.88023952,120825,,,,,,,
,,,,,,3.15625,2.8409,space,0.3672,0,21,21,16,1,17,image/17.jpg,0,0,,R_742eAVEWlciGtQU,2,2024-05-31_18h28.59.804,face trait task,2021.2.3,Win32,59.88023952,120825,,,,,,,
,,,,,,3.546875,2.3007,space,0.8411,0,22,22,8,1,9,image/9.jpg,0,0,,R_742eAVEWlciGtQU,2,2024-05-31_18h28.59.804,face trait task,2021.2.3,Win32,59.88023952,120825,,,,,,,
,,,,,,3.6875,3.1717,space,0.9764,0,23,23,39,1,40,image/40.jpg,0,0,,R_742eAVEWlciGtQU,2,2024-05-31_18h28.59.804,face trait task,2021.2.3,Win32,59.88023952,120825,,,,,,,
,,,,,,4.3203125,1.813,space,1.1307,0,24,24,4,1,5,image/5.jpg,0,0,,R_742eAVEWlciGtQU,2,2024-05-31_18h28.59.804,face trait task,2021.2.3,Win32,59.88023952,120825,,,,,,,
,,,,,,4.6796875,4.7886,space,0.4302,0,25,25,36,1,37,image/37.jpg,0,0,,R_742eAVEWlciGtQU,2,2024-05-31_18h28.59.804,face trait task,2021.2.3,Win32,59.88023952,120825,,,,,,,
,,,,,,4.578125,1.9686,space,0.3861,0,26,26,2,1,3,image/3.jpg,0,0,,R_742eAVEWlciGtQU,2,2024-05-31_18h28.59.804,face trait task,2021.2.3,Win32,59.88023952,120825,,,,,,,
,,,,,,3.875,4.0783,space,0.3343,0,27,27,10,1,11,image/11.jpg,0,0,,R_742eAVEWlciGtQU,2,2024-05-31_18h28.59.804,face trait task,2021.2.3,Win32,59.88023952,120825,,,,,,,
,,,,,,3.625,2.5279,space,0.3363,0,28,28,18,1,19,image/19.jpg,0,0,,R_742eAVEWlciGtQU,2,2024-05-31_18h28.59.804,face trait task,2021.2.3,Win32,59.88023952,120825,,,,,,,
,,,,,,3.5859375,2.1055,space,0.5296,0,29,29,9,1,10,image/10.jpg,0,0,,R_742eAVEWlciGtQU,2,2024-05-31_18h28.59.804,face trait task,2021.2.3,Win32,59.88023952,120825,,,,,,,
,,,,,,4.234375,3.6004,space,0.3671,0,30,30,43,1,44,image/44.jpg,0,0,,R_742eAVEWlciGtQU,2,2024-05-31_18h28.59.804,face trait task,2021.2.3,Win32,59.88023952,120825,,,,,,,
,,,,,,3.8046875,1.9065,space,0.3636,0,31,31,40,1,41,image/41.jpg,0,0,,R_742eAVEWlciGtQU,2,2024-05-31_18h28.59.804,face trait task,2021.2.3,Win32,59.88023952,120825,,,,,,,
,,,,,,3.6328125,2.0189,space,0.7825,0,32,32,5,1,6,image/6.jpg,0,0,,R_742eAVEWlciGtQU,2,2024-05-31_18h28.59.804,face trait task,2021.2.3,Win32,59.88023952,120825,,,,,,,
,,,,,,1.046875,2.6551,space,0.2845,0,33,33,52,1,54,image/fill_img.png,1,1,Please move the slider all the way to the LEFT to show that you are paying attention.,R_742eAVEWlciGtQU,2,2024-05-31_18h28.59.804,face trait task,2021.2.3,Win32,59.88023952,120825,,,,,,,
,,,,,,4.3125,1.8023,space,0.4276,0,34,34,35,1,36,image/36.jpg,0,0,,R_742eAVEWlciGtQU,2,2024-05-31_18h28.59.804,face trait task,2021.2.3,Win32,59.88023952,120825,,,,,,,
,,,,,,4.3125,1.6178,space,0.3191,0,35,35,49,1,50,image/50.jpg,0,0,,R_742eAVEWlciGtQU,2,2024-05-31_18h28.59.804,face trait task,2021.2.3,Win32,59.88023952,120825,,,,,,,
,,,,,,4.6015625,1.9222,space,0.7067,0,36,36,3,1,4,image/4.jpg,0,0,,R_742eAVEWlciGtQU,2,2024-05-31_18h28.59.804,face trait task,2021.2.3,Win32,59.88023952,120825,,,,,,,
,,,,,,3.7421875,2.0273,space,0.8389,0,37,37,27,1,28,image/28.jpg,0,0,,R_742eAVEWlciGtQU,2,2024-05-31_18h28.59.804,face trait task,2021.2.3,Win32,59.88023952,120825,,,,,,,
,,,,,,3.953125,3.5748,space,0.4024,0,38,38,34,1,35,image/35.jpg,0,0,,R_742eAVEWlciGtQU,2,2024-05-31_18h28.59.804,face trait task,2021.2.3,Win32,59.88023952,120825,,,,,,,
,,,,,,6.9921875,2.137,space,0.2592,0,39,39,50,1,57,image/fill_img.png,1,7,Please move the slider all the way to the RIGHT to show that you are paying attention.,R_742eAVEWlciGtQU,2,2024-05-31_18h28.59.804,face trait task,2021.2.3,Win32,59.88023952,120825,,,,,,,
,,,,,,4.265625,1.842,space,0.3984,0,40,40,44,1,45,image/45.jpg,0,0,,R_742eAVEWlciGtQU,2,2024-05-31_18h28.59.804,face trait task,2021.2.3,Win32,59.88023952,120825,,,,,,,
,,,,,,4.0234375,2.5597,space,0.3849,0,41,41,22,1,23,image/23.jpg,0,0,,R_742eAVEWlciGtQU,2,2024-05-31_18h28.59.804,face trait task,2021.2.3,Win32,59.88023952,120825,,,,,,,
,,,,,,3.6328125,1.9691,space,0.4543,0,42,42,45,1,46,image/46.jpg,0,0,,R_742eAVEWlciGtQU,2,2024-05-31_18h28.59.804,face trait task,2021.2.3,Win32,59.88023952,120825,,,,,,,
,,,,,,4.2890625,1.8509,space,0.4785,0,43,43,46,1,47,image/47.jpg,0,0,,R_742eAVEWlciGtQU,2,2024-05-31_18h28.59.804,face trait task,2021.2.3,Win32,59.88023952,120825,,,,,,,
,,,,,,4.0859375,3.5541,space,0.4612,0,44,44,7,1,8,image/8.jpg,0,0,,R_742eAVEWlciGtQU,2,2024-05-31_18h28.59.804,face trait task,2021.2.3,Win32,59.88023952,120825,,,,,,,
,,,,,,4.0859375,2.1043,space,0.7295,0,45,45,32,1,33,image/33.jpg,0,0,,R_742eAVEWlciGtQU,2,2024-05-31_18h28.59.804,face trait task,2021.2.3,Win32,59.88023952,120825,,,,,,,
,,,,,,4.578125,2.4852,space,0.6857,0,46,46,20,1,21,image/21.jpg,0,0,,R_742eAVEWlciGtQU,2,2024-05-31_18h28.59.804,face trait task,2021.2.3,Win32,59.88023952,120825,,,,,,,
,,,,,,3.703125,2.0967,space,0.6919,0,47,47,38,1,39,image/39.jpg,0,0,,R_742eAVEWlciGtQU,2,2024-05-31_18h28.59.804,face trait task,2021.2.3,Win32,59.88023952,120825,,,,,,,
,,,,,,3.953125,2.4255,space,0.5619,0,48,48,33,1,34,image/34.jpg,0,0,,R_742eAVEWlciGtQU,2,2024-05-31_18h28.59.804,face trait task,2021.2.3,Win32,59.88023952,120825,,,,,,,
,,,,,,3.5859375,2.1735,space,0.7695,0,49,49,25,1,26,image/26.jpg,0,0,,R_742eAVEWlciGtQU,2,2024-05-31_18h28.59.804,face trait task,2021.2.3,Win32,59.88023952,120825,,,,,,,
,,,,,,3.5859375,2.1347,space,0.8094,0,50,50,12,1,13,image/13.jpg,0,0,,R_742eAVEWlciGtQU,2,2024-05-31_18h28.59.804,face trait task,2021.2.3,Win32,59.88023952,120825,,,,,,,
,,,,,,3.3671875,2.0114,space,0.5691,0,51,51,21,1,22,image/22.jpg,0,0,,R_742eAVEWlciGtQU,2,2024-05-31_18h28.59.804,face trait task,2021.2.3,Win32,59.88023952,120825,,,,,,,
,,,,,,3.9609375,3.4383,space,1.7673,0,52,52,41,1,42,image/42.jpg,0,0,,R_742eAVEWlciGtQU,2,2024-05-31_18h28.59.804,face trait task,2021.2.3,Win32,59.88023952,120825,,,,,,,
,,,,,,,,,,,,,,,,,,,,R_742eAVEWlciGtQU,2,2024-05-31_18h28.59.804,face trait task,2021.2.3,Win32,59.88023952,120825,0,3,3,3,1,3,friendly.png
