chooserow,ParID,pre_instru_resp_2.keys,pre_instru_resp_2.rt,pre_instru_resp_3.keys,pre_instru_resp_3.rt,pre_instru_resp_9.keys,pre_instru_resp_9.rt,pre_instru_resp_8.keys,pre_instru_resp_8.rt,pre_instru_resp_4.keys,pre_instru_resp_4.rt,pre_instru_resp_5.keys,pre_instru_resp_5.rt,pre_instru_resp_6.keys,pre_instru_resp_6.rt,key_resp_3.keys,key_resp_3.rt,key_resp_4.keys,key_resp_4.rt,key_resp_5.keys,key_resp_5.rt,key_resp_6.keys,key_resp_6.rt,key_resp_7.keys,key_resp_7.rt,trials_2.thisRepN,trials_2.thisTrialN,trials_2.thisN,trials_2.thisIndex,trials_2.ran,participant,session,date,expName,psychopyVersion,OS,frameRate,SONAid,pre_instru_resp.keys,pre_instru_resp.rt,clicked,judge_2.x,judge_2.y,judge_2.leftButton,judge_2.midButton,judge_2.rightButton,judge_2.clicked_name,trials.thisRepN,trials.thisTrialN,trials.thisN,trials.thisIndex,trials.ran,prac_answer,prac_dot_sti,dotlefttext,dotrighttext,prac_acc,judge.x,judge.y,judge.leftButton,judge.midButton,judge.rightButton,judge.clicked_name,clicked_guilt,slider_guilt.response,slider_guilt.rt,key_guilt.keys,share_slider.response,share_slider.rt,key_share.keys,slider_apology.response,slider_apology.rt,key_apology.keys,slider_hide.response,slider_hide.rt,slider_forgiveness.response,slider_forgiveness.rt,key_forgiveness.keys,slider_mad.response,slider_mad.rt,trialseq.thisRepN,trialseq.thisTrialN,trialseq.thisN,trialseq.thisIndex,trialseq.ran,type_trial,stipic,DV,picture,answer,number,key_share.rt,key_apology.rt,key_forgiveness.rt,key_guilt.rt
"[11,20,160,129,35,142,69,166,128,137,109,87,180,122,202,194,175,154,117,100,116,85,47,97,64,158,50,144,170,76,54,184,172,133,101,182,53,77,84,70,78,152]",R_742eAVEWlciGtQU,space,2.2054,space,4.3231,space,13.0614,space,22.9243,space,47.9912,space,10.4571,space,4.8579,3,16.9109,1,6.9537,3,6.0053,2,7.81,2,3.2754,0,0,0,0,1,R_742eAVEWlciGtQU,1,2024-05-31_18h13.05.067,interaction task,2021.2.3,Win32,60.60606061,120825,,,,,,,,,,,,,,,,,,,,,,,,,,,,,,,,,,,,,,,,,,,,,,,,,,,,,,,,,
,,,,,,,,,,,,,,,,,,,,,,,,,,,,,,,R_742eAVEWlciGtQU,1,2024-05-31_18h13.05.067,interaction task,2021.2.3,Win32,60.60606061,120825,space,3.4417,"[""RightButton_2""]",0.294289898,-0.333333333,1,0,0,RightButton_2,0,0,0,2,1,RightButton_2,11dot1.png,Smaller,Greater,,,,,,,,,,,,,,,,,,,,,,,,,,,,,,,,,,,,,,,
,,,,,,,,,,,,,,,,,,,,,,,,,,,,,,,R_742eAVEWlciGtQU,1,2024-05-31_18h13.05.067,interaction task,2021.2.3,Win32,60.60606061,120825,,,"[""RightButton_2""]",0.286969253,-0.252604167,1,0,0,RightButton_2,0,1,1,0,1,RightButton_2,11dot1.png,Smaller,Greater,,,,,,,,,,,,,,,,,,,,,,,,,,,,,,,,,,,,,,,
,,,,,,,,,,,,,,,,,,,,,,,,,,,,,,,R_742eAVEWlciGtQU,1,2024-05-31_18h13.05.067,interaction task,2021.2.3,Win32,60.60606061,120825,,,"[""RightButton_2""]",0.257686676,-0.2734375,1,0,0,RightButton_2,0,2,2,1,1,RightButton_2,11dot1.png,Smaller,Greater,,,,,,,,,,,,,,,,,,,,,,,,,,,,,,,,,,,,,,,
,,,,,,,,,,,,,,,,,,,,,,,,,,,,,,,R_742eAVEWlciGtQU,1,2024-05-31_18h13.05.067,interaction task,2021.2.3,Win32,60.60606061,120825,,,,,,,,,,,,,,,,,Smaller,Greater,0.6,0.260614934,-0.4765625,1,0,0,RightButton,"[""RightButton""]",,,,,,,,,,,,,,,,,0,0,0,0,1,0,both_right.png,0,RandomDot38.png,No answer,21,,,,
,,,,,,,,,,,,,,,,,,,,,,,,,,,,,,,R_742eAVEWlciGtQU,1,2024-05-31_18h13.05.067,interaction task,2021.2.3,Win32,60.60606061,120825,,,,,,,,,,,,,,,,,Smaller,Greater,,0.263543192,-0.5390625,1,0,0,RightButton,"[""RightButton""]",,,,,,,,,,,,,,,,,0,1,1,1,1,0,both_right.png,1,RandomDot3.png,No answer,19,,,,
,,,,,,,,,,,,,,,,,,,,,,,,,,,,,,,R_742eAVEWlciGtQU,1,2024-05-31_18h13.05.067,interaction task,2021.2.3,Win32,60.60606061,120825,,,,,,,,,,,,,,,,,Greater,Smaller,,-0.336749634,-0.4921875,1,0,0,LeftButton,"[""LeftButton""]",,,,2.697657394,11.2812,space,,,,,,,,,,,0,2,2,2,1,3,only_sub_wrong.png,1,RandomDot22.png,No answer,19,2.4057,,,
,,,,,,,,,,,,,,,,,,,,,,,,,,,,,,,R_742eAVEWlciGtQU,1,2024-05-31_18h13.05.067,interaction task,2021.2.3,Win32,60.60606061,120825,,,,,,,,,,,,,,,,,Smaller,Greater,,0.272327965,-0.533854167,1,0,0,RightButton,"[""RightButton""]",,,,,,,85,6.7397,space,69,14.798,,,,,,0,3,3,3,1,2,only_sub_right.png,2,RandomDot37.png,No answer,19,,1.6661,,
,,,,,,,,,,,,,,,,,,,,,,,,,,,,,,,R_742eAVEWlciGtQU,1,2024-05-31_18h13.05.067,interaction task,2021.2.3,Win32,60.60606061,120825,,,,,,,,,,,,,,,,,Smaller,Greater,,0.281112738,-0.5234375,1,0,0,RightButton,"[""RightButton""]",,,,,,,,,,,,,,,,,0,4,4,4,1,0,both_right.png,2,RandomDot25.png,No answer,19,,,,
,,,,,,,,,,,,,,,,,,,,,,,,,,,,,,,R_742eAVEWlciGtQU,1,2024-05-31_18h13.05.067,interaction task,2021.2.3,Win32,60.60606061,120825,,,,,,,,,,,,,,,,,Smaller,Greater,,0.281112738,-0.5234375,1,0,0,RightButton,"[""RightButton""]",,,,,,,,,,,,98.50851117,4.7027,space,18.4990461,8.4976,0,5,5,5,1,2,only_sub_right.png,3,RandomDot18.png,No answer,20,,,3.7369,
,,,,,,,,,,,,,,,,,,,,,,,,,,,,,,,R_742eAVEWlciGtQU,1,2024-05-31_18h13.05.067,interaction task,2021.2.3,Win32,60.60606061,120825,,,,,,,,,,,,,,,,,Smaller,Greater,,-0.254758419,-0.505208333,1,0,0,LeftButton,"[""LeftButton""]",,,,2.653733529,2.921,space,,,,,,,,,,,0,6,6,6,1,1,both_wrong.png,1,RandomDot13.png,No answer,19,4.2307,,,
,,,,,,,,,,,,,,,,,,,,,,,,,,,,,,,R_742eAVEWlciGtQU,1,2024-05-31_18h13.05.067,interaction task,2021.2.3,Win32,60.60606061,120825,,,,,,,,,,,,,,,,,Smaller,Greater,,0.265007321,-0.515625,1,0,0,RightButton,"[""RightButton""]",,,,4.952415813,3.6993,space,,,,,,,,,,,0,7,7,7,1,3,only_sub_wrong.png,1,RandomDot15.png,No answer,20,1.2653,,,
,,,,,,,,,,,,,,,,,,,,,,,,,,,,,,,R_742eAVEWlciGtQU,1,2024-05-31_18h13.05.067,interaction task,2021.2.3,Win32,60.60606061,120825,,,,,,,,,,,,,,,,,Smaller,Greater,,-0.297218155,-0.5,1,0,0,LeftButton,"[""LeftButton""]",,,,,,,62,6.4145,space,30,11.1325,,,,,,0,8,8,8,1,2,only_sub_right.png,2,RandomDot22.png,No answer,20,,2.3902,,
,,,,,,,,,,,,,,,,,,,,,,,,,,,,,,,R_742eAVEWlciGtQU,1,2024-05-31_18h13.05.067,interaction task,2021.2.3,Win32,60.60606061,120825,,,,,,,,,,,,,,,,,Greater,Smaller,,0.319180088,-0.53125,1,0,0,RightButton,"[""RightButton""]",,,,,,,,,,,,98.06483577,3.2606,space,21.75266575,5.4262,0,9,9,9,1,2,only_sub_right.png,3,RandomDot23.png,No answer,20,,,0.6746,
,,,,,,,,,,,,,,,,,,,,,,,,,,,,,,,R_742eAVEWlciGtQU,1,2024-05-31_18h13.05.067,interaction task,2021.2.3,Win32,60.60606061,120825,,,,,,,,,,,,,,,,,Greater,Smaller,,-0.272327965,-0.536458333,1,0,0,LeftButton,"[""LeftButton""]",,,,2.646412884,3.1244,space,,,,,,,,,,,0,10,10,10,1,2,only_sub_right.png,1,RandomDot3.png,No answer,19,0.5664,,,
,,,,,,,,,,,,,,,,,,,,,,,,,,,,,,,R_742eAVEWlciGtQU,1,2024-05-31_18h13.05.067,interaction task,2021.2.3,Win32,60.60606061,120825,,,,,,,,,,,,,,,,,Greater,Smaller,,0.358711567,-0.5,1,0,0,RightButton,"[""RightButton""]",,,,,,,,,,,,87.12084239,2.38,space,22.34423296,7.8916,0,11,11,11,1,1,both_wrong.png,3,RandomDot17.png,No answer,21,,,0.5179,
,,,,,,,,,,,,,,,,,,,,,,,,,,,,,,,R_742eAVEWlciGtQU,1,2024-05-31_18h13.05.067,interaction task,2021.2.3,Win32,60.60606061,120825,,,,,,,,,,,,,,,,,Greater,Smaller,,-0.382137628,-0.481770833,1,0,0,LeftButton,"[""LeftButton""]",,,,,,,,,,,,90.22657024,2.511,space,28.40779686,5.9833,0,12,12,12,1,3,only_sub_wrong.png,3,RandomDot20.png,No answer,19,,,0.4422,
,,,,,,,,,,,,,,,,,,,,,,,,,,,,,,,R_742eAVEWlciGtQU,1,2024-05-31_18h13.05.067,interaction task,2021.2.3,Win32,60.60606061,120825,,,,,,,,,,,,,,,,,Greater,Smaller,,0.34114202,-0.536458333,1,0,0,RightButton,"[""RightButton""]",,,,,,,79,2.8811,space,40,8.8944,,,,,,0,13,13,13,1,2,only_sub_right.png,2,RandomDot33.png,No answer,20,,0.4615,,
,,,,,,,,,,,,,,,,,,,,,,,,,,,,,,,R_742eAVEWlciGtQU,1,2024-05-31_18h13.05.067,interaction task,2021.2.3,Win32,60.60606061,120825,,,,,,,,,,,,,,,,,Smaller,Greater,,-0.269399707,-0.502604167,1,0,0,LeftButton,"[""LeftButton""]",,,,,,,,,,,,,,,,,0,14,14,14,1,5,both_right.png,10,RandomDot42.png,LeftButton,21,,,,
,,,,,,,,,,,,,,,,,,,,,,,,,,,,,,,R_742eAVEWlciGtQU,1,2024-05-31_18h13.05.067,interaction task,2021.2.3,Win32,60.60606061,120825,,,,,,,,,,,,,,,,,Greater,Smaller,,-0.304538799,-0.526041667,1,0,0,LeftButton,"[""LeftButton""]",,,,,,,,,,,,,,,,,0,15,15,15,1,4,both_right.png,10,RandomDot41.png,LeftButton,5,,,,
,,,,,,,,,,,,,,,,,,,,,,,,,,,,,,,R_742eAVEWlciGtQU,1,2024-05-31_18h13.05.067,interaction task,2021.2.3,Win32,60.60606061,120825,,,,,,,,,,,,,,,,,Smaller,Greater,,-0.260614934,-0.541666667,1,0,0,LeftButton,"[""LeftButton""]",,,,,,,80,5.5056,space,30,6.8099,,,,,,0,16,16,16,1,3,only_sub_wrong.png,2,RandomDot17.png,No answer,19,,0.8293,,
,,,,,,,,,,,,,,,,,,,,,,,,,,,,,,,R_742eAVEWlciGtQU,1,2024-05-31_18h13.05.067,interaction task,2021.2.3,Win32,60.60606061,120825,,,,,,,,,,,,,,,,,Smaller,Greater,,-0.257686676,-0.533854167,1,0,0,LeftButton,"[""LeftButton""]",60,4.5858,space,,,,,,,,,,,,,,0,17,17,17,1,3,only_sub_wrong.png,0,RandomDot25.png,No answer,21,,,,0.5382
,,,,,,,,,,,,,,,,,,,,,,,,,,,,,,,R_742eAVEWlciGtQU,1,2024-05-31_18h13.05.067,interaction task,2021.2.3,Win32,60.60606061,120825,,,,,,,,,,,,,,,,,Smaller,Greater,,-0.259150805,-0.4765625,1,0,0,LeftButton,"[""LeftButton""]",,,,2.595168375,6.9199,space,,,,,,,,,,,0,18,18,18,1,2,only_sub_right.png,1,RandomDot27.png,No answer,21,0.5558,,,
,,,,,,,,,,,,,,,,,,,,,,,,,,,,,,,R_742eAVEWlciGtQU,1,2024-05-31_18h13.05.067,interaction task,2021.2.3,Win32,60.60606061,120825,,,,,,,,,,,,,,,,,Greater,Smaller,,0.298682284,-0.533854167,1,0,0,RightButton,"[""RightButton""]",60,3.9754,space,,,,,,,,,,,,,,0,19,19,19,1,2,only_sub_right.png,0,RandomDot33.png,No answer,21,,,,0.7194
,,,,,,,,,,,,,,,,,,,,,,,,,,,,,,,R_742eAVEWlciGtQU,1,2024-05-31_18h13.05.067,interaction task,2021.2.3,Win32,60.60606061,120825,,,,,,,,,,,,,,,,,Smaller,Greater,,0.357247438,-0.4765625,1,0,0,RightButton,"[""RightButton""]",,,,2.521961933,2.4928,space,,,,,,,,,,,0,20,20,20,1,2,only_sub_right.png,1,RandomDot25.png,No answer,19,0.3126,,,
,,,,,,,,,,,,,,,,,,,,,,,,,,,,,,,R_742eAVEWlciGtQU,1,2024-05-31_18h13.05.067,interaction task,2021.2.3,Win32,60.60606061,120825,,,,,,,,,,,,,,,,,Greater,Smaller,,0.225475842,-0.544270833,1,0,0,RightButton,"[""RightButton""]",,,,,,,,,,,,90.96602925,3.0497,space,16.28066906,6.2737,0,21,21,21,1,1,both_wrong.png,3,RandomDot40.png,No answer,21,,,1.6576,
,,,,,,,,,,,,,,,,,,,,,,,,,,,,,,,R_742eAVEWlciGtQU,1,2024-05-31_18h13.05.067,interaction task,2021.2.3,Win32,60.60606061,120825,,,,,,,,,,,,,,,,,Smaller,Greater,,-0.244509517,-0.5234375,1,0,0,LeftButton,"[""LeftButton""]",,,,,,,,,,,,,,,,,0,22,22,22,1,0,both_right.png,3,RandomDot13.png,No answer,19,,,,
,,,,,,,,,,,,,,,,,,,,,,,,,,,,,,,R_742eAVEWlciGtQU,1,2024-05-31_18h13.05.067,interaction task,2021.2.3,Win32,60.60606061,120825,,,,,,,,,,,,,,,,,Greater,Smaller,,0.395314788,-0.497395833,1,0,0,RightButton,"[""RightButton""]",57,3.7345,space,,,,,,,,,,,,,,0,23,23,23,1,2,only_sub_right.png,0,RandomDot8.png,No answer,20,,,,0.8774
,,,,,,,,,,,,,,,,,,,,,,,,,,,,,,,R_742eAVEWlciGtQU,1,2024-05-31_18h13.05.067,interaction task,2021.2.3,Win32,60.60606061,120825,,,,,,,,,,,,,,,,,Greater,Smaller,,0.250366032,-0.502604167,1,0,0,RightButton,"[""RightButton""]",,,,2.5,2.9254,space,,,,,,,,,,,0,24,24,24,1,1,both_wrong.png,1,RandomDot6.png,No answer,20,0.5666,,,
,,,,,,,,,,,,,,,,,,,,,,,,,,,,,,,R_742eAVEWlciGtQU,1,2024-05-31_18h13.05.067,interaction task,2021.2.3,Win32,60.60606061,120825,,,,,,,,,,,,,,,,,Greater,Smaller,,-0.257686676,-0.458333333,1,0,0,LeftButton,"[""LeftButton""]",,,,2.997803807,1.8,space,,,,,,,,,,,0,25,25,25,1,3,only_sub_wrong.png,1,RandomDot1.png,No answer,19,0.2527,,,
,,,,,,,,,,,,,,,,,,,,,,,,,,,,,,,R_742eAVEWlciGtQU,1,2024-05-31_18h13.05.067,interaction task,2021.2.3,Win32,60.60606061,120825,,,,,,,,,,,,,,,,,Greater,Smaller,,0.213762811,-0.513020833,1,0,0,RightButton,"[""RightButton""]",71,2.545,space,,,,,,,,,,,,,,0,26,26,26,1,1,both_wrong.png,0,RandomDot12.png,No answer,21,,,,0.5836
,,,,,,,,,,,,,,,,,,,,,,,,,,,,,,,R_742eAVEWlciGtQU,1,2024-05-31_18h13.05.067,interaction task,2021.2.3,Win32,60.60606061,120825,,,,,,,,,,,,,,,,,Greater,Smaller,,0.292825769,-0.541666667,1,0,0,RightButton,"[""RightButton""]",76,2.138,space,,,,,,,,,,,,,,0,27,27,27,1,3,only_sub_wrong.png,0,RandomDot33.png,No answer,19,,,,0.3369
,,,,,,,,,,,,,,,,,,,,,,,,,,,,,,,R_742eAVEWlciGtQU,1,2024-05-31_18h13.05.067,interaction task,2021.2.3,Win32,60.60606061,120825,,,,,,,,,,,,,,,,,Greater,Smaller,,0.281112738,-0.5390625,1,0,0,RightButton,"[""RightButton""]",,,,,,,84,2.5267,space,62,10.4335,,,,,,0,28,28,28,1,3,only_sub_wrong.png,2,RandomDot39.png,No answer,20,,6.5109,,
,,,,,,,,,,,,,,,,,,,,,,,,,,,,,,,R_742eAVEWlciGtQU,1,2024-05-31_18h13.05.067,interaction task,2021.2.3,Win32,60.60606061,120825,,,,,,,,,,,,,,,,,Greater,Smaller,,0.257686676,-0.515625,1,0,0,RightButton,"[""RightButton""]",,,,,,,80,2.2739,space,49,4.5997,,,,,,0,29,29,29,1,1,both_wrong.png,2,RandomDot9.png,No answer,21,,0.5586,,
,,,,,,,,,,,,,,,,,,,,,,,,,,,,,,,R_742eAVEWlciGtQU,1,2024-05-31_18h13.05.067,interaction task,2021.2.3,Win32,60.60606061,120825,,,,,,,,,,,,,,,,,Smaller,Greater,,0.245973646,-0.533854167,1,0,0,RightButton,"[""RightButton""]",62,2.8523,space,,,,,,,,,,,,,,0,30,30,30,1,1,both_wrong.png,0,RandomDot23.png,No answer,20,,,,0.3011
,,,,,,,,,,,,,,,,,,,,,,,,,,,,,,,R_742eAVEWlciGtQU,1,2024-05-31_18h13.05.067,interaction task,2021.2.3,Win32,60.60606061,120825,,,,,,,,,,,,,,,,,Greater,Smaller,,0.294289898,-0.513020833,1,0,0,RightButton,"[""RightButton""]",,,,,,,,,,,,89.19132762,2.8196,space,18.6469379,4.5336,0,31,31,31,1,3,only_sub_wrong.png,3,RandomDot20.png,No answer,20,,,0.3051,
,,,,,,,,,,,,,,,,,,,,,,,,,,,,,,,R_742eAVEWlciGtQU,1,2024-05-31_18h13.05.067,interaction task,2021.2.3,Win32,60.60606061,120825,,,,,,,,,,,,,,,,,Greater,Smaller,,0.273792094,-0.505208333,1,0,0,RightButton,"[""RightButton""]",,,,,,,63,4.0228,space,59,6.3129,,,,,,0,32,32,32,1,3,only_sub_wrong.png,2,RandomDot38.png,No answer,21,,0.2663,,
,,,,,,,,,,,,,,,,,,,,,,,,,,,,,,,R_742eAVEWlciGtQU,1,2024-05-31_18h13.05.067,interaction task,2021.2.3,Win32,60.60606061,120825,,,,,,,,,,,,,,,,,Greater,Smaller,,0.29136164,-0.536458333,1,0,0,RightButton,"[""RightButton""]",,,,,,,,,,,,89.93078664,3.0416,space,24.11893459,4.6787,0,33,33,33,1,2,only_sub_right.png,3,RandomDot36.png,No answer,20,,,0.2839,
,,,,,,,,,,,,,,,,,,,,,,,,,,,,,,,R_742eAVEWlciGtQU,1,2024-05-31_18h13.05.067,interaction task,2021.2.3,Win32,60.60606061,120825,,,,,,,,,,,,,,,,,Greater,Smaller,,-0.267935578,-0.5078125,1,0,0,LeftButton,"[""LeftButton""]",50,3.0255,space,,,,,,,,,,,,,,0,34,34,34,1,2,only_sub_right.png,0,RandomDot18.png,No answer,21,,,,0.3429
,,,,,,,,,,,,,,,,,,,,,,,,,,,,,,,R_742eAVEWlciGtQU,1,2024-05-31_18h13.05.067,interaction task,2021.2.3,Win32,60.60606061,120825,,,,,,,,,,,,,,,,,Greater,Smaller,,0.29136164,-0.5234375,1,0,0,RightButton,"[""RightButton""]",,,,,,,,,,,,86.08559978,2.5692,space,14.06229203,5.5926,0,35,35,35,1,3,only_sub_wrong.png,3,RandomDot8.png,No answer,21,,,0.2857,
,,,,,,,,,,,,,,,,,,,,,,,,,,,,,,,R_742eAVEWlciGtQU,1,2024-05-31_18h13.05.067,interaction task,2021.2.3,Win32,60.60606061,120825,,,,,,,,,,,,,,,,,Greater,Smaller,,0.361639824,-0.515625,1,0,0,RightButton,"[""RightButton""]",53,2.1251,space,,,,,,,,,,,,,,0,36,36,36,1,1,both_wrong.png,0,RandomDot32.png,No answer,19,,,,0.3191
,,,,,,,,,,,,,,,,,,,,,,,,,,,,,,,R_742eAVEWlciGtQU,1,2024-05-31_18h13.05.067,interaction task,2021.2.3,Win32,60.60606061,120825,,,,,,,,,,,,,,,,,Greater,Smaller,,0.27818448,-0.53125,1,0,0,RightButton,"[""RightButton""]",,,,,,,50,4.1226,space,71,7.4164,,,,,,0,37,37,37,1,1,both_wrong.png,2,RandomDot13.png,No answer,21,,0.2862,,
,,,,,,,,,,,,,,,,,,,,,,,,,,,,,,,R_742eAVEWlciGtQU,1,2024-05-31_18h13.05.067,interaction task,2021.2.3,Win32,60.60606061,120825,,,,,,,,,,,,,,,,,Greater,Smaller,,-0.256222548,-0.494791667,1,0,0,LeftButton,"[""LeftButton""]",,,,,,,,,,,,78.98679326,3.4854,space,26.78098703,7.0327,0,38,38,38,1,1,both_wrong.png,3,RandomDot6.png,No answer,20,,,1.0373,
,,,,,,,,,,,,,,,,,,,,,,,,,,,,,,,R_742eAVEWlciGtQU,1,2024-05-31_18h13.05.067,interaction task,2021.2.3,Win32,60.60606061,120825,,,,,,,,,,,,,,,,,Smaller,Greater,,-0.319180088,-0.494791667,1,0,0,LeftButton,"[""LeftButton""]",,,,2.719619327,2.8932,space,,,,,,,,,,,0,39,39,39,1,1,both_wrong.png,1,RandomDot29.png,No answer,19,0.2711,,,
,,,,,,,,,,,,,,,,,,,,,,,,,,,,,,,R_742eAVEWlciGtQU,1,2024-05-31_18h13.05.067,interaction task,2021.2.3,Win32,60.60606061,120825,,,,,,,,,,,,,,,,,Smaller,Greater,,0.281112738,-0.526041667,1,0,0,RightButton,"[""RightButton""]",,,,,,,67,4.1966,space,66,7.4486,,,,,,0,40,40,40,1,1,both_wrong.png,2,RandomDot19.png,No answer,19,,0.3709,,
,,,,,,,,,,,,,,,,,,,,,,,,,,,,,,,R_742eAVEWlciGtQU,1,2024-05-31_18h13.05.067,interaction task,2021.2.3,Win32,60.60606061,120825,,,,,,,,,,,,,,,,,Smaller,Greater,,0.269399707,-0.486979167,1,0,0,RightButton,"[""RightButton""]",52,2.4713,space,,,,,,,,,,,,,,0,41,41,41,1,3,only_sub_wrong.png,0,RandomDot9.png,No answer,19,,,,0.4038
