choose_trial,key_resp.keys,key_resp.rt,key_resp_4.keys,key_resp_4.rt,session_trait,slider_face_judge.response,slider_face_judge.rt,key_resp_3.keys,key_resp_3.rt,face_loop.thisRepN,face_loop.thisTrialN,face_loop.thisN,face_loop.thisIndex,face_loop.ran,face_serial,image_name,isCheck,answer,check_question,participant,session,date,expName,psychopyVersion,OS,frameRate,SONAid,session.thisRepN,session.thisTrialN,session.thisN,session.thisIndex,session.ran,session_serial,slider_judge_img
"[0,1,2,3,4,5,6,7,8,9,10,11,12,13,14,15,16,17,18,19,20,21,22,23,24,25,26,27,28,29,30,31,32,33,34,35,36,37,38,39,40,41,42,43,44,45,46,47,48,49,50,52,59]",space,9.0899,space,29.9329,competent,3.979782447,6.8524,space,1.296,0,0,0,42,1,43,image/43.jpg,0,0,,R_75PkJGK4ZpN5clP,2,2024-05-12_15h54.03.081,face trait task,2021.2.3,MacIntel,61.34969325,120298,,,,,,,
,,,,,,2.995252642,6.24,space,0.1932,0,1,1,36,1,37,image/37.jpg,0,0,,R_75PkJGK4ZpN5clP,2,2024-05-12_15h54.03.081,face trait task,2021.2.3,MacIntel,61.34969325,120298,,,,,,,
,,,,,,5.024995872,7.2392,space,1.5529,0,2,2,35,1,36,image/36.jpg,0,0,,R_75PkJGK4ZpN5clP,2,2024-05-12_15h54.03.081,face trait task,2021.2.3,MacIntel,61.34969325,120298,,,,,,,
,,,,,,4.411379211,4.5559,space,2.0609,0,3,3,20,1,21,image/21.jpg,0,0,,R_75PkJGK4ZpN5clP,2,2024-05-12_15h54.03.081,face trait task,2021.2.3,MacIntel,61.34969325,120298,,,,,,,
,,,,,,3.199161988,3.7232,space,5.2662,0,4,4,15,1,16,image/16.jpg,0,0,,R_75PkJGK4ZpN5clP,2,2024-05-12_15h54.03.081,face trait task,2021.2.3,MacIntel,61.34969325,120298,,,,,,,
,,,,,,4.005882596,9.1552,space,0.4009,0,5,5,49,1,50,image/50.jpg,0,0,,R_75PkJGK4ZpN5clP,2,2024-05-12_15h54.03.081,face trait task,2021.2.3,MacIntel,61.34969325,120298,,,,,,,
,,,,,,5.692206077,3.4015,space,7.7,0,6,6,48,1,49,image/49.jpg,0,0,,R_75PkJGK4ZpN5clP,2,2024-05-12_15h54.03.081,face trait task,2021.2.3,MacIntel,61.34969325,120298,,,,,,,
,,,,,,6.507719617,2.5951,space,3.4827,0,7,7,3,1,4,image/4.jpg,0,0,,R_75PkJGK4ZpN5clP,2,2024-05-12_15h54.03.081,face trait task,2021.2.3,MacIntel,61.34969325,120298,,,,,,,
,,,,,,5.465106919,3.0379,space,1.9364,0,8,8,9,1,10,image/10.jpg,0,0,,R_75PkJGK4ZpN5clP,2,2024-05-12_15h54.03.081,face trait task,2021.2.3,MacIntel,61.34969325,120298,,,,,,,
,,,,,,4.007492569,9.6808,space,0.6349,0,9,9,34,1,35,image/35.jpg,0,0,,R_75PkJGK4ZpN5clP,2,2024-05-12_15h54.03.081,face trait task,2021.2.3,MacIntel,61.34969325,120298,,,,,,,
,,,,,,4.014954178,9.5127,space,0.2906,0,10,10,25,1,26,image/26.jpg,0,0,,R_75PkJGK4ZpN5clP,2,2024-05-12_15h54.03.081,face trait task,2021.2.3,MacIntel,61.34969325,120298,,,,,,,
,,,,,,4.963538227,1.9831,space,12.021,0,11,11,21,1,22,image/22.jpg,0,0,,R_75PkJGK4ZpN5clP,2,2024-05-12_15h54.03.081,face trait task,2021.2.3,MacIntel,61.34969325,120298,,,,,,,
,,,,,,3.999814234,6.1874,space,0.5424,0,12,12,30,1,31,image/31.jpg,0,0,,R_75PkJGK4ZpN5clP,2,2024-05-12_15h54.03.081,face trait task,2021.2.3,MacIntel,61.34969325,120298,,,,,,,
,,,,,,4.935487533,2.119,space,7.0038,0,13,13,6,1,7,image/7.jpg,0,0,,R_75PkJGK4ZpN5clP,2,2024-05-12_15h54.03.081,face trait task,2021.2.3,MacIntel,61.34969325,120298,,,,,,,
,,,,,,5.085555647,9.2978,space,0.3409,0,14,14,10,1,11,image/11.jpg,0,0,,R_75PkJGK4ZpN5clP,2,2024-05-12_15h54.03.081,face trait task,2021.2.3,MacIntel,61.34969325,120298,,,,,,,
,,,,,,3.085906539,16.6626,space,0.6391,0,15,15,26,1,27,image/27.jpg,0,0,,R_75PkJGK4ZpN5clP,2,2024-05-12_15h54.03.081,face trait task,2021.2.3,MacIntel,61.34969325,120298,,,,,,,
,,,,,,3.206344947,2.272,space,3.5644,0,16,16,27,1,28,image/28.jpg,0,0,,R_75PkJGK4ZpN5clP,2,2024-05-12_15h54.03.081,face trait task,2021.2.3,MacIntel,61.34969325,120298,,,,,,,
,,,,,,3.689089333,10.8349,space,0.8697,0,17,17,44,1,45,image/45.jpg,0,0,,R_75PkJGK4ZpN5clP,2,2024-05-12_15h54.03.081,face trait task,2021.2.3,MacIntel,61.34969325,120298,,,,,,,
,,,,,,2.016450627,7.8655,space,0.4533,0,18,18,47,1,48,image/48.jpg,0,0,,R_75PkJGK4ZpN5clP,2,2024-05-12_15h54.03.081,face trait task,2021.2.3,MacIntel,61.34969325,120298,,,,,,,
,,,,,,2.003849488,10.944,space,0.6733,0,19,19,18,1,19,image/19.jpg,0,0,,R_75PkJGK4ZpN5clP,2,2024-05-12_15h54.03.081,face trait task,2021.2.3,MacIntel,61.34969325,120298,,,,,,,
,,,,,,2.300456159,6.7443,space,0.6898,0,20,20,2,1,3,image/3.jpg,0,0,,R_75PkJGK4ZpN5clP,2,2024-05-12_15h54.03.081,face trait task,2021.2.3,MacIntel,61.34969325,120298,,,,,,,
,,,,,,3.924981423,5.0738,space,0.5598,0,21,21,46,1,47,image/47.jpg,0,0,,R_75PkJGK4ZpN5clP,2,2024-05-12_15h54.03.081,face trait task,2021.2.3,MacIntel,61.34969325,120298,,,,,,,
,,,,,,5.197603616,5.7896,space,0.8413,0,22,22,39,1,40,image/40.jpg,0,0,,R_75PkJGK4ZpN5clP,2,2024-05-12_15h54.03.081,face trait task,2021.2.3,MacIntel,61.34969325,120298,,,,,,,
,,,,,,3.844792355,5.5905,space,0.4091,0,23,23,38,1,39,image/39.jpg,0,0,,R_75PkJGK4ZpN5clP,2,2024-05-12_15h54.03.081,face trait task,2021.2.3,MacIntel,61.34969325,120298,,,,,,,
,,,,,,3.314244138,8.6969,space,10.6565,0,24,24,11,1,12,image/12.jpg,0,0,,R_75PkJGK4ZpN5clP,2,2024-05-12_15h54.03.081,face trait task,2021.2.3,MacIntel,61.34969325,120298,,,,,,,
,,,,,,1.320415703,9.2202,space,0.4352,0,25,25,32,1,33,image/33.jpg,0,0,,R_75PkJGK4ZpN5clP,2,2024-05-12_15h54.03.081,face trait task,2021.2.3,MacIntel,61.34969325,120298,,,,,,,
,,,,,,2.279526503,2.0973,space,0.385,0,26,26,12,1,13,image/13.jpg,0,0,,R_75PkJGK4ZpN5clP,2,2024-05-12_15h54.03.081,face trait task,2021.2.3,MacIntel,61.34969325,120298,,,,,,,
,,,,,,3.081881605,1.9627,space,0.9672,0,27,27,31,1,32,image/32.jpg,0,0,,R_75PkJGK4ZpN5clP,2,2024-05-12_15h54.03.081,face trait task,2021.2.3,MacIntel,61.34969325,120298,,,,,,,
,,,,,,4.135609313,1.7782,space,1.5376,0,28,28,8,1,9,image/9.jpg,0,0,,R_75PkJGK4ZpN5clP,2,2024-05-12_15h54.03.081,face trait task,2021.2.3,MacIntel,61.34969325,120298,,,,,,,
,,,,,,3.357775347,6.5462,space,4.3147,0,29,29,41,1,42,image/42.jpg,0,0,,R_75PkJGK4ZpN5clP,2,2024-05-12_15h54.03.081,face trait task,2021.2.3,MacIntel,61.34969325,120298,,,,,,,
,,,,,,4.041054326,7.1014,space,0.6434,0,30,30,40,1,41,image/41.jpg,0,0,,R_75PkJGK4ZpN5clP,2,2024-05-12_15h54.03.081,face trait task,2021.2.3,MacIntel,61.34969325,120298,,,,,,,
,,,,,,3.314770476,12.0299,space,0.3733,0,31,31,17,1,18,image/18.jpg,0,0,,R_75PkJGK4ZpN5clP,2,2024-05-12_15h54.03.081,face trait task,2021.2.3,MacIntel,61.34969325,120298,,,,,,,
,,,,,,4.127838094,9.5119,space,7.1022,0,32,32,28,1,29,image/29.jpg,0,0,,R_75PkJGK4ZpN5clP,2,2024-05-12_15h54.03.081,face trait task,2021.2.3,MacIntel,61.34969325,120298,,,,,,,
,,,,,,3.866155466,11.4721,space,0.484,0,33,33,33,1,34,image/34.jpg,0,0,,R_75PkJGK4ZpN5clP,2,2024-05-12_15h54.03.081,face trait task,2021.2.3,MacIntel,61.34969325,120298,,,,,,,
,,,,,,4.016873762,9.763,space,0.1628,0,34,34,23,1,24,image/24.jpg,0,0,,R_75PkJGK4ZpN5clP,2,2024-05-12_15h54.03.081,face trait task,2021.2.3,MacIntel,61.34969325,120298,,,,,,,
,,,,,,4.078052758,8.1993,space,1.0987,0,35,35,50,1,51,image/fill_img.png,1,1,Please move the slider all the way to the LEFT to show that you are paying attention.,R_75PkJGK4ZpN5clP,2,2024-05-12_15h54.03.081,face trait task,2021.2.3,MacIntel,61.34969325,120298,,,,,,,
,,,,,,1.0342429,5.0979,space,0.9849,0,36,36,51,1,53,image/fill_img.png,1,1,Please move the slider all the way to the LEFT to show that you are paying attention.,R_75PkJGK4ZpN5clP,2,2024-05-12_15h54.03.081,face trait task,2021.2.3,MacIntel,61.34969325,120298,,,,,,,
,,,,,,3.376785419,2.0625,space,0.3556,0,37,37,14,1,15,image/15.jpg,0,0,,R_75PkJGK4ZpN5clP,2,2024-05-12_15h54.03.081,face trait task,2021.2.3,MacIntel,61.34969325,120298,,,,,,,
,,,,,,3.031724736,1.5652,space,0.6341,0,38,38,16,1,17,image/17.jpg,0,0,,R_75PkJGK4ZpN5clP,2,2024-05-12_15h54.03.081,face trait task,2021.2.3,MacIntel,61.34969325,120298,,,,,,,
,,,,,,2.969028649,1.4341,space,0.4989,0,39,39,19,1,20,image/20.jpg,0,0,,R_75PkJGK4ZpN5clP,2,2024-05-12_15h54.03.081,face trait task,2021.2.3,MacIntel,61.34969325,120298,,,,,,,
,,,,,,4.539836526,1.7079,space,0.9803,0,40,40,1,1,2,image/2.jpg,0,0,,R_75PkJGK4ZpN5clP,2,2024-05-12_15h54.03.081,face trait task,2021.2.3,MacIntel,61.34969325,120298,,,,,,,
,,,,,,3.978791694,1.7037,space,0.3852,0,41,41,37,1,38,image/38.jpg,0,0,,R_75PkJGK4ZpN5clP,2,2024-05-12_15h54.03.081,face trait task,2021.2.3,MacIntel,61.34969325,120298,,,,,,,
,,,,,,5.15565142,1.691,space,0.6736,0,42,42,5,1,6,image/6.jpg,0,0,,R_75PkJGK4ZpN5clP,2,2024-05-12_15h54.03.081,face trait task,2021.2.3,MacIntel,61.34969325,120298,,,,,,,
,,,,,,3.561932381,1.4859,space,0.6921,0,43,43,4,1,5,image/5.jpg,0,0,,R_75PkJGK4ZpN5clP,2,2024-05-12_15h54.03.081,face trait task,2021.2.3,MacIntel,61.34969325,120298,,,,,,,
,,,,,,2.225097011,1.7301,space,0.9481,0,44,44,7,1,8,image/8.jpg,0,0,,R_75PkJGK4ZpN5clP,2,2024-05-12_15h54.03.081,face trait task,2021.2.3,MacIntel,61.34969325,120298,,,,,,,
,,,,,,6.952103286,2.4826,space,0.5675,0,45,45,52,1,60,image/fill_img.png,1,7,Please move the slider all the way to the RIGHT to show that you are paying attention.,R_75PkJGK4ZpN5clP,2,2024-05-12_15h54.03.081,face trait task,2021.2.3,MacIntel,61.34969325,120298,,,,,,,
,,,,,,3.326257018,1.3158,space,0.3526,0,46,46,45,1,46,image/46.jpg,0,0,,R_75PkJGK4ZpN5clP,2,2024-05-12_15h54.03.081,face trait task,2021.2.3,MacIntel,61.34969325,120298,,,,,,,
,,,,,,3.953651338,1.2356,space,0.6367,0,47,47,29,1,30,image/30.jpg,0,0,,R_75PkJGK4ZpN5clP,2,2024-05-12_15h54.03.081,face trait task,2021.2.3,MacIntel,61.34969325,120298,,,,,,,
,,,,,,2.995995707,1.6798,space,0.238,0,48,48,24,1,25,image/25.jpg,0,0,,R_75PkJGK4ZpN5clP,2,2024-05-12_15h54.03.081,face trait task,2021.2.3,MacIntel,61.34969325,120298,,,,,,,
,,,,,,4.208027163,1.1632,space,0.3554,0,49,49,43,1,44,image/44.jpg,0,0,,R_75PkJGK4ZpN5clP,2,2024-05-12_15h54.03.081,face trait task,2021.2.3,MacIntel,61.34969325,120298,,,,,,,
,,,,,,3.468894485,1.046,space,0.2679,0,50,50,13,1,14,image/14.jpg,0,0,,R_75PkJGK4ZpN5clP,2,2024-05-12_15h54.03.081,face trait task,2021.2.3,MacIntel,61.34969325,120298,,,,,,,
,,,,,,4.825823563,1.086,space,0.7016,0,51,51,0,1,1,image/1.jpg,0,0,,R_75PkJGK4ZpN5clP,2,2024-05-12_15h54.03.081,face trait task,2021.2.3,MacIntel,61.34969325,120298,,,,,,,
,,,,,,3.15566174,1.1968,space,0.2477,0,52,52,22,1,23,image/23.jpg,0,0,,R_75PkJGK4ZpN5clP,2,2024-05-12_15h54.03.081,face trait task,2021.2.3,MacIntel,61.34969325,120298,,,,,,,
,,,,,,,,,,,,,,,,,,,,R_75PkJGK4ZpN5clP,2,2024-05-12_15h54.03.081,face trait task,2021.2.3,MacIntel,61.34969325,120298,0,0,0,1,1,1,competent.png
,,,,,critical,3.228265357,2.4573,space,0.3799,0,0,0,12,1,13,image/13.jpg,0,0,,R_75PkJGK4ZpN5clP,2,2024-05-12_15h54.03.081,face trait task,2021.2.3,MacIntel,61.34969325,120298,,,,,,,
,,,,,,5.345752147,3.705,space,0.1629,0,1,1,31,1,32,image/32.jpg,0,0,,R_75PkJGK4ZpN5clP,2,2024-05-12_15h54.03.081,face trait task,2021.2.3,MacIntel,61.34969325,120298,,,,,,,
,,,,,,5.077041364,2.9315,space,2.0482,0,2,2,34,1,35,image/35.jpg,0,0,,R_75PkJGK4ZpN5clP,2,2024-05-12_15h54.03.081,face trait task,2021.2.3,MacIntel,61.34969325,120298,,,,,,,
,,,,,,4.683155135,7.5824,space,1.0793,0,3,3,17,1,18,image/18.jpg,0,0,,R_75PkJGK4ZpN5clP,2,2024-05-12_15h54.03.081,face trait task,2021.2.3,MacIntel,61.34969325,120298,,,,,,,
,,,,,,3.965633256,2.3123,space,0.2389,0,4,4,39,1,40,image/40.jpg,0,0,,R_75PkJGK4ZpN5clP,2,2024-05-12_15h54.03.081,face trait task,2021.2.3,MacIntel,61.34969325,120298,,,,,,,
,,,,,,2.970576701,2.2392,space,0.4514,0,5,5,4,1,5,image/5.jpg,0,0,,R_75PkJGK4ZpN5clP,2,2024-05-12_15h54.03.081,face trait task,2021.2.3,MacIntel,61.34969325,120298,,,,,,,
,,,,,,5.148004046,2.2179,space,1.6833,0,6,6,5,1,6,image/6.jpg,0,0,,R_75PkJGK4ZpN5clP,2,2024-05-12_15h54.03.081,face trait task,2021.2.3,MacIntel,61.34969325,120298,,,,,,,
,,,,,,3.309011724,2.1625,space,0.2563,0,7,7,38,1,39,image/39.jpg,0,0,,R_75PkJGK4ZpN5clP,2,2024-05-12_15h54.03.081,face trait task,2021.2.3,MacIntel,61.34969325,120298,,,,,,,
,,,,,,3.025625413,1.7699,space,0.4697,0,8,8,37,1,38,image/38.jpg,0,0,,R_75PkJGK4ZpN5clP,2,2024-05-12_15h54.03.081,face trait task,2021.2.3,MacIntel,61.34969325,120298,,,,,,,
,,,,,,5.092274191,2.0963,space,0.4478,0,9,9,16,1,17,image/17.jpg,0,0,,R_75PkJGK4ZpN5clP,2,2024-05-12_15h54.03.081,face trait task,2021.2.3,MacIntel,61.34969325,120298,,,,,,,
,,,,,,3.589518659,6.5292,space,1.1345,0,10,10,20,1,21,image/21.jpg,0,0,,R_75PkJGK4ZpN5clP,2,2024-05-12_15h54.03.081,face trait task,2021.2.3,MacIntel,61.34969325,120298,,,,,,,
,,,,,,6.239566133,1.8297,space,0.7707,0,11,11,2,1,3,image/3.jpg,0,0,,R_75PkJGK4ZpN5clP,2,2024-05-12_15h54.03.081,face trait task,2021.2.3,MacIntel,61.34969325,120298,,,,,,,
,,,,,,4.985427675,1.3531,space,0.4338,0,12,12,46,1,47,image/47.jpg,0,0,,R_75PkJGK4ZpN5clP,2,2024-05-12_15h54.03.081,face trait task,2021.2.3,MacIntel,61.34969325,120298,,,,,,,
,,,,,,4.323697573,10.3684,space,2.1351,0,13,13,8,1,9,image/9.jpg,0,0,,R_75PkJGK4ZpN5clP,2,2024-05-12_15h54.03.081,face trait task,2021.2.3,MacIntel,61.34969325,120298,,,,,,,
,,,,,,2.119024521,2.9133,space,0.339,0,14,14,43,1,44,image/44.jpg,0,0,,R_75PkJGK4ZpN5clP,2,2024-05-12_15h54.03.081,face trait task,2021.2.3,MacIntel,61.34969325,120298,,,,,,,
,,,,,,4.486119138,2.7552,space,0.5767,0,15,15,13,1,14,image/14.jpg,0,0,,R_75PkJGK4ZpN5clP,2,2024-05-12_15h54.03.081,face trait task,2021.2.3,MacIntel,61.34969325,120298,,,,,,,
,,,,,,6.42759247,2.1059,space,0.6661,0,16,16,29,1,30,image/30.jpg,0,0,,R_75PkJGK4ZpN5clP,2,2024-05-12_15h54.03.081,face trait task,2021.2.3,MacIntel,61.34969325,120298,,,,,,,
,,,,,,6.829900099,2.0877,space,0.3843,0,17,17,35,1,36,image/36.jpg,0,0,,R_75PkJGK4ZpN5clP,2,2024-05-12_15h54.03.081,face trait task,2021.2.3,MacIntel,61.34969325,120298,,,,,,,
,,,,,,5.766481589,2.7373,space,0.6303,0,18,18,0,1,1,image/1.jpg,0,0,,R_75PkJGK4ZpN5clP,2,2024-05-12_15h54.03.081,face trait task,2021.2.3,MacIntel,61.34969325,120298,,,,,,,
,,,,,,4.048639779,6.1299,space,7.7684,0,19,19,21,1,22,image/22.jpg,0,0,,R_75PkJGK4ZpN5clP,2,2024-05-12_15h54.03.081,face trait task,2021.2.3,MacIntel,61.34969325,120298,,,,,,,
,,,,,,1.995737698,2.5732,space,0.4398,0,20,20,23,1,24,image/24.jpg,0,0,,R_75PkJGK4ZpN5clP,2,2024-05-12_15h54.03.081,face trait task,2021.2.3,MacIntel,61.34969325,120298,,,,,,,
,,,,,,3.565585783,2.4978,space,0.5054,0,21,21,14,1,15,image/15.jpg,0,0,,R_75PkJGK4ZpN5clP,2,2024-05-12_15h54.03.081,face trait task,2021.2.3,MacIntel,61.34969325,120298,,,,,,,
,,,,,,1.017183372,10.8643,space,0.9818,0,22,22,51,1,53,image/fill_img.png,1,1,Please move the slider all the way to the LEFT to show that you are paying attention.,R_75PkJGK4ZpN5clP,2,2024-05-12_15h54.03.081,face trait task,2021.2.3,MacIntel,61.34969325,120298,,,,,,,
,,,,,,1.834244964,2.5282,space,0.8217,0,23,23,24,1,25,image/25.jpg,0,0,,R_75PkJGK4ZpN5clP,2,2024-05-12_15h54.03.081,face trait task,2021.2.3,MacIntel,61.34969325,120298,,,,,,,
,,,,,,3.832407943,5.4324,space,0.8688,0,24,24,19,1,20,image/20.jpg,0,0,,R_75PkJGK4ZpN5clP,2,2024-05-12_15h54.03.081,face trait task,2021.2.3,MacIntel,61.34969325,120298,,,,,,,
,,,,,,6.937149108,2.2856,space,0.4185,0,25,25,52,1,60,image/fill_img.png,1,7,Please move the slider all the way to the RIGHT to show that you are paying attention.,R_75PkJGK4ZpN5clP,2,2024-05-12_15h54.03.081,face trait task,2021.2.3,MacIntel,61.34969325,120298,,,,,,,
,,,,,,3.764169832,2.1232,space,0.3205,0,26,26,44,1,45,image/45.jpg,0,0,,R_75PkJGK4ZpN5clP,2,2024-05-12_15h54.03.081,face trait task,2021.2.3,MacIntel,61.34969325,120298,,,,,,,
,,,,,,3.398086608,4.841,space,0.3573,0,27,27,11,1,12,image/12.jpg,0,0,,R_75PkJGK4ZpN5clP,2,2024-05-12_15h54.03.081,face trait task,2021.2.3,MacIntel,61.34969325,120298,,,,,,,
,,,,,,5.496532365,1.7796,space,3.0123,0,28,28,32,1,33,image/33.jpg,0,0,,R_75PkJGK4ZpN5clP,2,2024-05-12_15h54.03.081,face trait task,2021.2.3,MacIntel,61.34969325,120298,,,,,,,
,,,,,,4.054491413,1.392,space,0.3672,0,29,29,49,1,50,image/50.jpg,0,0,,R_75PkJGK4ZpN5clP,2,2024-05-12_15h54.03.081,face trait task,2021.2.3,MacIntel,61.34969325,120298,,,,,,,
,,,,,,5.551147622,5.1569,space,0.3447,0,30,30,26,1,27,image/27.jpg,0,0,,R_75PkJGK4ZpN5clP,2,2024-05-12_15h54.03.081,face trait task,2021.2.3,MacIntel,61.34969325,120298,,,,,,,
,,,,,,6.833894072,7.2493,space,0.5511,0,31,31,30,1,31,image/31.jpg,0,0,,R_75PkJGK4ZpN5clP,2,2024-05-12_15h54.03.081,face trait task,2021.2.3,MacIntel,61.34969325,120298,,,,,,,
,,,,,,6.435363689,1.738,space,0.3641,0,32,32,1,1,2,image/2.jpg,0,0,,R_75PkJGK4ZpN5clP,2,2024-05-12_15h54.03.081,face trait task,2021.2.3,MacIntel,61.34969325,120298,,,,,,,
,,,,,,6.174671813,1.9296,space,0.5001,0,33,33,3,1,4,image/4.jpg,0,0,,R_75PkJGK4ZpN5clP,2,2024-05-12_15h54.03.081,face trait task,2021.2.3,MacIntel,61.34969325,120298,,,,,,,
,,,,,,4.846288804,1.4469,space,0.5143,0,34,34,15,1,16,image/16.jpg,0,0,,R_75PkJGK4ZpN5clP,2,2024-05-12_15h54.03.081,face trait task,2021.2.3,MacIntel,61.34969325,120298,,,,,,,
,,,,,,4.514758091,2.8851,space,1.8023,0,35,35,47,1,48,image/48.jpg,0,0,,R_75PkJGK4ZpN5clP,2,2024-05-12_15h54.03.081,face trait task,2021.2.3,MacIntel,61.34969325,120298,,,,,,,
,,,,,,5.439749835,2.2621,space,1.2854,0,36,36,9,1,10,image/10.jpg,0,0,,R_75PkJGK4ZpN5clP,2,2024-05-12_15h54.03.081,face trait task,2021.2.3,MacIntel,61.34969325,120298,,,,,,,
,,,,,,6.07002353,7.3799,space,1.0007,0,37,37,25,1,26,image/26.jpg,0,0,,R_75PkJGK4ZpN5clP,2,2024-05-12_15h54.03.081,face trait task,2021.2.3,MacIntel,61.34969325,120298,,,,,,,
,,,,,,4.480793841,3.34,space,0.4238,0,38,38,10,1,11,image/11.jpg,0,0,,R_75PkJGK4ZpN5clP,2,2024-05-12_15h54.03.081,face trait task,2021.2.3,MacIntel,61.34969325,120298,,,,,,,
,,,,,,5.386032447,1.747,space,0.5012,0,39,39,7,1,8,image/8.jpg,0,0,,R_75PkJGK4ZpN5clP,2,2024-05-12_15h54.03.081,face trait task,2021.2.3,MacIntel,61.34969325,120298,,,,,,,
,,,,,,2.886827114,1.3874,space,0.8495,0,40,40,48,1,49,image/49.jpg,0,0,,R_75PkJGK4ZpN5clP,2,2024-05-12_15h54.03.081,face trait task,2021.2.3,MacIntel,61.34969325,120298,,,,,,,
,,,,,,3.183929161,7.1791,space,0.3486,0,41,41,28,1,29,image/29.jpg,0,0,,R_75PkJGK4ZpN5clP,2,2024-05-12_15h54.03.081,face trait task,2021.2.3,MacIntel,61.34969325,120298,,,,,,,
,,,,,,4.189791116,5.8882,space,0.2345,0,42,42,40,1,41,image/41.jpg,0,0,,R_75PkJGK4ZpN5clP,2,2024-05-12_15h54.03.081,face trait task,2021.2.3,MacIntel,61.34969325,120298,,,,,,,
,,,,,,2.818960535,4.5827,space,0.6714,0,43,43,6,1,7,image/7.jpg,0,0,,R_75PkJGK4ZpN5clP,2,2024-05-12_15h54.03.081,face trait task,2021.2.3,MacIntel,61.34969325,120298,,,,,,,
,,,,,,4.273912236,6.5285,space,1.2348,0,44,44,45,1,46,image/46.jpg,0,0,,R_75PkJGK4ZpN5clP,2,2024-05-12_15h54.03.081,face trait task,2021.2.3,MacIntel,61.34969325,120298,,,,,,,
,,,,,,1.824647044,2.379,space,0.5028,0,45,45,41,1,42,image/42.jpg,0,0,,R_75PkJGK4ZpN5clP,2,2024-05-12_15h54.03.081,face trait task,2021.2.3,MacIntel,61.34969325,120298,,,,,,,
,,,,,,2.444486873,7.4214,space,0.3607,0,46,46,33,1,34,image/34.jpg,0,0,,R_75PkJGK4ZpN5clP,2,2024-05-12_15h54.03.081,face trait task,2021.2.3,MacIntel,61.34969325,120298,,,,,,,
,,,,,,1.216727213,1.6963,space,0.3843,0,47,47,22,1,23,image/23.jpg,0,0,,R_75PkJGK4ZpN5clP,2,2024-05-12_15h54.03.081,face trait task,2021.2.3,MacIntel,61.34969325,120298,,,,,,,
,,,,,,4.397756357,5.2281,space,0.6371,0,48,48,42,1,43,image/43.jpg,0,0,,R_75PkJGK4ZpN5clP,2,2024-05-12_15h54.03.081,face trait task,2021.2.3,MacIntel,61.34969325,120298,,,,,,,
,,,,,,3.32331572,7.1772,space,5.4209,0,49,49,18,1,19,image/19.jpg,0,0,,R_75PkJGK4ZpN5clP,2,2024-05-12_15h54.03.081,face trait task,2021.2.3,MacIntel,61.34969325,120298,,,,,,,
,,,,,,1.151616166,2.1986,space,0.3677,0,50,50,50,1,51,image/fill_img.png,1,1,Please move the slider all the way to the LEFT to show that you are paying attention.,R_75PkJGK4ZpN5clP,2,2024-05-12_15h54.03.081,face trait task,2021.2.3,MacIntel,61.34969325,120298,,,,,,,
,,,,,,3.287153236,1.5939,space,0.3177,0,51,51,36,1,37,image/37.jpg,0,0,,R_75PkJGK4ZpN5clP,2,2024-05-12_15h54.03.081,face trait task,2021.2.3,MacIntel,61.34969325,120298,,,,,,,
,,,,,,4.223136146,1.7639,space,0.254,0,52,52,27,1,28,image/28.jpg,0,0,,R_75PkJGK4ZpN5clP,2,2024-05-12_15h54.03.081,face trait task,2021.2.3,MacIntel,61.34969325,120298,,,,,,,
,,,,,,,,,,,,,,,,,,,,R_75PkJGK4ZpN5clP,2,2024-05-12_15h54.03.081,face trait task,2021.2.3,MacIntel,61.34969325,120298,0,1,1,0,1,0,critical.png
,,,,,friendly,1.1448357,2.2082,space,0.5665,0,0,0,50,1,51,image/fill_img.png,1,1,Please move the slider all the way to the LEFT to show that you are paying attention.,R_75PkJGK4ZpN5clP,2,2024-05-12_15h54.03.081,face trait task,2021.2.3,MacIntel,61.34969325,120298,,,,,,,
,,,,,,4.503952692,2.1785,space,0.3513,0,1,1,26,1,27,image/27.jpg,0,0,,R_75PkJGK4ZpN5clP,2,2024-05-12_15h54.03.081,face trait task,2021.2.3,MacIntel,61.34969325,120298,,,,,,,
,,,,,,3.314151255,1.7907,space,0.1835,0,2,2,0,1,1,image/1.jpg,0,0,,R_75PkJGK4ZpN5clP,2,2024-05-12_15h54.03.081,face trait task,2021.2.3,MacIntel,61.34969325,120298,,,,,,,
,,,,,,4.194651998,2.8006,space,1.3643,0,3,3,31,1,32,image/32.jpg,0,0,,R_75PkJGK4ZpN5clP,2,2024-05-12_15h54.03.081,face trait task,2021.2.3,MacIntel,61.34969325,120298,,,,,,,
,,,,,,3.10578352,1.7134,space,1.1364,0,4,4,32,1,33,image/33.jpg,0,0,,R_75PkJGK4ZpN5clP,2,2024-05-12_15h54.03.081,face trait task,2021.2.3,MacIntel,61.34969325,120298,,,,,,,
,,,,,,5.677035172,1.8028,space,1.1189,0,5,5,24,1,25,image/25.jpg,0,0,,R_75PkJGK4ZpN5clP,2,2024-05-12_15h54.03.081,face trait task,2021.2.3,MacIntel,61.34969325,120298,,,,,,,
,,,,,,3.760361625,2.1025,space,1.5304,0,6,6,23,1,24,image/24.jpg,0,0,,R_75PkJGK4ZpN5clP,2,2024-05-12_15h54.03.081,face trait task,2021.2.3,MacIntel,61.34969325,120298,,,,,,,
,,,,,,4.785914795,6.2188,space,0.2835,0,7,7,43,1,44,image/44.jpg,0,0,,R_75PkJGK4ZpN5clP,2,2024-05-12_15h54.03.081,face trait task,2021.2.3,MacIntel,61.34969325,120298,,,,,,,
,,,,,,3.613110964,7.7102,space,0.5089,0,8,8,4,1,5,image/5.jpg,0,0,,R_75PkJGK4ZpN5clP,2,2024-05-12_15h54.03.081,face trait task,2021.2.3,MacIntel,61.34969325,120298,,,,,,,
,,,,,,1.373544832,2.9507,space,0.5643,0,9,9,30,1,31,image/31.jpg,0,0,,R_75PkJGK4ZpN5clP,2,2024-05-12_15h54.03.081,face trait task,2021.2.3,MacIntel,61.34969325,120298,,,,,,,
,,,,,,3.237058289,2.6473,space,1.5549,0,10,10,28,1,29,image/29.jpg,0,0,,R_75PkJGK4ZpN5clP,2,2024-05-12_15h54.03.081,face trait task,2021.2.3,MacIntel,61.34969325,120298,,,,,,,
,,,,,,3.743116331,9.6266,space,0.3693,0,11,11,37,1,38,image/38.jpg,0,0,,R_75PkJGK4ZpN5clP,2,2024-05-12_15h54.03.081,face trait task,2021.2.3,MacIntel,61.34969325,120298,,,,,,,
,,,,,,3.117610634,4.1803,space,0.184,0,12,12,9,1,10,image/10.jpg,0,0,,R_75PkJGK4ZpN5clP,2,2024-05-12_15h54.03.081,face trait task,2021.2.3,MacIntel,61.34969325,120298,,,,,,,
,,,,,,3.281766017,10.4066,space,1.2633,0,13,13,25,1,26,image/26.jpg,0,0,,R_75PkJGK4ZpN5clP,2,2024-05-12_15h54.03.081,face trait task,2021.2.3,MacIntel,61.34969325,120298,,,,,,,
,,,,,,3.539578517,10.2931,space,0.7886,0,14,14,8,1,9,image/9.jpg,0,0,,R_75PkJGK4ZpN5clP,2,2024-05-12_15h54.03.081,face trait task,2021.2.3,MacIntel,61.34969325,120298,,,,,,,
,,,,,,4.206757761,2.9692,space,0.4013,0,15,15,6,1,7,image/7.jpg,0,0,,R_75PkJGK4ZpN5clP,2,2024-05-12_15h54.03.081,face trait task,2021.2.3,MacIntel,61.34969325,120298,,,,,,,
,,,,,,1.143101882,8.0109,space,0.3733,0,16,16,51,1,53,image/fill_img.png,1,1,Please move the slider all the way to the LEFT to show that you are paying attention.,R_75PkJGK4ZpN5clP,2,2024-05-12_15h54.03.081,face trait task,2021.2.3,MacIntel,61.34969325,120298,,,,,,,
,,,,,,5.02824678,7.653,space,0.4292,0,17,17,33,1,34,image/34.jpg,0,0,,R_75PkJGK4ZpN5clP,2,2024-05-12_15h54.03.081,face trait task,2021.2.3,MacIntel,61.34969325,120298,,,,,,,
,,,,,,2.764995459,3.1309,space,1.5371,0,18,18,40,1,41,image/41.jpg,0,0,,R_75PkJGK4ZpN5clP,2,2024-05-12_15h54.03.081,face trait task,2021.2.3,MacIntel,61.34969325,120298,,,,,,,
,,,,,,4.418066793,2.5635,space,0.9355,0,19,19,39,1,40,image/40.jpg,0,0,,R_75PkJGK4ZpN5clP,2,2024-05-12_15h54.03.081,face trait task,2021.2.3,MacIntel,61.34969325,120298,,,,,,,
,,,,,,4.297194931,4.1303,space,0.488,0,20,20,19,1,20,image/20.jpg,0,0,,R_75PkJGK4ZpN5clP,2,2024-05-12_15h54.03.081,face trait task,2021.2.3,MacIntel,61.34969325,120298,,,,,,,
,,,,,,3.998018494,4.2358,space,1.482,0,21,21,44,1,45,image/45.jpg,0,0,,R_75PkJGK4ZpN5clP,2,2024-05-12_15h54.03.081,face trait task,2021.2.3,MacIntel,61.34969325,120298,,,,,,,
,,,,,,2.761930317,2.8909,space,0.4862,0,22,22,14,1,15,image/15.jpg,0,0,,R_75PkJGK4ZpN5clP,2,2024-05-12_15h54.03.081,face trait task,2021.2.3,MacIntel,61.34969325,120298,,,,,,,
,,,,,,4.51921648,3.0716,space,0.4177,0,23,23,17,1,18,image/18.jpg,0,0,,R_75PkJGK4ZpN5clP,2,2024-05-12_15h54.03.081,face trait task,2021.2.3,MacIntel,61.34969325,120298,,,,,,,
,,,,,,5.651894815,5.4902,space,0.3308,0,24,24,34,1,35,image/35.jpg,0,0,,R_75PkJGK4ZpN5clP,2,2024-05-12_15h54.03.081,face trait task,2021.2.3,MacIntel,61.34969325,120298,,,,,,,
,,,,,,4.005232414,2.9628,space,0.3359,0,25,25,42,1,43,image/43.jpg,0,0,,R_75PkJGK4ZpN5clP,2,2024-05-12_15h54.03.081,face trait task,2021.2.3,MacIntel,61.34969325,120298,,,,,,,
,,,,,,1.561075793,3.5806,space,0.4843,0,26,26,36,1,37,image/37.jpg,0,0,,R_75PkJGK4ZpN5clP,2,2024-05-12_15h54.03.081,face trait task,2021.2.3,MacIntel,61.34969325,120298,,,,,,,
,,,,,,5.680378963,2.4699,space,0.4471,0,27,27,49,1,50,image/50.jpg,0,0,,R_75PkJGK4ZpN5clP,2,2024-05-12_15h54.03.081,face trait task,2021.2.3,MacIntel,61.34969325,120298,,,,,,,
,,,,,,5.441390769,2.0798,space,0.2854,0,28,28,41,1,42,image/42.jpg,0,0,,R_75PkJGK4ZpN5clP,2,2024-05-12_15h54.03.081,face trait task,2021.2.3,MacIntel,61.34969325,120298,,,,,,,
,,,,,,5.173113441,5.2345,space,0.3513,0,29,29,11,1,12,image/12.jpg,0,0,,R_75PkJGK4ZpN5clP,2,2024-05-12_15h54.03.081,face trait task,2021.2.3,MacIntel,61.34969325,120298,,,,,,,
,,,,,,6.485984974,2.7644,space,0.6014,0,30,30,22,1,23,image/23.jpg,0,0,,R_75PkJGK4ZpN5clP,2,2024-05-12_15h54.03.081,face trait task,2021.2.3,MacIntel,61.34969325,120298,,,,,,,
,,,,,,3.022746037,9.6636,space,5.2847,0,31,31,18,1,19,image/19.jpg,0,0,,R_75PkJGK4ZpN5clP,2,2024-05-12_15h54.03.081,face trait task,2021.2.3,MacIntel,61.34969325,120298,,,,,,,
,,,,,,1.51742074,1.2972,space,0.65,0,32,32,47,1,48,image/48.jpg,0,0,,R_75PkJGK4ZpN5clP,2,2024-05-12_15h54.03.081,face trait task,2021.2.3,MacIntel,61.34969325,120298,,,,,,,
,,,,,,3.212939647,8.2812,space,0.2358,0,33,33,5,1,6,image/6.jpg,0,0,,R_75PkJGK4ZpN5clP,2,2024-05-12_15h54.03.081,face trait task,2021.2.3,MacIntel,61.34969325,120298,,,,,,,
,,,,,,3.150212599,6.4838,space,0.2659,0,34,34,21,1,22,image/22.jpg,0,0,,R_75PkJGK4ZpN5clP,2,2024-05-12_15h54.03.081,face trait task,2021.2.3,MacIntel,61.34969325,120298,,,,,,,
,,,,,,6.85785791,14.659,space,0.5229,0,35,35,52,1,60,image/fill_img.png,1,7,Please move the slider all the way to the RIGHT to show that you are paying attention.,R_75PkJGK4ZpN5clP,2,2024-05-12_15h54.03.081,face trait task,2021.2.3,MacIntel,61.34969325,120298,,,,,,,
,,,,,,3.5907571,1.617,space,0.4021,0,36,36,10,1,11,image/11.jpg,0,0,,R_75PkJGK4ZpN5clP,2,2024-05-12_15h54.03.081,face trait task,2021.2.3,MacIntel,61.34969325,120298,,,,,,,
,,,,,,5.934476139,1.9527,space,0.3355,0,37,37,48,1,49,image/49.jpg,0,0,,R_75PkJGK4ZpN5clP,2,2024-05-12_15h54.03.081,face trait task,2021.2.3,MacIntel,61.34969325,120298,,,,,,,
,,,,,,2.469596268,1.2909,space,0.186,0,38,38,16,1,17,image/17.jpg,0,0,,R_75PkJGK4ZpN5clP,2,2024-05-12_15h54.03.081,face trait task,2021.2.3,MacIntel,61.34969325,120298,,,,,,,
,,,,,,3.007977625,1.9806,space,0.3511,0,39,39,1,1,2,image/2.jpg,0,0,,R_75PkJGK4ZpN5clP,2,2024-05-12_15h54.03.081,face trait task,2021.2.3,MacIntel,61.34969325,120298,,,,,,,
,,,,,,2.112522705,1.4243,space,0.8505,0,40,40,7,1,8,image/8.jpg,0,0,,R_75PkJGK4ZpN5clP,2,2024-05-12_15h54.03.081,face trait task,2021.2.3,MacIntel,61.34969325,120298,,,,,,,
,,,,,,5.180667933,1.8144,space,0.4302,0,41,41,27,1,28,image/28.jpg,0,0,,R_75PkJGK4ZpN5clP,2,2024-05-12_15h54.03.081,face trait task,2021.2.3,MacIntel,61.34969325,120298,,,,,,,
,,,,,,3.45313532,1.7469,space,0.7848,0,42,42,46,1,47,image/47.jpg,0,0,,R_75PkJGK4ZpN5clP,2,2024-05-12_15h54.03.081,face trait task,2021.2.3,MacIntel,61.34969325,120298,,,,,,,
,,,,,,5.22775966,2.147,space,3.0509,0,43,43,20,1,21,image/21.jpg,0,0,,R_75PkJGK4ZpN5clP,2,2024-05-12_15h54.03.081,face trait task,2021.2.3,MacIntel,61.34969325,120298,,,,,,,
,,,,,,3.191979029,1.7941,space,0.5015,0,44,44,29,1,30,image/30.jpg,0,0,,R_75PkJGK4ZpN5clP,2,2024-05-12_15h54.03.081,face trait task,2021.2.3,MacIntel,61.34969325,120298,,,,,,,
,,,,,,2.860541199,4.3508,space,0.4982,0,45,45,12,1,13,image/13.jpg,0,0,,R_75PkJGK4ZpN5clP,2,2024-05-12_15h54.03.081,face trait task,2021.2.3,MacIntel,61.34969325,120298,,,,,,,
,,,,,,5.568021384,2.0476,space,0.3185,0,46,46,35,1,36,image/36.jpg,0,0,,R_75PkJGK4ZpN5clP,2,2024-05-12_15h54.03.081,face trait task,2021.2.3,MacIntel,61.34969325,120298,,,,,,,
,,,,,,2.340395888,2.6732,space,0.4002,0,47,47,13,1,14,image/14.jpg,0,0,,R_75PkJGK4ZpN5clP,2,2024-05-12_15h54.03.081,face trait task,2021.2.3,MacIntel,61.34969325,120298,,,,,,,
,,,,,,4.342831489,6.8222,space,0.5407,0,48,48,2,1,3,image/3.jpg,0,0,,R_75PkJGK4ZpN5clP,2,2024-05-12_15h54.03.081,face trait task,2021.2.3,MacIntel,61.34969325,120298,,,,,,,
,,,,,,2.991010981,1.6536,space,0.437,0,49,49,38,1,39,image/39.jpg,0,0,,R_75PkJGK4ZpN5clP,2,2024-05-12_15h54.03.081,face trait task,2021.2.3,MacIntel,61.34969325,120298,,,,,,,
,,,,,,5.351634742,3.7901,space,0.4719,0,50,50,3,1,4,image/4.jpg,0,0,,R_75PkJGK4ZpN5clP,2,2024-05-12_15h54.03.081,face trait task,2021.2.3,MacIntel,61.34969325,120298,,,,,,,
,,,,,,3.278577031,6.3953,space,0.455,0,51,51,15,1,16,image/16.jpg,0,0,,R_75PkJGK4ZpN5clP,2,2024-05-12_15h54.03.081,face trait task,2021.2.3,MacIntel,61.34969325,120298,,,,,,,
,,,,,,2.744530218,6.0397,space,0.3765,0,52,52,45,1,46,image/46.jpg,0,0,,R_75PkJGK4ZpN5clP,2,2024-05-12_15h54.03.081,face trait task,2021.2.3,MacIntel,61.34969325,120298,,,,,,,
,,,,,,,,,,,,,,,,,,,,R_75PkJGK4ZpN5clP,2,2024-05-12_15h54.03.081,face trait task,2021.2.3,MacIntel,61.34969325,120298,0,2,2,3,1,3,friendly.png
,,,,,trustworthy,4.338063491,1.7775,space,0.3611,0,0,0,21,1,22,image/22.jpg,0,0,,R_75PkJGK4ZpN5clP,2,2024-05-12_15h54.03.081,face trait task,2021.2.3,MacIntel,61.34969325,120298,,,,,,,
,,,,,,3.214859231,2.0343,space,0.3005,0,1,1,29,1,30,image/30.jpg,0,0,,R_75PkJGK4ZpN5clP,2,2024-05-12_15h54.03.081,face trait task,2021.2.3,MacIntel,61.34969325,120298,,,,,,,
,,,,,,3.184672226,1.4308,space,0.3666,0,2,2,16,1,17,image/17.jpg,0,0,,R_75PkJGK4ZpN5clP,2,2024-05-12_15h54.03.081,face trait task,2021.2.3,MacIntel,61.34969325,120298,,,,,,,
,,,,,,3.64363854,1.3804,space,0.3808,0,3,3,45,1,46,image/46.jpg,0,0,,R_75PkJGK4ZpN5clP,2,2024-05-12_15h54.03.081,face trait task,2021.2.3,MacIntel,61.34969325,120298,,,,,,,
,,,,,,4.35035502,1.8352,space,0.3549,0,4,4,14,1,15,image/15.jpg,0,0,,R_75PkJGK4ZpN5clP,2,2024-05-12_15h54.03.081,face trait task,2021.2.3,MacIntel,61.34969325,120298,,,,,,,
,,,,,,4.865515604,2.4861,space,0.2344,0,5,5,43,1,44,image/44.jpg,0,0,,R_75PkJGK4ZpN5clP,2,2024-05-12_15h54.03.081,face trait task,2021.2.3,MacIntel,61.34969325,120298,,,,,,,
,,,,,,5.277885568,2.0533,space,0.362,0,6,6,8,1,9,image/9.jpg,0,0,,R_75PkJGK4ZpN5clP,2,2024-05-12_15h54.03.081,face trait task,2021.2.3,MacIntel,61.34969325,120298,,,,,,,
,,,,,,3.143246367,1.2312,space,0.7141,0,7,7,7,1,8,image/8.jpg,0,0,,R_75PkJGK4ZpN5clP,2,2024-05-12_15h54.03.081,face trait task,2021.2.3,MacIntel,61.34969325,120298,,,,,,,
,,,,,,1.158396631,2.037,space,0.201,0,8,8,51,1,53,image/fill_img.png,1,1,Please move the slider all the way to the LEFT to show that you are paying attention.,R_75PkJGK4ZpN5clP,2,2024-05-12_15h54.03.081,face trait task,2021.2.3,MacIntel,61.34969325,120298,,,,,,,
,,,,,,2.956272705,1.663,space,1.1346,0,9,9,49,1,50,image/50.jpg,0,0,,R_75PkJGK4ZpN5clP,2,2024-05-12_15h54.03.081,face trait task,2021.2.3,MacIntel,61.34969325,120298,,,,,,,
,,,,,,4.504417107,2.5568,space,0.3338,0,10,10,48,1,49,image/49.jpg,0,0,,R_75PkJGK4ZpN5clP,2,2024-05-12_15h54.03.081,face trait task,2021.2.3,MacIntel,61.34969325,120298,,,,,,,
,,,,,,5.824502559,1.6852,space,0.3666,0,11,11,1,1,2,image/2.jpg,0,0,,R_75PkJGK4ZpN5clP,2,2024-05-12_15h54.03.081,face trait task,2021.2.3,MacIntel,61.34969325,120298,,,,,,,
,,,,,,2.486036575,1.4154,space,1.0339,0,12,12,6,1,7,image/7.jpg,0,0,,R_75PkJGK4ZpN5clP,2,2024-05-12_15h54.03.081,face trait task,2021.2.3,MacIntel,61.34969325,120298,,,,,,,
,,,,,,2.818929574,1.7139,space,0.2807,0,13,13,13,1,14,image/14.jpg,0,0,,R_75PkJGK4ZpN5clP,2,2024-05-12_15h54.03.081,face trait task,2021.2.3,MacIntel,61.34969325,120298,,,,,,,
,,,,,,4.232238689,3.2571,space,0.2418,0,14,14,4,1,5,image/5.jpg,0,0,,R_75PkJGK4ZpN5clP,2,2024-05-12_15h54.03.081,face trait task,2021.2.3,MacIntel,61.34969325,120298,,,,,,,
,,,,,,5.031064234,2.9801,space,0.2308,0,15,15,36,1,37,image/37.jpg,0,0,,R_75PkJGK4ZpN5clP,2,2024-05-12_15h54.03.081,face trait task,2021.2.3,MacIntel,61.34969325,120298,,,,,,,
,,,,,,6.039898448,1.9967,space,0.3339,0,16,16,31,1,32,image/32.jpg,0,0,,R_75PkJGK4ZpN5clP,2,2024-05-12_15h54.03.081,face trait task,2021.2.3,MacIntel,61.34969325,120298,,,,,,,
,,,,,,5.004623514,1.4814,space,0.2873,0,17,17,33,1,34,image/34.jpg,0,0,,R_75PkJGK4ZpN5clP,2,2024-05-12_15h54.03.081,face trait task,2021.2.3,MacIntel,61.34969325,120298,,,,,,,
,,,,,,4.011672308,3.5626,space,0.1965,0,18,18,15,1,16,image/16.jpg,0,0,,R_75PkJGK4ZpN5clP,2,2024-05-12_15h54.03.081,face trait task,2021.2.3,MacIntel,61.34969325,120298,,,,,,,
,,,,,,3.357682464,1.6795,space,1.1371,0,19,19,11,1,12,image/12.jpg,0,0,,R_75PkJGK4ZpN5clP,2,2024-05-12_15h54.03.081,face trait task,2021.2.3,MacIntel,61.34969325,120298,,,,,,,
,,,,,,5.769949224,1.9689,space,0.4177,0,20,20,5,1,6,image/6.jpg,0,0,,R_75PkJGK4ZpN5clP,2,2024-05-12_15h54.03.081,face trait task,2021.2.3,MacIntel,61.34969325,120298,,,,,,,
,,,,,,6.328238524,3.1798,space,1.4633,0,21,21,20,1,21,image/21.jpg,0,0,,R_75PkJGK4ZpN5clP,2,2024-05-12_15h54.03.081,face trait task,2021.2.3,MacIntel,61.34969325,120298,,,,,,,
,,,,,,3.560786823,1.2192,space,0.9499,0,22,22,39,1,40,image/40.jpg,0,0,,R_75PkJGK4ZpN5clP,2,2024-05-12_15h54.03.081,face trait task,2021.2.3,MacIntel,61.34969325,120298,,,,,,,
,,,,,,5.492724158,1.6793,space,0.2837,0,23,23,27,1,28,image/28.jpg,0,0,,R_75PkJGK4ZpN5clP,2,2024-05-12_15h54.03.081,face trait task,2021.2.3,MacIntel,61.34969325,120298,,,,,,,
,,,,,,3.473507678,1.3179,space,0.4169,0,24,24,2,1,3,image/3.jpg,0,0,,R_75PkJGK4ZpN5clP,2,2024-05-12_15h54.03.081,face trait task,2021.2.3,MacIntel,61.34969325,120298,,,,,,,
,,,,,,3.235014861,1.7637,space,0.3144,0,25,25,35,1,36,image/36.jpg,0,0,,R_75PkJGK4ZpN5clP,2,2024-05-12_15h54.03.081,face trait task,2021.2.3,MacIntel,61.34969325,120298,,,,,,,
,,,,,,4.773994799,1.6573,space,0.5355,0,26,26,10,1,11,image/11.jpg,0,0,,R_75PkJGK4ZpN5clP,2,2024-05-12_15h54.03.081,face trait task,2021.2.3,MacIntel,61.34969325,120298,,,,,,,
,,,,,,6.447345608,1.6834,space,0.6514,0,27,27,24,1,25,image/25.jpg,0,0,,R_75PkJGK4ZpN5clP,2,2024-05-12_15h54.03.081,face trait task,2021.2.3,MacIntel,61.34969325,120298,,,,,,,
,,,,,,2.688304987,1.6496,space,0.8678,0,28,28,40,1,41,image/41.jpg,0,0,,R_75PkJGK4ZpN5clP,2,2024-05-12_15h54.03.081,face trait task,2021.2.3,MacIntel,61.34969325,120298,,,,,,,
,,,,,,3.907364597,2.3525,space,0.2839,0,29,29,18,1,19,image/19.jpg,0,0,,R_75PkJGK4ZpN5clP,2,2024-05-12_15h54.03.081,face trait task,2021.2.3,MacIntel,61.34969325,120298,,,,,,,
,,,,,,2.646972011,1.4691,space,0.5299,0,30,30,47,1,48,image/48.jpg,0,0,,R_75PkJGK4ZpN5clP,2,2024-05-12_15h54.03.081,face trait task,2021.2.3,MacIntel,61.34969325,120298,,,,,,,
,,,,,,1.167870707,2.1694,space,0.1501,0,31,31,50,1,51,image/fill_img.png,1,1,Please move the slider all the way to the LEFT to show that you are paying attention.,R_75PkJGK4ZpN5clP,2,2024-05-12_15h54.03.081,face trait task,2021.2.3,MacIntel,61.34969325,120298,,,,,,,
,,,,,,4.714611542,3.4694,space,0.2348,0,32,32,32,1,33,image/33.jpg,0,0,,R_75PkJGK4ZpN5clP,2,2024-05-12_15h54.03.081,face trait task,2021.2.3,MacIntel,61.34969325,120298,,,,,,,
,,,,,,3.132162318,2.4731,space,0.3838,0,33,33,25,1,26,image/26.jpg,0,0,,R_75PkJGK4ZpN5clP,2,2024-05-12_15h54.03.081,face trait task,2021.2.3,MacIntel,61.34969325,120298,,,,,,,
,,,,,,4.400480928,1.3988,space,1.1675,0,34,34,3,1,4,image/4.jpg,0,0,,R_75PkJGK4ZpN5clP,2,2024-05-12_15h54.03.081,face trait task,2021.2.3,MacIntel,61.34969325,120298,,,,,,,
,,,,,,3.32631894,0.9633,space,0.468,0,35,35,38,1,39,image/39.jpg,0,0,,R_75PkJGK4ZpN5clP,2,2024-05-12_15h54.03.081,face trait task,2021.2.3,MacIntel,61.34969325,120298,,,,,,,
,,,,,,4.439027411,0.9683,space,0.7181,0,36,36,9,1,10,image/10.jpg,0,0,,R_75PkJGK4ZpN5clP,2,2024-05-12_15h54.03.081,face trait task,2021.2.3,MacIntel,61.34969325,120298,,,,,,,
,,,,,,3.339074884,1.0133,space,0.9868,0,37,37,44,1,45,image/45.jpg,0,0,,R_75PkJGK4ZpN5clP,2,2024-05-12_15h54.03.081,face trait task,2021.2.3,MacIntel,61.34969325,120298,,,,,,,
,,,,,,5.350241496,1.7214,space,0.4,0,38,38,37,1,38,image/38.jpg,0,0,,R_75PkJGK4ZpN5clP,2,2024-05-12_15h54.03.081,face trait task,2021.2.3,MacIntel,61.34969325,120298,,,,,,,
,,,,,,3.628436674,1.0182,space,0.5397,0,39,39,42,1,43,image/43.jpg,0,0,,R_75PkJGK4ZpN5clP,2,2024-05-12_15h54.03.081,face trait task,2021.2.3,MacIntel,61.34969325,120298,,,,,,,
,,,,,,2.55408892,1.0573,space,0.6015,0,40,40,23,1,24,image/24.jpg,0,0,,R_75PkJGK4ZpN5clP,2,2024-05-12_15h54.03.081,face trait task,2021.2.3,MacIntel,61.34969325,120298,,,,,,,
,,,,,,5.483064316,1.7577,space,0.5338,0,41,41,41,1,42,image/42.jpg,0,0,,R_75PkJGK4ZpN5clP,2,2024-05-12_15h54.03.081,face trait task,2021.2.3,MacIntel,61.34969325,120298,,,,,,,
,,,,,,4.895114349,1.3643,space,0.7842,0,42,42,26,1,27,image/27.jpg,0,0,,R_75PkJGK4ZpN5clP,2,2024-05-12_15h54.03.081,face trait task,2021.2.3,MacIntel,61.34969325,120298,,,,,,,
,,,,,,6.817980102,1.931,space,0.6371,0,43,43,52,1,60,image/fill_img.png,1,7,Please move the slider all the way to the RIGHT to show that you are paying attention.,R_75PkJGK4ZpN5clP,2,2024-05-12_15h54.03.081,face trait task,2021.2.3,MacIntel,61.34969325,120298,,,,,,,
,,,,,,6.005345938,1.9354,space,0.5017,0,44,44,17,1,18,image/18.jpg,0,0,,R_75PkJGK4ZpN5clP,2,2024-05-12_15h54.03.081,face trait task,2021.2.3,MacIntel,61.34969325,120298,,,,,,,
,,,,,,5.2740464,1.5678,space,0.1787,0,45,45,19,1,20,image/20.jpg,0,0,,R_75PkJGK4ZpN5clP,2,2024-05-12_15h54.03.081,face trait task,2021.2.3,MacIntel,61.34969325,120298,,,,,,,
,,,,,,2.243302097,1.8061,space,0.6062,0,46,46,30,1,31,image/31.jpg,0,0,,R_75PkJGK4ZpN5clP,2,2024-05-12_15h54.03.081,face trait task,2021.2.3,MacIntel,61.34969325,120298,,,,,,,
,,,,,,3.15172969,1.5197,space,0.2174,0,47,47,28,1,29,image/29.jpg,0,0,,R_75PkJGK4ZpN5clP,2,2024-05-12_15h54.03.081,face trait task,2021.2.3,MacIntel,61.34969325,120298,,,,,,,
,,,,,,6.083863111,1.8405,space,0.7824,0,48,48,22,1,23,image/23.jpg,0,0,,R_75PkJGK4ZpN5clP,2,2024-05-12_15h54.03.081,face trait task,2021.2.3,MacIntel,61.34969325,120298,,,,,,,
,,,,,,2.986026255,1.2858,space,0.5336,0,49,49,12,1,13,image/13.jpg,0,0,,R_75PkJGK4ZpN5clP,2,2024-05-12_15h54.03.081,face trait task,2021.2.3,MacIntel,61.34969325,120298,,,,,,,
,,,,,,5.287669254,2.2907,space,1.1719,0,50,50,34,1,35,image/35.jpg,0,0,,R_75PkJGK4ZpN5clP,2,2024-05-12_15h54.03.081,face trait task,2021.2.3,MacIntel,61.34969325,120298,,,,,,,
,,,,,,5.714002642,1.4911,space,0.2858,0,51,51,0,1,1,image/1.jpg,0,0,,R_75PkJGK4ZpN5clP,2,2024-05-12_15h54.03.081,face trait task,2021.2.3,MacIntel,61.34969325,120298,,,,,,,
,,,,,,3.897395145,1.9187,space,0.3831,0,52,52,46,1,47,image/47.jpg,0,0,,R_75PkJGK4ZpN5clP,2,2024-05-12_15h54.03.081,face trait task,2021.2.3,MacIntel,61.34969325,120298,,,,,,,
,,,,,,,,,,,,,,,,,,,,R_75PkJGK4ZpN5clP,2,2024-05-12_15h54.03.081,face trait task,2021.2.3,MacIntel,61.34969325,120298,0,3,3,2,1,2,trustworthy.png
