chooserow,ParID,pre_instru_resp_2.keys,pre_instru_resp_2.rt,pre_instru_resp_3.keys,pre_instru_resp_3.rt,pre_instru_resp_9.keys,pre_instru_resp_9.rt,pre_instru_resp_8.keys,pre_instru_resp_8.rt,pre_instru_resp_4.keys,pre_instru_resp_4.rt,pre_instru_resp_5.keys,pre_instru_resp_5.rt,pre_instru_resp_6.keys,pre_instru_resp_6.rt,key_resp_3.keys,key_resp_3.rt,key_resp_4.keys,key_resp_4.rt,key_resp_5.keys,key_resp_5.rt,key_resp_6.keys,key_resp_6.rt,key_resp_7.keys,key_resp_7.rt,trials_2.thisRepN,trials_2.thisTrialN,trials_2.thisN,trials_2.thisIndex,trials_2.ran,participant,session,date,expName,psychopyVersion,OS,frameRate,SONAid,pre_instru_resp.keys,pre_instru_resp.rt,clicked,judge_2.x,judge_2.y,judge_2.leftButton,judge_2.midButton,judge_2.rightButton,judge_2.clicked_name,trials.thisRepN,trials.thisTrialN,trials.thisN,trials.thisIndex,trials.ran,prac_answer,prac_dot_sti,dotlefttext,dotrighttext,prac_acc,judge.x,judge.y,judge.leftButton,judge.midButton,judge.rightButton,judge.clicked_name,clicked_guilt,slider_guilt.response,slider_guilt.rt,key_guilt.keys,share_slider.response,share_slider.rt,key_share.keys,slider_apology.response,slider_apology.rt,key_apology.keys,slider_hide.response,slider_hide.rt,slider_forgiveness.response,slider_forgiveness.rt,key_forgiveness.keys,key_forgiveness.rt,slider_mad.response,slider_mad.rt,trialseq.thisRepN,trialseq.thisTrialN,trialseq.thisN,trialseq.thisIndex,trialseq.ran,type_trial,stipic,DV,picture,answer,number,key_apology.rt,key_guilt.rt,key_share.rt,incompleteTrials,trials_redo.thisRepN,trials_redo.thisTrialN,trials_redo.thisN,trials_redo.thisIndex,trials_redo.ran
"[141,20,25,193,143,178,177,147,9,191,120,159,66,148,76,128,202,188,59,87,167,134,68,52,111,74,169,88,146,51,63,166,107,106,124,79,94,112,40,110,100,189]",R_75PkJGK4ZpN5clP,space,3.945,space,1.1541,space,0.7221,space,5.2222,space,16.9707,space,6.0792,space,1.277,2,6.1587,1,6.1789,2,5.8127,2,11.8045,3,32.3603,0,0,0,0,1,R_75PkJGK4ZpN5clP,1,2024-05-12_15h34.05.728,interaction task,2021.2.3,MacIntel,60.24096386,120298,,,,,,,,,,,,,,,,,,,,,,,,,,,,,,,,,,,,,,,,,,,,,,,,,,,,,,,,,,,,,,,
,,,,space,3.4982,space,7.1966,space,7.1454,space,11.9485,space,4.8516,space,0.8126,2,8.144,1,2.1796,3,9.7491,2,8.4652,2,1.1017,1,0,1,0,1,R_75PkJGK4ZpN5clP,1,2024-05-12_15h34.05.728,interaction task,2021.2.3,MacIntel,60.24096386,120298,,,,,,,,,,,,,,,,,,,,,,,,,,,,,,,,,,,,,,,,,,,,,,,,,,,,,,,,,,,,,,,
,,,,space,0.8772,space,0.2147,space,0.4293,space,0.6158,space,0.9174,space,0.7343,1,7.6513,1,0.4995,3,1.4146,2,1.8157,2,0.2611,2,0,2,0,1,R_75PkJGK4ZpN5clP,1,2024-05-12_15h34.05.728,interaction task,2021.2.3,MacIntel,60.24096386,120298,,,,,,,,,,,,,,,,,,,,,,,,,,,,,,,,,,,,,,,,,,,,,,,,,,,,,,,,,,,,,,,
,,,,space,1.3907,space,0.6834,space,0.413,space,0.6655,space,7.2825,space,0.6873,3,3.3043,1,2.6494,2,2.0764,2,1.5782,2,0.2991,3,0,3,0,1,R_75PkJGK4ZpN5clP,1,2024-05-12_15h34.05.728,interaction task,2021.2.3,MacIntel,60.24096386,120298,,,,,,,,,,,,,,,,,,,,,,,,,,,,,,,,,,,,,,,,,,,,,,,,,,,,,,,,,,,,,,,
,,,,space,4.2352,space,36.9793,space,0.4717,space,0.6858,space,8.4019,space,1.1325,3,1.5983,1,4.9848,2,1.7946,2,2.3995,2,0.2941,4,0,4,0,1,R_75PkJGK4ZpN5clP,1,2024-05-12_15h34.05.728,interaction task,2021.2.3,MacIntel,60.24096386,120298,,,,,,,,,,,,,,,,,,,,,,,,,,,,,,,,,,,,,,,,,,,,,,,,,,,,,,,,,,,,,,,
,,,,space,0.8093,space,0.4986,space,0.7054,space,0.6007,space,5.3697,space,1.3735,3,1.7828,1,12.1489,3,3.5784,2,0.601,2,0.3142,5,0,5,0,1,R_75PkJGK4ZpN5clP,1,2024-05-12_15h34.05.728,interaction task,2021.2.3,MacIntel,60.24096386,120298,,,,,,,,,,,,,,,,,,,,,,,,,,,,,,,,,,,,,,,,,,,,,,,,,,,,,,,,,,,,,,,
,,,,,,,,,,,,,,,,,,,,,,,,,,,,,,,R_75PkJGK4ZpN5clP,1,2024-05-12_15h34.05.728,interaction task,2021.2.3,MacIntel,60.24096386,120298,space,1.2566,"[""RightButton_2""]",0.304851758,-0.335343627,1,0,0,RightButton_2,0,0,0,0,1,RightButton_2,11dot2.png,Smaller,Greater,,,,,,,,,,,,,,,,,,,,,,,,,,,,,,,,,,,,,,,,,,,,,
,,,,,,,,,,,,,,,,,,,,,,,,,,,,,,,R_75PkJGK4ZpN5clP,1,2024-05-12_15h34.05.728,interaction task,2021.2.3,MacIntel,60.24096386,120298,,,"[""RightButton_2""]",0.239374589,-0.281608372,1,0,0,RightButton_2,0,1,1,2,1,RightButton_2,11dot1.png,Smaller,Greater,,,,,,,,,,,,,,,,,,,,,,,,,,,,,,,,,,,,,,,,,,,,,
,,,,,,,,,,,,,,,,,,,,,,,,,,,,,,,R_75PkJGK4ZpN5clP,1,2024-05-12_15h34.05.728,interaction task,2021.2.3,MacIntel,60.24096386,120298,,,"[""LeftButton_2""]",-0.36316319,-0.273734436,1,0,0,LeftButton_2,0,2,2,1,1,LeftButton_2,9dot2.png,Smaller,Greater,,,,,,,,,,,,,,,,,,,,,,,,,,,,,,,,,,,,,,,,,,,,,
,,,,,,,,,,,,,,,,,,,,,,,,,,,,,,,R_75PkJGK4ZpN5clP,1,2024-05-12_15h34.05.728,interaction task,2021.2.3,MacIntel,60.24096386,120298,,,,,,,,,,,,,,,,,Smaller,Greater,0.6,-0.296957129,-0.500174066,1,0,0,LeftButton,"[""LeftButton""]",,,,,,,,,,,,98.19258618,6.9994,space,3.4658,1.176930275,10.9842,0,0,0,0,1,2,only_sub_right.png,3,RandomDot7.png,No answer,20,,,,,,,,,
,,,,,,,,,,,,,,,,,,,,,,,,,,,,,,,R_75PkJGK4ZpN5clP,1,2024-05-12_15h34.05.728,interaction task,2021.2.3,MacIntel,60.24096386,120298,,,,,,,,,,,,,,,,,Smaller,Greater,,0.242526281,-0.49407151,1,0,0,RightButton,"[""RightButton""]",,,,,,,,,,,,,,,,,,0,1,1,1,1,0,both_right.png,1,RandomDot3.png,No answer,19,,,,,,,,,
,,,,,,,,,,,,,,,,,,,,,,,,,,,,,,,R_75PkJGK4ZpN5clP,1,2024-05-12_15h34.05.728,interaction task,2021.2.3,MacIntel,60.24096386,120298,,,,,,,,,,,,,,,,,Greater,Smaller,,0.280808558,-0.513259748,1,0,0,RightButton,"[""RightButton""]",,,,,,,,,,,,,,,,,,0,2,2,2,1,0,both_right.png,2,RandomDot39.png,No answer,20,,,,,,,,,
,,,,,,,,,,,,,,,,,,,,,,,,,,,,,,,R_75PkJGK4ZpN5clP,1,2024-05-12_15h34.05.728,interaction task,2021.2.3,MacIntel,60.24096386,120298,,,,,,,,,,,,,,,,,Greater,Smaller,,-0.304307654,-0.51007536,1,0,0,LeftButton,"[""LeftButton""]",,,,,,,,,,,,,,,,,,0,3,3,3,1,4,both_right.png,10,RandomDot41.png,LeftButton,5,,,,,,,,,
,,,,,,,,,,,,,,,,,,,,,,,,,,,,,,,R_75PkJGK4ZpN5clP,1,2024-05-12_15h34.05.728,interaction task,2021.2.3,MacIntel,60.24096386,120298,,,,,,,,,,,,,,,,,Smaller,Greater,,0.306104221,-0.525649164,1,0,0,RightButton,"[""RightButton""]",,,,,,,,,,,,98.69655822,2.4987,space,2.0954,7.806340342,4.7049,0,4,4,4,1,2,only_sub_right.png,3,RandomDot31.png,No answer,19,,,,,,,,,
,,,,,,,,,,,,,,,,,,,,,,,,,,,,,,,R_75PkJGK4ZpN5clP,1,2024-05-12_15h34.05.728,interaction task,2021.2.3,MacIntel,60.24096386,120298,,,,,,,,,,,,,,,,,Smaller,Greater,,-0.327611695,-0.495382126,1,0,0,LeftButton,"[""LeftButton""]",,,,,,,14,4.2255,space,41,7.2488,,,,,,,0,5,5,5,1,3,only_sub_wrong.png,2,RandomDot22.png,No answer,19,0.7663,,,,,,,,
,,,,,,,,,,,,,,,,,,,,,,,,,,,,,,,R_75PkJGK4ZpN5clP,1,2024-05-12_15h34.05.728,interaction task,2021.2.3,MacIntel,60.24096386,120298,,,,,,,,,,,,,,,,,Smaller,Greater,,0.248049442,-0.506839777,1,0,0,RightButton,"[""RightButton""]",,,,,,,35,1.6554,space,66,2.9062,,,,,,,0,6,6,6,1,3,only_sub_wrong.png,2,RandomDot31.png,No answer,19,0.8671,,,,,,,,
,,,,,,,,,,,,,,,,,,,,,,,,,,,,,,,R_75PkJGK4ZpN5clP,1,2024-05-12_15h34.05.728,interaction task,2021.2.3,MacIntel,60.24096386,120298,,,,,,,,,,,,,,,,,Greater,Smaller,,0.281003614,-0.534690367,1,0,0,RightButton,"[""RightButton""]",16,13.8244,space,,,,,,,,,,,,,,,0,7,7,7,1,3,only_sub_wrong.png,0,RandomDot5.png,No answer,20,,0.9662,,,,,,,
,,,,,,,,,,,,,,,,,,,,,,,,,,,,,,,R_75PkJGK4ZpN5clP,1,2024-05-12_15h34.05.728,interaction task,2021.2.3,MacIntel,60.24096386,120298,,,,,,,,,,,,,,,,,Smaller,Greater,,-0.363892083,-0.538632454,1,0,0,LeftButton,"[""LeftButton""]",,,,,,,,,,,,,,,,,,0,8,8,8,1,0,both_right.png,0,RandomDot5.png,No answer,21,,,,,,,,,
,,,,,,,,,,,,,,,,,,,,,,,,,,,,,,,R_75PkJGK4ZpN5clP,1,2024-05-12_15h34.05.728,interaction task,2021.2.3,MacIntel,60.24096386,120298,,,,,,,,,,,,,,,,,Smaller,Greater,,-0.298394382,-0.476746805,1,0,0,LeftButton,"[""LeftButton""]",,,,,,,,,,,,18.57329869,2.4874,space,1.1289,68.88961892,3.7136,0,9,9,9,1,3,only_sub_wrong.png,3,RandomDot36.png,No answer,21,,,,,,,,,
,,,,,,,,,,,,,,,,,,,,,,,,,,,,,,,R_75PkJGK4ZpN5clP,1,2024-05-12_15h34.05.728,interaction task,2021.2.3,MacIntel,60.24096386,120298,,,,,,,,,,,,,,,,,Greater,Smaller,,0.305128942,-0.504464286,1,0,0,RightButton,"[""RightButton""]",,,,,,,0,3.2377,space,7,6.147,,,,,,,0,10,10,10,1,2,only_sub_right.png,2,RandomDot21.png,No answer,21,2.2961,,,,,,,,
,,,,,,,,,,,,,,,,,,,,,,,,,,,,,,,R_75PkJGK4ZpN5clP,1,2024-05-12_15h34.05.728,interaction task,2021.2.3,MacIntel,60.24096386,120298,,,,,,,,,,,,,,,,,Greater,Smaller,,0.273837878,-0.518758191,1,0,0,RightButton,"[""RightButton""]",,,,0.92379476,11.3545,space,,,,,,,,,,,,0,11,11,11,1,3,only_sub_wrong.png,1,RandomDot11.png,No answer,20,,,1.2643,,,,,,
,,,,,,,,,,,,,,,,,,,,,,,,,,,,,,,R_75PkJGK4ZpN5clP,1,2024-05-12_15h34.05.728,interaction task,2021.2.3,MacIntel,60.24096386,120298,,,,,,,,,,,,,,,,,Smaller,Greater,,0.294852579,-0.523734436,1,0,0,RightButton,"[""RightButton""]",,,,1.967754189,6.0482,space,,,,,,,,,,,,0,12,12,12,1,1,both_wrong.png,1,RandomDot10.png,No answer,19,,,0.8796,,,,,,
,,,,,,,,,,,,,,,,,,,,,,,,,,,,,,,R_75PkJGK4ZpN5clP,1,2024-05-12_15h34.05.728,interaction task,2021.2.3,MacIntel,60.24096386,120298,,,,,,,,,,,,,,,,,Greater,Smaller,,-0.277615802,-0.464725999,1,0,0,LeftButton,"[""LeftButton""]",23,3.5957,space,,,,,,,,,,,,,,,0,13,13,13,1,3,only_sub_wrong.png,0,RandomDot12.png,No answer,20,,2.1334,,,,,,,
,,,,,,,,,,,,,,,,,,,,,,,,,,,,,,,R_75PkJGK4ZpN5clP,1,2024-05-12_15h34.05.728,interaction task,2021.2.3,MacIntel,60.24096386,120298,,,,,,,,,,,,,,,,,Greater,Smaller,,0.222230207,-0.516730832,1,0,0,RightButton,"[""RightButton""]",,,,,,,7,2.4214,space,61,3.7987,,,,,,,0,14,14,14,1,1,both_wrong.png,2,RandomDot9.png,No answer,21,3.5666,,,,,,,,
,,,,,,,,,,,,,,,,,,,,,,,,,,,,,,,R_75PkJGK4ZpN5clP,1,2024-05-12_15h34.05.728,interaction task,2021.2.3,MacIntel,60.24096386,120298,,,,,,,,,,,,,,,,,Smaller,Greater,,-0.292624836,-0.504730505,1,0,0,LeftButton,"[""LeftButton""]",,,,,,,12,5.9526,space,40,7.0854,,,,,,,0,15,15,15,1,2,only_sub_right.png,2,RandomDot22.png,No answer,20,1.0334,,,,,,,,
,,,,,,,,,,,,,,,,,,,,,,,,,,,,,,,R_75PkJGK4ZpN5clP,1,2024-05-12_15h34.05.728,interaction task,2021.2.3,MacIntel,60.24096386,120298,,,,,,,,,,,,,,,,,Smaller,Greater,,0.281106275,-0.53150598,0,0,0,,[],,,,,,,,,,,,,,,,,,0,16,16,16,1,5,both_right.png,10,RandomDot42.png,LeftButton,21,,,,202,,,,,
,,,,,,,,,,,,,,,,,,,,,,,,,,,,,,,R_75PkJGK4ZpN5clP,1,2024-05-12_15h34.05.728,interaction task,2021.2.3,MacIntel,60.24096386,120298,,,,,,,,,,,,,,,,,Smaller,Greater,,-0.247341081,-0.496057913,1,0,0,LeftButton,"[""LeftButton""]",,,,,,,,,,,,27.28288967,5.8075,space,0.4338,34.0305154,6.8216,0,17,17,17,1,3,only_sub_wrong.png,3,RandomDot22.png,No answer,21,,,,,,,,,
,,,,,,,,,,,,,,,,,,,,,,,,,,,,,,,R_75PkJGK4ZpN5clP,1,2024-05-12_15h34.05.728,interaction task,2021.2.3,MacIntel,60.24096386,120298,,,,,,,,,,,,,,,,,Smaller,Greater,,-0.304461646,-0.532857552,1,0,0,LeftButton,"[""LeftButton""]",15,1.8432,space,,,,,,,,,,,,,,,0,18,18,18,1,1,both_wrong.png,0,RandomDot14.png,No answer,21,,0.3687,,,,,,,
,,,,,,,,,,,,,,,,,,,,,,,,,,,,,,,R_75PkJGK4ZpN5clP,1,2024-05-12_15h34.05.728,interaction task,2021.2.3,MacIntel,60.24096386,120298,,,,,,,,,,,,,,,,,Greater,Smaller,,0.199377875,-0.471821756,1,0,0,RightButton,"[""RightButton""]",,,,,,,,,,,,20.46163839,2.4823,space,0.7008,46.42449462,3.3956,0,19,19,19,1,1,both_wrong.png,3,RandomDot17.png,No answer,21,,,,,,,,,
,,,,,,,,,,,,,,,,,,,,,,,,,,,,,,,R_75PkJGK4ZpN5clP,1,2024-05-12_15h34.05.728,interaction task,2021.2.3,MacIntel,60.24096386,120298,,,,,,,,,,,,,,,,,Smaller,Greater,,0.24981521,-0.517744512,1,0,0,RightButton,"[""RightButton""]",,,,1.082405963,3.628,space,,,,,,,,,,,,0,20,20,20,1,3,only_sub_wrong.png,1,RandomDot22.png,No answer,20,,,0.6507,,,,,,
,,,,,,,,,,,,,,,,,,,,,,,,,,,,,,,R_75PkJGK4ZpN5clP,1,2024-05-12_15h34.05.728,interaction task,2021.2.3,MacIntel,60.24096386,120298,,,,,,,,,,,,,,,,,Greater,Smaller,,0.378757392,-0.526898345,1,0,0,RightButton,"[""RightButton""]",,,,,,,,,,,,47.78915966,5.0295,space,0.3706,26.40767896,5.831,0,21,21,21,1,2,only_sub_right.png,3,RandomDot22.png,No answer,20,,,,,,,,,
,,,,,,,,,,,,,,,,,,,,,,,,,,,,,,,R_75PkJGK4ZpN5clP,1,2024-05-12_15h34.05.728,interaction task,2021.2.3,MacIntel,60.24096386,120298,,,,,,,,,,,,,,,,,Smaller,Greater,,-0.363450641,-0.495023755,1,0,0,LeftButton,"[""LeftButton""]",,,,1.688413683,4.4118,space,,,,,,,,,,,,0,22,22,22,1,1,both_wrong.png,1,RandomDot8.png,No answer,21,,,0.4864,,,,,,
,,,,,,,,,,,,,,,,,,,,,,,,,,,,,,,R_75PkJGK4ZpN5clP,1,2024-05-12_15h34.05.728,interaction task,2021.2.3,MacIntel,60.24096386,120298,,,,,,,,,,,,,,,,,Greater,Smaller,,-0.374076051,-0.514304145,1,0,0,LeftButton,"[""LeftButton""]",10,5.936,space,,,,,,,,,,,,,,,0,23,23,23,1,1,both_wrong.png,0,RandomDot10.png,No answer,20,,0.1018,,,,,,,
,,,,,,,,,,,,,,,,,,,,,,,,,,,,,,,R_75PkJGK4ZpN5clP,1,2024-05-12_15h34.05.728,interaction task,2021.2.3,MacIntel,60.24096386,120298,,,,,,,,,,,,,,,,,Greater,Smaller,,-0.289319152,-0.522915301,1,0,0,LeftButton,"[""LeftButton""]",,,,2.444563075,4.6166,space,,,,,,,,,,,,0,24,24,24,1,2,only_sub_right.png,1,RandomDot4.png,No answer,19,,,0.5506,,,,,,
,,,,,,,,,,,,,,,,,,,,,,,,,,,,,,,R_75PkJGK4ZpN5clP,1,2024-05-12_15h34.05.728,interaction task,2021.2.3,MacIntel,60.24096386,120298,,,,,,,,,,,,,,,,,Greater,Smaller,,0.285325641,-0.475231406,1,0,0,RightButton,"[""RightButton""]",,,,,,,13,4.4952,space,34,5.2183,,,,,,,0,25,25,25,1,1,both_wrong.png,2,RandomDot16.png,No answer,20,7.4675,,,,,,,,
,,,,,,,,,,,,,,,,,,,,,,,,,,,,,,,R_75PkJGK4ZpN5clP,1,2024-05-12_15h34.05.728,interaction task,2021.2.3,MacIntel,60.24096386,120298,,,,,,,,,,,,,,,,,Greater,Smaller,,-0.995873029,-0.586357307,0,0,0,,[],,,,,,,,,,,,,,,,,,0,26,26,26,1,3,only_sub_wrong.png,2,RandomDot1.png,No answer,20,,,,169,,,,,
,,,,,,,,,,,,,,,,,,,,,,,,,,,,,,,R_75PkJGK4ZpN5clP,1,2024-05-12_15h34.05.728,interaction task,2021.2.3,MacIntel,60.24096386,120298,,,,,,,,,,,,,,,,,Greater,Smaller,,0.217497536,-0.470613532,1,0,0,RightButton,"[""RightButton""]",,,,,,,,,,,,17.4792853,2.1166,space,0.5677,15.28607361,3.1665,0,27,27,27,1,1,both_wrong.png,3,RandomDot30.png,No answer,20,,,,,,,,,
,,,,,,,,,,,,,,,,,,,,,,,,,,,,,,,R_75PkJGK4ZpN5clP,1,2024-05-12_15h34.05.728,interaction task,2021.2.3,MacIntel,60.24096386,120298,,,,,,,,,,,,,,,,,Greater,Smaller,,-0.953381652,-0.427117464,0,0,0,,[],,,,,,,,,,,,,,,,,,0,28,28,28,1,3,only_sub_wrong.png,0,RandomDot38.png,No answer,21,,,,146,,,,,
,,,,,,,,,,,,,,,,,,,,,,,,,,,,,,,R_75PkJGK4ZpN5clP,1,2024-05-12_15h34.05.728,interaction task,2021.2.3,MacIntel,60.24096386,120298,,,,,,,,,,,,,,,,,Greater,Smaller,,0.243696616,-0.496006717,1,0,0,RightButton,"[""RightButton""]",22,1.4911,space,,,,,,,,,,,,,,,0,29,29,29,1,1,both_wrong.png,0,RandomDot14.png,No answer,19,,0.8008,,,,,,,
,,,,,,,,,,,,,,,,,,,,,,,,,,,,,,,R_75PkJGK4ZpN5clP,1,2024-05-12_15h34.05.728,interaction task,2021.2.3,MacIntel,60.24096386,120298,,,,,,,,,,,,,,,,,Greater,Smaller,,0.233882227,-0.529099771,1,0,0,RightButton,"[""RightButton""]",,,,1.06633952,0.8622,space,,,,,,,,,,,,0,30,30,30,1,1,both_wrong.png,1,RandomDot27.png,No answer,19,,,0.9006,,,,,,
,,,,,,,,,,,,,,,,,,,,,,,,,,,,,,,R_75PkJGK4ZpN5clP,1,2024-05-12_15h34.05.728,interaction task,2021.2.3,MacIntel,60.24096386,120298,,,,,,,,,,,,,,,,,Smaller,Greater,,-0.313875657,-0.521696838,1,0,0,LeftButton,"[""LeftButton""]",,,,0.823546321,3.6925,space,,,,,,,,,,,,0,31,31,31,1,3,only_sub_wrong.png,1,RandomDot15.png,No answer,20,,,0.7182,,,,,,
,,,,,,,,,,,,,,,,,,,,,,,,,,,,,,,R_75PkJGK4ZpN5clP,1,2024-05-12_15h34.05.728,interaction task,2021.2.3,MacIntel,60.24096386,120298,,,,,,,,,,,,,,,,,Smaller,Greater,,-0.266240966,-0.481108699,1,0,0,LeftButton,"[""LeftButton""]",14,5.3678,space,,,,,,,,,,,,,,,0,32,32,32,1,2,only_sub_right.png,0,RandomDot37.png,No answer,21,,0.2527,,,,,,,
,,,,,,,,,,,,,,,,,,,,,,,,,,,,,,,R_75PkJGK4ZpN5clP,1,2024-05-12_15h34.05.728,interaction task,2021.2.3,MacIntel,60.24096386,120298,,,,,,,,,,,,,,,,,Smaller,Greater,,0.276219612,-0.516454374,1,0,0,RightButton,"[""RightButton""]",10,1.6942,space,,,,,,,,,,,,,,,0,33,33,33,1,2,only_sub_right.png,0,RandomDot39.png,No answer,19,,0.6676,,,,,,,
,,,,,,,,,,,,,,,,,,,,,,,,,,,,,,,R_75PkJGK4ZpN5clP,1,2024-05-12_15h34.05.728,interaction task,2021.2.3,MacIntel,60.24096386,120298,,,,,,,,,,,,,,,,,Greater,Smaller,,-0.33149228,-0.486658339,1,0,0,LeftButton,"[""LeftButton""]",,,,,,,8,1.8772,space,15,2.9848,,,,,,,0,34,34,34,1,2,only_sub_right.png,2,RandomDot20.png,No answer,20,2.8672,,,,,,,,
,,,,,,,,,,,,,,,,,,,,,,,,,,,,,,,R_75PkJGK4ZpN5clP,1,2024-05-12_15h34.05.728,interaction task,2021.2.3,MacIntel,60.24096386,120298,,,,,,,,,,,,,,,,,Smaller,Greater,,-0.286783426,-0.470122051,1,0,0,LeftButton,"[""LeftButton""]",,,,,,,41,2.4144,space,27,3.1717,,,,,,,0,35,35,35,1,1,both_wrong.png,2,RandomDot24.png,No answer,21,0.4631,,,,,,,,
,,,,,,,,,,,,,,,,,,,,,,,,,,,,,,,R_75PkJGK4ZpN5clP,1,2024-05-12_15h34.05.728,interaction task,2021.2.3,MacIntel,60.24096386,120298,,,,,,,,,,,,,,,,,Smaller,Greater,,-0.347866705,-0.50969651,1,0,0,LeftButton,"[""LeftButton""]",,,,,,,,,,,,49.75008794,3.6739,space,0.1375,31.17778475,4.5202,0,36,36,36,1,1,both_wrong.png,3,RandomDot25.png,No answer,21,,,,,,,,,
,,,,,,,,,,,,,,,,,,,,,,,,,,,,,,,R_75PkJGK4ZpN5clP,1,2024-05-12_15h34.05.728,interaction task,2021.2.3,MacIntel,60.24096386,120298,,,,,,,,,,,,,,,,,Greater,Smaller,,-0.237598555,-0.514406537,1,0,0,LeftButton,"[""LeftButton""]",,,,0.176166229,4.7137,space,,,,,,,,,,,,0,37,37,37,1,2,only_sub_right.png,1,RandomDot32.png,No answer,19,,,0.6013,,,,,,
,,,,,,,,,,,,,,,,,,,,,,,,,,,,,,,R_75PkJGK4ZpN5clP,1,2024-05-12_15h34.05.728,interaction task,2021.2.3,MacIntel,60.24096386,120298,,,,,,,,,,,,,,,,,Greater,Smaller,,0.20294021,-0.499825934,1,0,0,RightButton,"[""RightButton""]",,,,,,,,,,,,,,,,,,0,38,38,38,1,0,both_right.png,3,RandomDot36.png,No answer,20,,,,,,,,,
,,,,,,,,,,,,,,,,,,,,,,,,,,,,,,,R_75PkJGK4ZpN5clP,1,2024-05-12_15h34.05.728,interaction task,2021.2.3,MacIntel,60.24096386,120298,,,,,,,,,,,,,,,,,Greater,Smaller,,-0.260317428,-0.525116727,1,0,0,LeftButton,"[""LeftButton""]",,,,0.031876232,2.8837,space,,,,,,,,,,,,0,39,39,39,1,2,only_sub_right.png,1,RandomDot6.png,No answer,21,,,3.4338,,,,,,
,,,,,,,,,,,,,,,,,,,,,,,,,,,,,,,R_75PkJGK4ZpN5clP,1,2024-05-12_15h34.05.728,interaction task,2021.2.3,MacIntel,60.24096386,120298,,,,,,,,,,,,,,,,,Greater,Smaller,,-0.271712796,-0.515665957,1,0,0,LeftButton,"[""LeftButton""]",3,4.4746,space,,,,,,,,,,,,,,,0,40,40,40,1,2,only_sub_right.png,0,RandomDot33.png,No answer,21,,1.3976,,,,,,,
,,,,,,,,,,,,,,,,,,,,,,,,,,,,,,,R_75PkJGK4ZpN5clP,1,2024-05-12_15h34.05.728,interaction task,2021.2.3,MacIntel,60.24096386,120298,,,,,,,,,,,,,,,,,Smaller,Greater,,-0.365442263,-0.493917923,1,0,0,LeftButton,"[""LeftButton""]",,,,,,,,,,,,2.442045289,1.5633,space,0.367,4.155135454,2.7482,0,41,41,41,1,3,only_sub_wrong.png,3,RandomDot38.png,No answer,20,,,,,,,,,
,,,,,,,,,,,,,,,,,,,,,,,,,,,,,,,R_75PkJGK4ZpN5clP,1,2024-05-12_15h34.05.728,interaction task,2021.2.3,MacIntel,60.24096386,120298,,,,,,,,,,,,,,,,,Greater,Smaller,,0.226049195,-0.520959617,1,0,0,RightButton,"[""RightButton""]",,,,,,,7,4.7238,space,37,5.9928,,,,,,,,,,,,3,only_sub_wrong.png,2,RandomDot1.png,No answer,20,0.6163,,,,0,0,0,1,1
,,,,,,,,,,,,,,,,,,,,,,,,,,,,,,,R_75PkJGK4ZpN5clP,1,2024-05-12_15h34.05.728,interaction task,2021.2.3,MacIntel,60.24096386,120298,,,,,,,,,,,,,,,,,Greater,Smaller,,0.300704254,-0.541683732,1,0,0,RightButton,"[""RightButton""]",1,4.9314,space,,,,,,,,,,,,,,,,,,,,3,only_sub_wrong.png,0,RandomDot38.png,No answer,21,,0.6845,,,0,1,1,2,1
,,,,,,,,,,,,,,,,,,,,,,,,,,,,,,,R_75PkJGK4ZpN5clP,1,2024-05-12_15h34.05.728,interaction task,2021.2.3,MacIntel,60.24096386,120298,,,,,,,,,,,,,,,,,Smaller,Greater,,-0.290818003,-0.511754587,1,0,0,LeftButton,"[""LeftButton""]",,,,,,,,,,,,,,,,,,,,,,,5,both_right.png,10,RandomDot42.png,LeftButton,21,,,,,0,2,2,0,1
