choose_trial,key_resp.keys,key_resp.rt,key_resp_4.keys,key_resp_4.rt,session_trait,slider_face_judge.response,slider_face_judge.rt,key_resp_3.keys,key_resp_3.rt,face_loop.thisRepN,face_loop.thisTrialN,face_loop.thisN,face_loop.thisIndex,face_loop.ran,face_serial,image_name,isCheck,answer,check_question,participant,session,date,expName,psychopyVersion,OS,frameRate,SONAid,session.thisRepN,session.thisTrialN,session.thisN,session.thisIndex,session.ran,session_serial,slider_judge_img
"[0,1,2,3,4,5,6,7,8,9,10,11,12,13,14,15,16,17,18,19,20,21,22,23,24,25,26,27,28,29,30,31,32,33,34,35,36,37,38,39,40,41,42,43,44,45,46,47,48,49,60,56,56]",space,7.0292,space,35.0889,competent,3.987057292,14.5145,space,10.2904,0,0,0,8,1,9,image/9.jpg,0,0,,R_7CKHJGMjptgL6SO,2,2024-05-23_21h11.32.019,face trait task,2021.2.3,MacIntel,59.99880002,120488,,,,,,,
,,,,,,2.007526042,3.706,space,0.6259,0,1,1,47,1,48,image/48.jpg,0,0,,R_7CKHJGMjptgL6SO,2,2024-05-23_21h11.32.019,face trait task,2021.2.3,MacIntel,59.99880002,120488,,,,,,,
,,,,,,2.976640625,2.0956,space,0.3858,0,2,2,48,1,49,image/49.jpg,0,0,,R_7CKHJGMjptgL6SO,2,2024-05-23_21h11.32.019,face trait task,2021.2.3,MacIntel,59.99880002,120488,,,,,,,
,,,,,,3.984036458,3.3437,space,0.2348,0,3,3,29,1,30,image/30.jpg,0,0,,R_7CKHJGMjptgL6SO,2,2024-05-23_21h11.32.019,face trait task,2021.2.3,MacIntel,59.99880002,120488,,,,,,,
,,,,,,5.9959375,3.0094,space,0.5382,0,4,4,49,1,50,image/50.jpg,0,0,,R_7CKHJGMjptgL6SO,2,2024-05-23_21h11.32.019,face trait task,2021.2.3,MacIntel,59.99880002,120488,,,,,,,
,,,,,,1.996119792,2.6385,space,0.253,0,5,5,40,1,41,image/41.jpg,0,0,,R_7CKHJGMjptgL6SO,2,2024-05-23_21h11.32.019,face trait task,2021.2.3,MacIntel,59.99880002,120488,,,,,,,
,,,,,,3.984244792,3.487,space,0.2712,0,6,6,21,1,22,image/22.jpg,0,0,,R_7CKHJGMjptgL6SO,2,2024-05-23_21h11.32.019,face trait task,2021.2.3,MacIntel,59.99880002,120488,,,,,,,
,,,,,,2.981848958,2.3046,space,0.2526,0,7,7,2,1,3,image/3.jpg,0,0,,R_7CKHJGMjptgL6SO,2,2024-05-23_21h11.32.019,face trait task,2021.2.3,MacIntel,59.99880002,120488,,,,,,,
,,,,,,5.97984375,2.9733,space,0.2944,0,8,8,25,1,26,image/26.jpg,0,0,,R_7CKHJGMjptgL6SO,2,2024-05-23_21h11.32.019,face trait task,2021.2.3,MacIntel,59.99880002,120488,,,,,,,
,,,,,,3.023125,2.6104,space,0.418,0,9,9,39,1,40,image/40.jpg,0,0,,R_7CKHJGMjptgL6SO,2,2024-05-23_21h11.32.019,face trait task,2021.2.3,MacIntel,59.99880002,120488,,,,,,,
,,,,,,1.986796875,3.8631,space,0.3011,0,10,10,36,1,37,image/37.jpg,0,0,,R_7CKHJGMjptgL6SO,2,2024-05-23_21h11.32.019,face trait task,2021.2.3,MacIntel,59.99880002,120488,,,,,,,
,,,,,,7,7.387,space,3.1717,0,11,11,52,1,57,image/fill_img.png,1,7,Please move the slider all the way to the RIGHT to show that you are paying attention.,R_7CKHJGMjptgL6SO,2,2024-05-23_21h11.32.019,face trait task,2021.2.3,MacIntel,59.99880002,120488,,,,,,,
,,,,,,2.9965625,6.3429,space,1.8207,0,12,12,16,1,17,image/17.jpg,0,0,,R_7CKHJGMjptgL6SO,2,2024-05-23_21h11.32.019,face trait task,2021.2.3,MacIntel,59.99880002,120488,,,,,,,
,,,,,,2.9965625,2.2015,space,0.4377,0,13,13,28,1,29,image/29.jpg,0,0,,R_7CKHJGMjptgL6SO,2,2024-05-23_21h11.32.019,face trait task,2021.2.3,MacIntel,59.99880002,120488,,,,,,,
,,,,,,1.974583333,6.0887,space,2.826,0,14,14,14,1,15,image/15.jpg,0,0,,R_7CKHJGMjptgL6SO,2,2024-05-23_21h11.32.019,face trait task,2021.2.3,MacIntel,59.99880002,120488,,,,,,,
,,,,,,3.990234375,3.1379,space,0.7756,0,15,15,43,1,44,image/44.jpg,0,0,,R_7CKHJGMjptgL6SO,2,2024-05-23_21h11.32.019,face trait task,2021.2.3,MacIntel,59.99880002,120488,,,,,,,
,,,,,,3.019453125,2.8203,space,0.6376,0,16,16,0,1,1,image/1.jpg,0,0,,R_7CKHJGMjptgL6SO,2,2024-05-23_21h11.32.019,face trait task,2021.2.3,MacIntel,59.99880002,120488,,,,,,,
,,,,,,6.982135417,2.9277,space,0.6017,0,17,17,3,1,4,image/4.jpg,0,0,,R_7CKHJGMjptgL6SO,2,2024-05-23_21h11.32.019,face trait task,2021.2.3,MacIntel,59.99880002,120488,,,,,,,
,,,,,,4.969869792,3.0719,space,0.7361,0,18,18,26,1,27,image/27.jpg,0,0,,R_7CKHJGMjptgL6SO,2,2024-05-23_21h11.32.019,face trait task,2021.2.3,MacIntel,59.99880002,120488,,,,,,,
,,,,,,6.987239583,3.2777,space,0.5712,0,19,19,5,1,6,image/6.jpg,0,0,,R_7CKHJGMjptgL6SO,2,2024-05-23_21h11.32.019,face trait task,2021.2.3,MacIntel,59.99880002,120488,,,,,,,
,,,,,,5.990911458,3.7232,space,0.2551,0,20,20,45,1,46,image/46.jpg,0,0,,R_7CKHJGMjptgL6SO,2,2024-05-23_21h11.32.019,face trait task,2021.2.3,MacIntel,59.99880002,120488,,,,,,,
,,,,,,5.01734375,3.6311,space,0.3022,0,21,21,12,1,13,image/13.jpg,0,0,,R_7CKHJGMjptgL6SO,2,2024-05-23_21h11.32.019,face trait task,2021.2.3,MacIntel,59.99880002,120488,,,,,,,
,,,,,,2.996015625,2.37,space,0.2024,0,22,22,10,1,11,image/11.jpg,0,0,,R_7CKHJGMjptgL6SO,2,2024-05-23_21h11.32.019,face trait task,2021.2.3,MacIntel,59.99880002,120488,,,,,,,
,,,,,,2.99390625,1.0828,space,0.704,0,23,23,24,1,25,image/25.jpg,0,0,,R_7CKHJGMjptgL6SO,2,2024-05-23_21h11.32.019,face trait task,2021.2.3,MacIntel,59.99880002,120488,,,,,,,
,,,,,,2.99390625,1.0895,space,1.0612,0,24,24,17,1,18,image/18.jpg,0,0,,R_7CKHJGMjptgL6SO,2,2024-05-23_21h11.32.019,face trait task,2021.2.3,MacIntel,59.99880002,120488,,,,,,,
,,,,,,1.958203125,1.6718,space,0.3188,0,25,25,32,1,33,image/33.jpg,0,0,,R_7CKHJGMjptgL6SO,2,2024-05-23_21h11.32.019,face trait task,2021.2.3,MacIntel,59.99880002,120488,,,,,,,
,,,,,,5.035234375,2.5222,space,0.4682,0,26,26,20,1,21,image/21.jpg,0,0,,R_7CKHJGMjptgL6SO,2,2024-05-23_21h11.32.019,face trait task,2021.2.3,MacIntel,59.99880002,120488,,,,,,,
,,,,,,4.007109375,2.6881,space,0.2509,0,27,27,46,1,47,image/47.jpg,0,0,,R_7CKHJGMjptgL6SO,2,2024-05-23_21h11.32.019,face trait task,2021.2.3,MacIntel,59.99880002,120488,,,,,,,
,,,,,,4.987890625,2.0455,space,0.2386,0,28,28,1,1,2,image/2.jpg,0,0,,R_7CKHJGMjptgL6SO,2,2024-05-23_21h11.32.019,face trait task,2021.2.3,MacIntel,59.99880002,120488,,,,,,,
,,,,,,4.987890625,1.5109,space,0.3932,0,29,29,11,1,12,image/12.jpg,0,0,,R_7CKHJGMjptgL6SO,2,2024-05-23_21h11.32.019,face trait task,2021.2.3,MacIntel,59.99880002,120488,,,,,,,
,,,,,,2.950729167,3.526,space,0.2542,0,30,30,37,1,38,image/38.jpg,0,0,,R_7CKHJGMjptgL6SO,2,2024-05-23_21h11.32.019,face trait task,2021.2.3,MacIntel,59.99880002,120488,,,,,,,
,,,,,,6.989869792,3.5192,space,1.2709,0,31,31,50,1,61,image/fill_img.png,1,7,Please move the slider all the way to the RIGHT to show that you are paying attention.,R_7CKHJGMjptgL6SO,2,2024-05-23_21h11.32.019,face trait task,2021.2.3,MacIntel,59.99880002,120488,,,,,,,
,,,,,,6.991536458,2.6375,space,0.9684,0,32,32,51,1,57,image/fill_img.png,1,7,Please move the slider all the way to the RIGHT to show that you are paying attention.,R_7CKHJGMjptgL6SO,2,2024-05-23_21h11.32.019,face trait task,2021.2.3,MacIntel,59.99880002,120488,,,,,,,
,,,,,,3.011015625,4.6623,space,0.3397,0,33,33,18,1,19,image/19.jpg,0,0,,R_7CKHJGMjptgL6SO,2,2024-05-23_21h11.32.019,face trait task,2021.2.3,MacIntel,59.99880002,120488,,,,,,,
,,,,,,1.965677083,2.7919,space,0.3303,0,34,34,15,1,16,image/16.jpg,0,0,,R_7CKHJGMjptgL6SO,2,2024-05-23_21h11.32.019,face trait task,2021.2.3,MacIntel,59.99880002,120488,,,,,,,
,,,,,,2.981197917,2.8278,space,0.3961,0,35,35,34,1,35,image/35.jpg,0,0,,R_7CKHJGMjptgL6SO,2,2024-05-23_21h11.32.019,face trait task,2021.2.3,MacIntel,59.99880002,120488,,,,,,,
,,,,,,5.014270833,2.4563,space,0.8038,0,36,36,23,1,24,image/24.jpg,0,0,,R_7CKHJGMjptgL6SO,2,2024-05-23_21h11.32.019,face trait task,2021.2.3,MacIntel,59.99880002,120488,,,,,,,
,,,,,,4.009791667,2.1373,space,0.2869,0,37,37,22,1,23,image/23.jpg,0,0,,R_7CKHJGMjptgL6SO,2,2024-05-23_21h11.32.019,face trait task,2021.2.3,MacIntel,59.99880002,120488,,,,,,,
,,,,,,4.976744792,2.143,space,0.2769,0,38,38,33,1,34,image/34.jpg,0,0,,R_7CKHJGMjptgL6SO,2,2024-05-23_21h11.32.019,face trait task,2021.2.3,MacIntel,59.99880002,120488,,,,,,,
,,,,,,4.0328125,3.7739,space,2.668,0,39,39,44,1,45,image/45.jpg,0,0,,R_7CKHJGMjptgL6SO,2,2024-05-23_21h11.32.019,face trait task,2021.2.3,MacIntel,59.99880002,120488,,,,,,,
,,,,,,4.476822917,1.8354,space,0.236,0,40,40,7,1,8,image/8.jpg,0,0,,R_7CKHJGMjptgL6SO,2,2024-05-23_21h11.32.019,face trait task,2021.2.3,MacIntel,59.99880002,120488,,,,,,,
,,,,,,3.596692708,1.6858,space,0.5214,0,41,41,9,1,10,image/10.jpg,0,0,,R_7CKHJGMjptgL6SO,2,2024-05-23_21h11.32.019,face trait task,2021.2.3,MacIntel,59.99880002,120488,,,,,,,
,,,,,,4.778020833,2.5774,space,0.7077,0,42,42,4,1,5,image/5.jpg,0,0,,R_7CKHJGMjptgL6SO,2,2024-05-23_21h11.32.019,face trait task,2021.2.3,MacIntel,59.99880002,120488,,,,,,,
,,,,,,4.678671875,2.0388,space,0.2398,0,43,43,27,1,28,image/28.jpg,0,0,,R_7CKHJGMjptgL6SO,2,2024-05-23_21h11.32.019,face trait task,2021.2.3,MacIntel,59.99880002,120488,,,,,,,
,,,,,,3.954661458,2.4907,space,0.2669,0,44,44,42,1,43,image/43.jpg,0,0,,R_7CKHJGMjptgL6SO,2,2024-05-23_21h11.32.019,face trait task,2021.2.3,MacIntel,59.99880002,120488,,,,,,,
,,,,,,5.016302083,1.7523,space,0.2242,0,45,45,41,1,42,image/42.jpg,0,0,,R_7CKHJGMjptgL6SO,2,2024-05-23_21h11.32.019,face trait task,2021.2.3,MacIntel,59.99880002,120488,,,,,,,
,,,,,,4.624296875,2.5037,space,0.9714,0,46,46,38,1,39,image/39.jpg,0,0,,R_7CKHJGMjptgL6SO,2,2024-05-23_21h11.32.019,face trait task,2021.2.3,MacIntel,59.99880002,120488,,,,,,,
,,,,,,5.200729167,4.5896,space,0.6578,0,47,47,31,1,32,image/32.jpg,0,0,,R_7CKHJGMjptgL6SO,2,2024-05-23_21h11.32.019,face trait task,2021.2.3,MacIntel,59.99880002,120488,,,,,,,
,,,,,,3.53859375,2.1029,space,1.4858,0,48,48,13,1,14,image/14.jpg,0,0,,R_7CKHJGMjptgL6SO,2,2024-05-23_21h11.32.019,face trait task,2021.2.3,MacIntel,59.99880002,120488,,,,,,,
,,,,,,3.980677083,3.2695,space,0.3441,0,49,49,35,1,36,image/36.jpg,0,0,,R_7CKHJGMjptgL6SO,2,2024-05-23_21h11.32.019,face trait task,2021.2.3,MacIntel,59.99880002,120488,,,,,,,
,,,,,,4.414453125,2.2436,space,0.3359,0,50,50,6,1,7,image/7.jpg,0,0,,R_7CKHJGMjptgL6SO,2,2024-05-23_21h11.32.019,face trait task,2021.2.3,MacIntel,59.99880002,120488,,,,,,,
,,,,,,4.498020833,2.5773,space,0.5585,0,51,51,30,1,31,image/31.jpg,0,0,,R_7CKHJGMjptgL6SO,2,2024-05-23_21h11.32.019,face trait task,2021.2.3,MacIntel,59.99880002,120488,,,,,,,
,,,,,,5.067838542,2.5288,space,0.3687,0,52,52,19,1,20,image/20.jpg,0,0,,R_7CKHJGMjptgL6SO,2,2024-05-23_21h11.32.019,face trait task,2021.2.3,MacIntel,59.99880002,120488,,,,,,,
,,,,,,,,,,,,,,,,,,,,R_7CKHJGMjptgL6SO,2,2024-05-23_21h11.32.019,face trait task,2021.2.3,MacIntel,59.99880002,120488,0,0,0,1,1,1,competent.png
,,,,,trustworthy,4.00515625,11.1543,space,10.8101,0,0,0,18,1,19,image/19.jpg,0,0,,R_7CKHJGMjptgL6SO,2,2024-05-23_21h11.32.019,face trait task,2021.2.3,MacIntel,59.99880002,120488,,,,,,,
,,,,,,3.950651042,2.6046,space,0.9963,0,1,1,5,1,6,image/6.jpg,0,0,,R_7CKHJGMjptgL6SO,2,2024-05-23_21h11.32.019,face trait task,2021.2.3,MacIntel,59.99880002,120488,,,,,,,
,,,,,,3.987447917,5.704,space,0.7234,0,2,2,28,1,29,image/29.jpg,0,0,,R_7CKHJGMjptgL6SO,2,2024-05-23_21h11.32.019,face trait task,2021.2.3,MacIntel,59.99880002,120488,,,,,,,
,,,,,,4.509817708,4.1387,space,2.0533,0,3,3,21,1,22,image/22.jpg,0,0,,R_7CKHJGMjptgL6SO,2,2024-05-23_21h11.32.019,face trait task,2021.2.3,MacIntel,59.99880002,120488,,,,,,,
,,,,,,4.522734375,2.0849,space,0.2377,0,4,4,27,1,28,image/28.jpg,0,0,,R_7CKHJGMjptgL6SO,2,2024-05-23_21h11.32.019,face trait task,2021.2.3,MacIntel,59.99880002,120488,,,,,,,
,,,,,,3.00984375,3.8375,space,0.3093,0,5,5,11,1,12,image/12.jpg,0,0,,R_7CKHJGMjptgL6SO,2,2024-05-23_21h11.32.019,face trait task,2021.2.3,MacIntel,59.99880002,120488,,,,,,,
,,,,,,6.027213542,4.1224,space,1.1076,0,6,6,32,1,33,image/33.jpg,0,0,,R_7CKHJGMjptgL6SO,2,2024-05-23_21h11.32.019,face trait task,2021.2.3,MacIntel,59.99880002,120488,,,,,,,
,,,,,,6.999010417,3.2591,space,0.5871,0,7,7,51,1,57,image/fill_img.png,1,7,Please move the slider all the way to the RIGHT to show that you are paying attention.,R_7CKHJGMjptgL6SO,2,2024-05-23_21h11.32.019,face trait task,2021.2.3,MacIntel,59.99880002,120488,,,,,,,
,,,,,,5.949557292,8.138,space,0.235,0,8,8,14,1,15,image/15.jpg,0,0,,R_7CKHJGMjptgL6SO,2,2024-05-23_21h11.32.019,face trait task,2021.2.3,MacIntel,59.99880002,120488,,,,,,,
,,,,,,6.628255208,2.99,space,0.6206,0,9,9,12,1,13,image/13.jpg,0,0,,R_7CKHJGMjptgL6SO,2,2024-05-23_21h11.32.019,face trait task,2021.2.3,MacIntel,59.99880002,120488,,,,,,,
,,,,,,1.011536458,3.5448,space,0.4702,0,10,10,47,1,48,image/48.jpg,0,0,,R_7CKHJGMjptgL6SO,2,2024-05-23_21h11.32.019,face trait task,2021.2.3,MacIntel,59.99880002,120488,,,,,,,
,,,,,,1.990859375,2.2712,space,0.2846,0,11,11,43,1,44,image/44.jpg,0,0,,R_7CKHJGMjptgL6SO,2,2024-05-23_21h11.32.019,face trait task,2021.2.3,MacIntel,59.99880002,120488,,,,,,,
,,,,,,3.713385417,3.8868,space,0.2598,0,12,12,34,1,35,image/35.jpg,0,0,,R_7CKHJGMjptgL6SO,2,2024-05-23_21h11.32.019,face trait task,2021.2.3,MacIntel,59.99880002,120488,,,,,,,
,,,,,,4.964713542,2.1017,space,0.9012,0,13,13,6,1,7,image/7.jpg,0,0,,R_7CKHJGMjptgL6SO,2,2024-05-23_21h11.32.019,face trait task,2021.2.3,MacIntel,59.99880002,120488,,,,,,,
,,,,,,4.029375,7.0371,space,0.5294,0,14,14,38,1,39,image/39.jpg,0,0,,R_7CKHJGMjptgL6SO,2,2024-05-23_21h11.32.019,face trait task,2021.2.3,MacIntel,59.99880002,120488,,,,,,,
,,,,,,4.11328125,2.5407,space,0.3881,0,15,15,37,1,38,image/38.jpg,0,0,,R_7CKHJGMjptgL6SO,2,2024-05-23_21h11.32.019,face trait task,2021.2.3,MacIntel,59.99880002,120488,,,,,,,
,,,,,,6.9925,3.1884,space,0.7609,0,16,16,52,1,57,image/fill_img.png,1,7,Please move the slider all the way to the RIGHT to show that you are paying attention.,R_7CKHJGMjptgL6SO,2,2024-05-23_21h11.32.019,face trait task,2021.2.3,MacIntel,59.99880002,120488,,,,,,,
,,,,,,3.811354167,4.2442,space,2.2022,0,17,17,46,1,47,image/47.jpg,0,0,,R_7CKHJGMjptgL6SO,2,2024-05-23_21h11.32.019,face trait task,2021.2.3,MacIntel,59.99880002,120488,,,,,,,
,,,,,,6.966276042,6.3591,space,0.5062,0,18,18,26,1,27,image/27.jpg,0,0,,R_7CKHJGMjptgL6SO,2,2024-05-23_21h11.32.019,face trait task,2021.2.3,MacIntel,59.99880002,120488,,,,,,,
,,,,,,5.965572917,3.9436,space,0.39,0,19,19,10,1,11,image/11.jpg,0,0,,R_7CKHJGMjptgL6SO,2,2024-05-23_21h11.32.019,face trait task,2021.2.3,MacIntel,59.99880002,120488,,,,,,,
,,,,,,6.995833333,3.2719,space,0.8362,0,20,20,35,1,36,image/36.jpg,0,0,,R_7CKHJGMjptgL6SO,2,2024-05-23_21h11.32.019,face trait task,2021.2.3,MacIntel,59.99880002,120488,,,,,,,
,,,,,,6.993307292,8.0424,space,0.9546,0,21,21,19,1,20,image/20.jpg,0,0,,R_7CKHJGMjptgL6SO,2,2024-05-23_21h11.32.019,face trait task,2021.2.3,MacIntel,59.99880002,120488,,,,,,,
,,,,,,3.860442708,2.8033,space,0.4547,0,22,22,48,1,49,image/49.jpg,0,0,,R_7CKHJGMjptgL6SO,2,2024-05-23_21h11.32.019,face trait task,2021.2.3,MacIntel,59.99880002,120488,,,,,,,
,,,,,,3.862109375,2.0633,space,0.4721,0,23,23,39,1,40,image/40.jpg,0,0,,R_7CKHJGMjptgL6SO,2,2024-05-23_21h11.32.019,face trait task,2021.2.3,MacIntel,59.99880002,120488,,,,,,,
,,,,,,3.862109375,1.1863,space,0.4918,0,24,24,8,1,9,image/9.jpg,0,0,,R_7CKHJGMjptgL6SO,2,2024-05-23_21h11.32.019,face trait task,2021.2.3,MacIntel,59.99880002,120488,,,,,,,
,,,,,,3.251197917,2.4577,space,0.3683,0,25,25,44,1,45,image/45.jpg,0,0,,R_7CKHJGMjptgL6SO,2,2024-05-23_21h11.32.019,face trait task,2021.2.3,MacIntel,59.99880002,120488,,,,,,,
,,,,,,3.251197917,2.0737,space,0.4673,0,26,26,41,1,42,image/42.jpg,0,0,,R_7CKHJGMjptgL6SO,2,2024-05-23_21h11.32.019,face trait task,2021.2.3,MacIntel,59.99880002,120488,,,,,,,
,,,,,,3.251197917,1.0643,space,0.3695,0,27,27,42,1,43,image/43.jpg,0,0,,R_7CKHJGMjptgL6SO,2,2024-05-23_21h11.32.019,face trait task,2021.2.3,MacIntel,59.99880002,120488,,,,,,,
,,,,,,5.008802083,4.0709,space,1.9229,0,28,28,0,1,1,image/1.jpg,0,0,,R_7CKHJGMjptgL6SO,2,2024-05-23_21h11.32.019,face trait task,2021.2.3,MacIntel,59.99880002,120488,,,,,,,
,,,,,,5.008802083,1.7383,space,1.3049,0,29,29,23,1,24,image/24.jpg,0,0,,R_7CKHJGMjptgL6SO,2,2024-05-23_21h11.32.019,face trait task,2021.2.3,MacIntel,59.99880002,120488,,,,,,,
,,,,,,3.874036458,2.0848,space,0.542,0,30,30,45,1,46,image/46.jpg,0,0,,R_7CKHJGMjptgL6SO,2,2024-05-23_21h11.32.019,face trait task,2021.2.3,MacIntel,59.99880002,120488,,,,,,,
,,,,,,4.536458333,2.8547,space,0.2546,0,31,31,30,1,31,image/31.jpg,0,0,,R_7CKHJGMjptgL6SO,2,2024-05-23_21h11.32.019,face trait task,2021.2.3,MacIntel,59.99880002,120488,,,,,,,
,,,,,,4.536458333,1.839,space,0.1712,0,32,32,22,1,23,image/23.jpg,0,0,,R_7CKHJGMjptgL6SO,2,2024-05-23_21h11.32.019,face trait task,2021.2.3,MacIntel,59.99880002,120488,,,,,,,
,,,,,,6.987630208,4.2211,space,0.7498,0,33,33,3,1,4,image/4.jpg,0,0,,R_7CKHJGMjptgL6SO,2,2024-05-23_21h11.32.019,face trait task,2021.2.3,MacIntel,59.99880002,120488,,,,,,,
,,,,,,4.244713542,3.8872,space,0.2748,0,34,34,49,1,50,image/50.jpg,0,0,,R_7CKHJGMjptgL6SO,2,2024-05-23_21h11.32.019,face trait task,2021.2.3,MacIntel,59.99880002,120488,,,,,,,
,,,,,,6.963203125,3.1561,space,0.2711,0,35,35,20,1,21,image/21.jpg,0,0,,R_7CKHJGMjptgL6SO,2,2024-05-23_21h11.32.019,face trait task,2021.2.3,MacIntel,59.99880002,120488,,,,,,,
,,,,,,6.536979167,3.8214,space,0.2356,0,36,36,31,1,32,image/32.jpg,0,0,,R_7CKHJGMjptgL6SO,2,2024-05-23_21h11.32.019,face trait task,2021.2.3,MacIntel,59.99880002,120488,,,,,,,
,,,,,,3.894088542,4.3351,space,0.2215,0,37,37,40,1,41,image/41.jpg,0,0,,R_7CKHJGMjptgL6SO,2,2024-05-23_21h11.32.019,face trait task,2021.2.3,MacIntel,59.99880002,120488,,,,,,,
,,,,,,6.989661458,3.4863,space,0.7538,0,38,38,50,1,61,image/fill_img.png,1,7,Please move the slider all the way to the RIGHT to show that you are paying attention.,R_7CKHJGMjptgL6SO,2,2024-05-23_21h11.32.019,face trait task,2021.2.3,MacIntel,59.99880002,120488,,,,,,,
,,,,,,5.998776042,3.7707,space,0.3693,0,39,39,2,1,3,image/3.jpg,0,0,,R_7CKHJGMjptgL6SO,2,2024-05-23_21h11.32.019,face trait task,2021.2.3,MacIntel,59.99880002,120488,,,,,,,
,,,,,,4.046927083,2.8754,space,0.7039,0,40,40,36,1,37,image/37.jpg,0,0,,R_7CKHJGMjptgL6SO,2,2024-05-23_21h11.32.019,face trait task,2021.2.3,MacIntel,59.99880002,120488,,,,,,,
,,,,,,6.964791667,2.6906,space,0.6113,0,41,41,4,1,5,image/5.jpg,0,0,,R_7CKHJGMjptgL6SO,2,2024-05-23_21h11.32.019,face trait task,2021.2.3,MacIntel,59.99880002,120488,,,,,,,
,,,,,,5.599244792,2.8074,space,0.5191,0,42,42,17,1,18,image/18.jpg,0,0,,R_7CKHJGMjptgL6SO,2,2024-05-23_21h11.32.019,face trait task,2021.2.3,MacIntel,59.99880002,120488,,,,,,,
,,,,,,5.952838542,2.7304,space,1.2376,0,43,43,1,1,2,image/2.jpg,0,0,,R_7CKHJGMjptgL6SO,2,2024-05-23_21h11.32.019,face trait task,2021.2.3,MacIntel,59.99880002,120488,,,,,,,
,,,,,,6.124036458,3.0885,space,0.3395,0,44,44,33,1,34,image/34.jpg,0,0,,R_7CKHJGMjptgL6SO,2,2024-05-23_21h11.32.019,face trait task,2021.2.3,MacIntel,59.99880002,120488,,,,,,,
,,,,,,5.761015625,3.3279,space,0.4582,0,45,45,13,1,14,image/14.jpg,0,0,,R_7CKHJGMjptgL6SO,2,2024-05-23_21h11.32.019,face trait task,2021.2.3,MacIntel,59.99880002,120488,,,,,,,
,,,,,,6.178619792,1.9607,space,0.6737,0,46,46,7,1,8,image/8.jpg,0,0,,R_7CKHJGMjptgL6SO,2,2024-05-23_21h11.32.019,face trait task,2021.2.3,MacIntel,59.99880002,120488,,,,,,,
,,,,,,4.804869792,1.6237,space,0.2438,0,47,47,29,1,30,image/30.jpg,0,0,,R_7CKHJGMjptgL6SO,2,2024-05-23_21h11.32.019,face trait task,2021.2.3,MacIntel,59.99880002,120488,,,,,,,
,,,,,,5.870026042,3.0398,space,1.3706,0,48,48,25,1,26,image/26.jpg,0,0,,R_7CKHJGMjptgL6SO,2,2024-05-23_21h11.32.019,face trait task,2021.2.3,MacIntel,59.99880002,120488,,,,,,,
,,,,,,6.969817708,3.3945,space,0.406,0,49,49,24,1,25,image/25.jpg,0,0,,R_7CKHJGMjptgL6SO,2,2024-05-23_21h11.32.019,face trait task,2021.2.3,MacIntel,59.99880002,120488,,,,,,,
,,,,,,5.14546875,2.8272,space,0.7394,0,50,50,9,1,10,image/10.jpg,0,0,,R_7CKHJGMjptgL6SO,2,2024-05-23_21h11.32.019,face trait task,2021.2.3,MacIntel,59.99880002,120488,,,,,,,
,,,,,,5.378333333,2.9895,space,1.9081,0,51,51,16,1,17,image/17.jpg,0,0,,R_7CKHJGMjptgL6SO,2,2024-05-23_21h11.32.019,face trait task,2021.2.3,MacIntel,59.99880002,120488,,,,,,,
,,,,,,3.46359375,1.8383,space,0.3197,0,52,52,15,1,16,image/16.jpg,0,0,,R_7CKHJGMjptgL6SO,2,2024-05-23_21h11.32.019,face trait task,2021.2.3,MacIntel,59.99880002,120488,,,,,,,
,,,,,,,,,,,,,,,,,,,,R_7CKHJGMjptgL6SO,2,2024-05-23_21h11.32.019,face trait task,2021.2.3,MacIntel,59.99880002,120488,0,1,1,2,1,2,trustworthy.png
,,,,,critical,1.514479167,5.2356,space,0.8513,0,0,0,4,1,5,image/5.jpg,0,0,,R_7CKHJGMjptgL6SO,2,2024-05-23_21h11.32.019,face trait task,2021.2.3,MacIntel,59.99880002,120488,,,,,,,
,,,,,,6.998828125,2.7696,space,0.8541,0,1,1,51,1,57,image/fill_img.png,1,7,Please move the slider all the way to the RIGHT to show that you are paying attention.,R_7CKHJGMjptgL6SO,2,2024-05-23_21h11.32.019,face trait task,2021.2.3,MacIntel,59.99880002,120488,,,,,,,
,,,,,,6.998802083,5.3036,space,0.8101,0,2,2,21,1,22,image/22.jpg,0,0,,R_7CKHJGMjptgL6SO,2,2024-05-23_21h11.32.019,face trait task,2021.2.3,MacIntel,59.99880002,120488,,,,,,,
,,,,,,6.031119792,2.5903,space,0.9854,0,3,3,14,1,15,image/15.jpg,0,0,,R_7CKHJGMjptgL6SO,2,2024-05-23_21h11.32.019,face trait task,2021.2.3,MacIntel,59.99880002,120488,,,,,,,
,,,,,,5.639765625,2.7379,space,0.334,0,4,4,9,1,10,image/10.jpg,0,0,,R_7CKHJGMjptgL6SO,2,2024-05-23_21h11.32.019,face trait task,2021.2.3,MacIntel,59.99880002,120488,,,,,,,
,,,,,,3.013359375,5.5894,space,2.8894,0,5,5,11,1,12,image/12.jpg,0,0,,R_7CKHJGMjptgL6SO,2,2024-05-23_21h11.32.019,face trait task,2021.2.3,MacIntel,59.99880002,120488,,,,,,,
,,,,,,1.002630208,2.1696,space,0.4583,0,6,6,42,1,43,image/43.jpg,0,0,,R_7CKHJGMjptgL6SO,2,2024-05-23_21h11.32.019,face trait task,2021.2.3,MacIntel,59.99880002,120488,,,,,,,
,,,,,,6.983229167,4.7962,space,0.7567,0,7,7,34,1,35,image/35.jpg,0,0,,R_7CKHJGMjptgL6SO,2,2024-05-23_21h11.32.019,face trait task,2021.2.3,MacIntel,59.99880002,120488,,,,,,,
,,,,,,4.96046875,4.4121,space,0.5261,0,8,8,32,1,33,image/33.jpg,0,0,,R_7CKHJGMjptgL6SO,2,2024-05-23_21h11.32.019,face trait task,2021.2.3,MacIntel,59.99880002,120488,,,,,,,
,,,,,,6.959869792,2.3708,space,0.4018,0,9,9,36,1,37,image/37.jpg,0,0,,R_7CKHJGMjptgL6SO,2,2024-05-23_21h11.32.019,face trait task,2021.2.3,MacIntel,59.99880002,120488,,,,,,,
,,,,,,5.975677083,12.7796,space,0.1681,0,10,10,25,1,26,image/26.jpg,0,0,,R_7CKHJGMjptgL6SO,2,2024-05-23_21h11.32.019,face trait task,2021.2.3,MacIntel,59.99880002,120488,,,,,,,
,,,,,,3.005963542,8.7233,space,4.204,0,11,11,35,1,36,image/36.jpg,0,0,,R_7CKHJGMjptgL6SO,2,2024-05-23_21h11.32.019,face trait task,2021.2.3,MacIntel,59.99880002,120488,,,,,,,
,,,,,,3.606119792,3.0364,space,0.5051,0,12,12,2,1,3,image/3.jpg,0,0,,R_7CKHJGMjptgL6SO,2,2024-05-23_21h11.32.019,face trait task,2021.2.3,MacIntel,59.99880002,120488,,,,,,,
,,,,,,6.456380208,3.1557,space,0.522,0,13,13,47,1,48,image/48.jpg,0,0,,R_7CKHJGMjptgL6SO,2,2024-05-23_21h11.32.019,face trait task,2021.2.3,MacIntel,59.99880002,120488,,,,,,,
,,,,,,3.521901042,4.2871,space,0.7623,0,14,14,19,1,20,image/20.jpg,0,0,,R_7CKHJGMjptgL6SO,2,2024-05-23_21h11.32.019,face trait task,2021.2.3,MacIntel,59.99880002,120488,,,,,,,
,,,,,,6.636640625,3.5327,space,0.6218,0,15,15,26,1,27,image/27.jpg,0,0,,R_7CKHJGMjptgL6SO,2,2024-05-23_21h11.32.019,face trait task,2021.2.3,MacIntel,59.99880002,120488,,,,,,,
,,,,,,6.96671875,3.2554,space,0.3856,0,16,16,28,1,29,image/29.jpg,0,0,,R_7CKHJGMjptgL6SO,2,2024-05-23_21h11.32.019,face trait task,2021.2.3,MacIntel,59.99880002,120488,,,,,,,
,,,,,,6.952317708,1.4874,space,0.6052,0,17,17,52,1,57,image/fill_img.png,1,7,Please move the slider all the way to the RIGHT to show that you are paying attention.,R_7CKHJGMjptgL6SO,2,2024-05-23_21h11.32.019,face trait task,2021.2.3,MacIntel,59.99880002,120488,,,,,,,
,,,,,,4.32984375,3.3531,space,0.4185,0,18,18,10,1,11,image/11.jpg,0,0,,R_7CKHJGMjptgL6SO,2,2024-05-23_21h11.32.019,face trait task,2021.2.3,MacIntel,59.99880002,120488,,,,,,,
,,,,,,1.564505208,3.4438,space,2.3213,0,19,19,49,1,50,image/50.jpg,0,0,,R_7CKHJGMjptgL6SO,2,2024-05-23_21h11.32.019,face trait task,2021.2.3,MacIntel,59.99880002,120488,,,,,,,
,,,,,,6.951041667,2.1374,space,0.3265,0,20,20,50,1,61,image/fill_img.png,1,7,Please move the slider all the way to the RIGHT to show that you are paying attention.,R_7CKHJGMjptgL6SO,2,2024-05-23_21h11.32.019,face trait task,2021.2.3,MacIntel,59.99880002,120488,,,,,,,
,,,,,,2.664869792,2.9377,space,0.2705,0,21,21,48,1,49,image/49.jpg,0,0,,R_7CKHJGMjptgL6SO,2,2024-05-23_21h11.32.019,face trait task,2021.2.3,MacIntel,59.99880002,120488,,,,,,,
,,,,,,5.174088542,2.5782,space,0.4512,0,22,22,33,1,34,image/34.jpg,0,0,,R_7CKHJGMjptgL6SO,2,2024-05-23_21h11.32.019,face trait task,2021.2.3,MacIntel,59.99880002,120488,,,,,,,
,,,,,,6.240885417,3.8159,space,0.7916,0,23,23,30,1,31,image/31.jpg,0,0,,R_7CKHJGMjptgL6SO,2,2024-05-23_21h11.32.019,face trait task,2021.2.3,MacIntel,59.99880002,120488,,,,,,,
,,,,,,1.584453125,2.7559,space,0.7937,0,24,24,12,1,13,image/13.jpg,0,0,,R_7CKHJGMjptgL6SO,2,2024-05-23_21h11.32.019,face trait task,2021.2.3,MacIntel,59.99880002,120488,,,,,,,
,,,,,,6.805390625,3.4271,space,0.3606,0,25,25,45,1,46,image/46.jpg,0,0,,R_7CKHJGMjptgL6SO,2,2024-05-23_21h11.32.019,face trait task,2021.2.3,MacIntel,59.99880002,120488,,,,,,,
,,,,,,6.803645833,1.5158,space,0.7051,0,26,26,17,1,18,image/18.jpg,0,0,,R_7CKHJGMjptgL6SO,2,2024-05-23_21h11.32.019,face trait task,2021.2.3,MacIntel,59.99880002,120488,,,,,,,
,,,,,,6.118828125,1.7749,space,0.2174,0,27,27,44,1,45,image/45.jpg,0,0,,R_7CKHJGMjptgL6SO,2,2024-05-23_21h11.32.019,face trait task,2021.2.3,MacIntel,59.99880002,120488,,,,,,,
,,,,,,4.415703125,3.6897,space,0.252,0,28,28,46,1,47,image/47.jpg,0,0,,R_7CKHJGMjptgL6SO,2,2024-05-23_21h11.32.019,face trait task,2021.2.3,MacIntel,59.99880002,120488,,,,,,,
,,,,,,5.451927083,3.6601,space,0.3522,0,29,29,41,1,42,image/42.jpg,0,0,,R_7CKHJGMjptgL6SO,2,2024-05-23_21h11.32.019,face trait task,2021.2.3,MacIntel,59.99880002,120488,,,,,,,
,,,,,,3.356067708,2.3862,space,0.6939,0,30,30,22,1,23,image/23.jpg,0,0,,R_7CKHJGMjptgL6SO,2,2024-05-23_21h11.32.019,face trait task,2021.2.3,MacIntel,59.99880002,120488,,,,,,,
,,,,,,5.866979167,2.6299,space,0.8946,0,31,31,29,1,30,image/30.jpg,0,0,,R_7CKHJGMjptgL6SO,2,2024-05-23_21h11.32.019,face trait task,2021.2.3,MacIntel,59.99880002,120488,,,,,,,
,,,,,,6.365026042,5.4044,space,0.34,0,32,32,7,1,8,image/8.jpg,0,0,,R_7CKHJGMjptgL6SO,2,2024-05-23_21h11.32.019,face trait task,2021.2.3,MacIntel,59.99880002,120488,,,,,,,
,,,,,,1.0365625,3.1858,space,0.6729,0,33,33,24,1,25,image/25.jpg,0,0,,R_7CKHJGMjptgL6SO,2,2024-05-23_21h11.32.019,face trait task,2021.2.3,MacIntel,59.99880002,120488,,,,,,,
,,,,,,5.205546875,4.1752,space,0.2927,0,34,34,18,1,19,image/19.jpg,0,0,,R_7CKHJGMjptgL6SO,2,2024-05-23_21h11.32.019,face trait task,2021.2.3,MacIntel,59.99880002,120488,,,,,,,
,,,,,,3.996588542,4.0058,space,0.2528,0,35,35,3,1,4,image/4.jpg,0,0,,R_7CKHJGMjptgL6SO,2,2024-05-23_21h11.32.019,face trait task,2021.2.3,MacIntel,59.99880002,120488,,,,,,,
,,,,,,4.6815625,3.4061,space,0.6828,0,36,36,38,1,39,image/39.jpg,0,0,,R_7CKHJGMjptgL6SO,2,2024-05-23_21h11.32.019,face trait task,2021.2.3,MacIntel,59.99880002,120488,,,,,,,
,,,,,,6.508802083,4.8077,space,1.5079,0,37,37,27,1,28,image/28.jpg,0,0,,R_7CKHJGMjptgL6SO,2,2024-05-23_21h11.32.019,face trait task,2021.2.3,MacIntel,59.99880002,120488,,,,,,,
,,,,,,2.305078125,5.5238,space,0.2777,0,38,38,39,1,40,image/40.jpg,0,0,,R_7CKHJGMjptgL6SO,2,2024-05-23_21h11.32.019,face trait task,2021.2.3,MacIntel,59.99880002,120488,,,,,,,
,,,,,,3.998776042,3.0543,space,1.1079,0,39,39,5,1,6,image/6.jpg,0,0,,R_7CKHJGMjptgL6SO,2,2024-05-23_21h11.32.019,face trait task,2021.2.3,MacIntel,59.99880002,120488,,,,,,,
,,,,,,3.696041667,2.3066,space,1.0548,0,40,40,23,1,24,image/24.jpg,0,0,,R_7CKHJGMjptgL6SO,2,2024-05-23_21h11.32.019,face trait task,2021.2.3,MacIntel,59.99880002,120488,,,,,,,
,,,,,,5.195026042,2.3629,space,0.5217,0,41,41,43,1,44,image/44.jpg,0,0,,R_7CKHJGMjptgL6SO,2,2024-05-23_21h11.32.019,face trait task,2021.2.3,MacIntel,59.99880002,120488,,,,,,,
,,,,,,4.496197917,4.5218,space,1.5422,0,42,42,8,1,9,image/9.jpg,0,0,,R_7CKHJGMjptgL6SO,2,2024-05-23_21h11.32.019,face trait task,2021.2.3,MacIntel,59.99880002,120488,,,,,,,
,,,,,,2.318151042,2.2223,space,1.9517,0,43,43,20,1,21,image/21.jpg,0,0,,R_7CKHJGMjptgL6SO,2,2024-05-23_21h11.32.019,face trait task,2021.2.3,MacIntel,59.99880002,120488,,,,,,,
,,,,,,5.516640625,1.9553,space,0.3898,0,44,44,31,1,32,image/32.jpg,0,0,,R_7CKHJGMjptgL6SO,2,2024-05-23_21h11.32.019,face trait task,2021.2.3,MacIntel,59.99880002,120488,,,,,,,
,,,,,,6.24546875,4.6031,space,0.4564,0,45,45,6,1,7,image/7.jpg,0,0,,R_7CKHJGMjptgL6SO,2,2024-05-23_21h11.32.019,face trait task,2021.2.3,MacIntel,59.99880002,120488,,,,,,,
,,,,,,6.798255208,2.0936,space,0.434,0,46,46,16,1,17,image/17.jpg,0,0,,R_7CKHJGMjptgL6SO,2,2024-05-23_21h11.32.019,face trait task,2021.2.3,MacIntel,59.99880002,120488,,,,,,,
,,,,,,5.614947917,1.7893,space,0.3512,0,47,47,1,1,2,image/2.jpg,0,0,,R_7CKHJGMjptgL6SO,2,2024-05-23_21h11.32.019,face trait task,2021.2.3,MacIntel,59.99880002,120488,,,,,,,
,,,,,,6.623411458,4.1549,space,0.9821,0,48,48,13,1,14,image/14.jpg,0,0,,R_7CKHJGMjptgL6SO,2,2024-05-23_21h11.32.019,face trait task,2021.2.3,MacIntel,59.99880002,120488,,,,,,,
,,,,,,3.720859375,3.3378,space,0.1028,0,49,49,40,1,41,image/41.jpg,0,0,,R_7CKHJGMjptgL6SO,2,2024-05-23_21h11.32.019,face trait task,2021.2.3,MacIntel,59.99880002,120488,,,,,,,
,,,,,,2.773619792,3.2443,space,1.3418,0,50,50,0,1,1,image/1.jpg,0,0,,R_7CKHJGMjptgL6SO,2,2024-05-23_21h11.32.019,face trait task,2021.2.3,MacIntel,59.99880002,120488,,,,,,,
,,,,,,2.792473958,3.1547,space,1.2849,0,51,51,37,1,38,image/38.jpg,0,0,,R_7CKHJGMjptgL6SO,2,2024-05-23_21h11.32.019,face trait task,2021.2.3,MacIntel,59.99880002,120488,,,,,,,
,,,,,,4.994921875,3.8951,space,0.3544,0,52,52,15,1,16,image/16.jpg,0,0,,R_7CKHJGMjptgL6SO,2,2024-05-23_21h11.32.019,face trait task,2021.2.3,MacIntel,59.99880002,120488,,,,,,,
,,,,,,,,,,,,,,,,,,,,R_7CKHJGMjptgL6SO,2,2024-05-23_21h11.32.019,face trait task,2021.2.3,MacIntel,59.99880002,120488,0,2,2,0,1,0,critical.png
,,,,,friendly,6.948515625,3.8893,space,0.3896,0,0,0,49,1,50,image/50.jpg,0,0,,R_7CKHJGMjptgL6SO,2,2024-05-23_21h11.32.019,face trait task,2021.2.3,MacIntel,59.99880002,120488,,,,,,,
,,,,,,6.931796875,1.779,space,1.2341,0,1,1,23,1,24,image/24.jpg,0,0,,R_7CKHJGMjptgL6SO,2,2024-05-23_21h11.32.019,face trait task,2021.2.3,MacIntel,59.99880002,120488,,,,,,,
,,,,,,6.002369792,5.2727,space,0.2065,0,2,2,33,1,34,image/34.jpg,0,0,,R_7CKHJGMjptgL6SO,2,2024-05-23_21h11.32.019,face trait task,2021.2.3,MacIntel,59.99880002,120488,,,,,,,
,,,,,,6.025104167,2.7368,space,0.7178,0,3,3,13,1,14,image/14.jpg,0,0,,R_7CKHJGMjptgL6SO,2,2024-05-23_21h11.32.019,face trait task,2021.2.3,MacIntel,59.99880002,120488,,,,,,,
,,,,,,6.982552083,3.3599,space,0.3564,0,4,4,51,1,57,image/fill_img.png,1,7,Please move the slider all the way to the RIGHT to show that you are paying attention.,R_7CKHJGMjptgL6SO,2,2024-05-23_21h11.32.019,face trait task,2021.2.3,MacIntel,59.99880002,120488,,,,,,,
,,,,,,6.14484375,20.6294,space,1.5242,0,5,5,21,1,22,image/22.jpg,0,0,,R_7CKHJGMjptgL6SO,2,2024-05-23_21h11.32.019,face trait task,2021.2.3,MacIntel,59.99880002,120488,,,,,,,
,,,,,,5.001276042,2.7858,space,0.3857,0,6,6,43,1,44,image/44.jpg,0,0,,R_7CKHJGMjptgL6SO,2,2024-05-23_21h11.32.019,face trait task,2021.2.3,MacIntel,59.99880002,120488,,,,,,,
,,,,,,3.000625,1.7267,space,0.3574,0,7,7,38,1,39,image/39.jpg,0,0,,R_7CKHJGMjptgL6SO,2,2024-05-23_21h11.32.019,face trait task,2021.2.3,MacIntel,59.99880002,120488,,,,,,,
,,,,,,2.005442708,2.4356,space,0.2561,0,8,8,40,1,41,image/41.jpg,0,0,,R_7CKHJGMjptgL6SO,2,2024-05-23_21h11.32.019,face trait task,2021.2.3,MacIntel,59.99880002,120488,,,,,,,
,,,,,,6.99234375,2.7221,space,0.3363,0,9,9,24,1,25,image/25.jpg,0,0,,R_7CKHJGMjptgL6SO,2,2024-05-23_21h11.32.019,face trait task,2021.2.3,MacIntel,59.99880002,120488,,,,,,,
,,,,,,6.398046875,3.002,space,0.3182,0,10,10,6,1,7,image/7.jpg,0,0,,R_7CKHJGMjptgL6SO,2,2024-05-23_21h11.32.019,face trait task,2021.2.3,MacIntel,59.99880002,120488,,,,,,,
,,,,,,3.441171875,2.81,space,0.2531,0,11,11,10,1,11,image/11.jpg,0,0,,R_7CKHJGMjptgL6SO,2,2024-05-23_21h11.32.019,face trait task,2021.2.3,MacIntel,59.99880002,120488,,,,,,,
,,,,,,3.026171875,3.6873,space,1.3862,0,12,12,14,1,15,image/15.jpg,0,0,,R_7CKHJGMjptgL6SO,2,2024-05-23_21h11.32.019,face trait task,2021.2.3,MacIntel,59.99880002,120488,,,,,,,
,,,,,,2.041796875,2.3814,space,0.7848,0,13,13,47,1,48,image/48.jpg,0,0,,R_7CKHJGMjptgL6SO,2,2024-05-23_21h11.32.019,face trait task,2021.2.3,MacIntel,59.99880002,120488,,,,,,,
,,,,,,5.954713542,2.4868,space,0.2897,0,14,14,2,1,3,image/3.jpg,0,0,,R_7CKHJGMjptgL6SO,2,2024-05-23_21h11.32.019,face trait task,2021.2.3,MacIntel,59.99880002,120488,,,,,,,
,,,,,,5.418567708,1.972,space,1.7382,0,15,15,41,1,42,image/42.jpg,0,0,,R_7CKHJGMjptgL6SO,2,2024-05-23_21h11.32.019,face trait task,2021.2.3,MacIntel,59.99880002,120488,,,,,,,
,,,,,,1.002708333,3.0697,space,0.4602,0,16,16,36,1,37,image/37.jpg,0,0,,R_7CKHJGMjptgL6SO,2,2024-05-23_21h11.32.019,face trait task,2021.2.3,MacIntel,59.99880002,120488,,,,,,,
,,,,,,6.995963542,4.1864,space,0.2738,0,17,17,50,1,61,image/fill_img.png,1,7,Please move the slider all the way to the RIGHT to show that you are paying attention.,R_7CKHJGMjptgL6SO,2,2024-05-23_21h11.32.019,face trait task,2021.2.3,MacIntel,59.99880002,120488,,,,,,,
,,,,,,1.255572917,6.8887,space,1.3652,0,18,18,30,1,31,image/31.jpg,0,0,,R_7CKHJGMjptgL6SO,2,2024-05-23_21h11.32.019,face trait task,2021.2.3,MacIntel,59.99880002,120488,,,,,,,
,,,,,,6.985807292,2.4415,space,0.3031,0,19,19,18,1,19,image/19.jpg,0,0,,R_7CKHJGMjptgL6SO,2,2024-05-23_21h11.32.019,face trait task,2021.2.3,MacIntel,59.99880002,120488,,,,,,,
,,,,,,6.985807292,1.1268,space,0.7196,0,20,20,11,1,12,image/12.jpg,0,0,,R_7CKHJGMjptgL6SO,2,2024-05-23_21h11.32.019,face trait task,2021.2.3,MacIntel,59.99880002,120488,,,,,,,
,,,,,,6.078671875,2.0875,space,0.3392,0,21,21,46,1,47,image/47.jpg,0,0,,R_7CKHJGMjptgL6SO,2,2024-05-23_21h11.32.019,face trait task,2021.2.3,MacIntel,59.99880002,120488,,,,,,,
,,,,,,6.911614583,2.0746,space,0.5164,0,22,22,12,1,13,image/13.jpg,0,0,,R_7CKHJGMjptgL6SO,2,2024-05-23_21h11.32.019,face trait task,2021.2.3,MacIntel,59.99880002,120488,,,,,,,
,,,,,,4.498151042,3.4977,space,0.4388,0,23,23,28,1,29,image/29.jpg,0,0,,R_7CKHJGMjptgL6SO,2,2024-05-23_21h11.32.019,face trait task,2021.2.3,MacIntel,59.99880002,120488,,,,,,,
,,,,,,2.501666667,2.5399,space,1.0687,0,24,24,29,1,30,image/30.jpg,0,0,,R_7CKHJGMjptgL6SO,2,2024-05-23_21h11.32.019,face trait task,2021.2.3,MacIntel,59.99880002,120488,,,,,,,
,,,,,,6.407708333,3.0434,space,0.4704,0,25,25,19,1,20,image/20.jpg,0,0,,R_7CKHJGMjptgL6SO,2,2024-05-23_21h11.32.019,face trait task,2021.2.3,MacIntel,59.99880002,120488,,,,,,,
,,,,,,6.989140625,1.6358,space,0.3974,0,26,26,52,1,57,image/fill_img.png,1,7,Please move the slider all the way to the RIGHT to show that you are paying attention.,R_7CKHJGMjptgL6SO,2,2024-05-23_21h11.32.019,face trait task,2021.2.3,MacIntel,59.99880002,120488,,,,,,,
,,,,,,6.375520833,2.6573,space,0.3406,0,27,27,48,1,49,image/49.jpg,0,0,,R_7CKHJGMjptgL6SO,2,2024-05-23_21h11.32.019,face trait task,2021.2.3,MacIntel,59.99880002,120488,,,,,,,
,,,,,,6.013307292,2.5539,space,0.4917,0,28,28,35,1,36,image/36.jpg,0,0,,R_7CKHJGMjptgL6SO,2,2024-05-23_21h11.32.019,face trait task,2021.2.3,MacIntel,59.99880002,120488,,,,,,,
,,,,,,1.001927083,4.2556,space,0.3265,0,29,29,39,1,40,image/40.jpg,0,0,,R_7CKHJGMjptgL6SO,2,2024-05-23_21h11.32.019,face trait task,2021.2.3,MacIntel,59.99880002,120488,,,,,,,
,,,,,,6.840572917,2.5294,space,0.293,0,30,30,1,1,2,image/2.jpg,0,0,,R_7CKHJGMjptgL6SO,2,2024-05-23_21h11.32.019,face trait task,2021.2.3,MacIntel,59.99880002,120488,,,,,,,
,,,,,,6.42453125,2.7198,space,0.2879,0,31,31,5,1,6,image/6.jpg,0,0,,R_7CKHJGMjptgL6SO,2,2024-05-23_21h11.32.019,face trait task,2021.2.3,MacIntel,59.99880002,120488,,,,,,,
,,,,,,5.211822917,1.6865,space,0.3355,0,32,32,37,1,38,image/38.jpg,0,0,,R_7CKHJGMjptgL6SO,2,2024-05-23_21h11.32.019,face trait task,2021.2.3,MacIntel,59.99880002,120488,,,,,,,
,,,,,,2.59875,2.077,space,0.3242,0,33,33,42,1,43,image/43.jpg,0,0,,R_7CKHJGMjptgL6SO,2,2024-05-23_21h11.32.019,face trait task,2021.2.3,MacIntel,59.99880002,120488,,,,,,,
,,,,,,4.261302083,2.2888,space,0.2353,0,34,34,25,1,26,image/26.jpg,0,0,,R_7CKHJGMjptgL6SO,2,2024-05-23_21h11.32.019,face trait task,2021.2.3,MacIntel,59.99880002,120488,,,,,,,
,,,,,,4.956328125,2.1129,space,0.3522,0,35,35,45,1,46,image/46.jpg,0,0,,R_7CKHJGMjptgL6SO,2,2024-05-23_21h11.32.019,face trait task,2021.2.3,MacIntel,59.99880002,120488,,,,,,,
,,,,,,6.850182292,3.6388,space,0.319,0,36,36,0,1,1,image/1.jpg,0,0,,R_7CKHJGMjptgL6SO,2,2024-05-23_21h11.32.019,face trait task,2021.2.3,MacIntel,59.99880002,120488,,,,,,,
,,,,,,5.536041667,2.4439,space,0.4636,0,37,37,27,1,28,image/28.jpg,0,0,,R_7CKHJGMjptgL6SO,2,2024-05-23_21h11.32.019,face trait task,2021.2.3,MacIntel,59.99880002,120488,,,,,,,
,,,,,,6.978645833,2.9431,space,0.2095,0,38,38,22,1,23,image/23.jpg,0,0,,R_7CKHJGMjptgL6SO,2,2024-05-23_21h11.32.019,face trait task,2021.2.3,MacIntel,59.99880002,120488,,,,,,,
,,,,,,6.064739583,2.4252,space,0.3502,0,39,39,9,1,10,image/10.jpg,0,0,,R_7CKHJGMjptgL6SO,2,2024-05-23_21h11.32.019,face trait task,2021.2.3,MacIntel,59.99880002,120488,,,,,,,
,,,,,,6.951953125,2.4614,space,0.401,0,40,40,17,1,18,image/18.jpg,0,0,,R_7CKHJGMjptgL6SO,2,2024-05-23_21h11.32.019,face trait task,2021.2.3,MacIntel,59.99880002,120488,,,,,,,
,,,,,,6.478098958,8.7542,space,0.4927,0,41,41,3,1,4,image/4.jpg,0,0,,R_7CKHJGMjptgL6SO,2,2024-05-23_21h11.32.019,face trait task,2021.2.3,MacIntel,59.99880002,120488,,,,,,,
,,,,,,1.507291667,3.8297,space,0.3567,0,42,42,8,1,9,image/9.jpg,0,0,,R_7CKHJGMjptgL6SO,2,2024-05-23_21h11.32.019,face trait task,2021.2.3,MacIntel,59.99880002,120488,,,,,,,
,,,,,,6.470338542,3.8973,space,0.368,0,43,43,32,1,33,image/33.jpg,0,0,,R_7CKHJGMjptgL6SO,2,2024-05-23_21h11.32.019,face trait task,2021.2.3,MacIntel,59.99880002,120488,,,,,,,
,,,,,,1.078098958,4.3745,space,1.4175,0,44,44,34,1,35,image/35.jpg,0,0,,R_7CKHJGMjptgL6SO,2,2024-05-23_21h11.32.019,face trait task,2021.2.3,MacIntel,59.99880002,120488,,,,,,,
,,,,,,3.994401042,2.94,space,0.1061,0,45,45,44,1,45,image/45.jpg,0,0,,R_7CKHJGMjptgL6SO,2,2024-05-23_21h11.32.019,face trait task,2021.2.3,MacIntel,59.99880002,120488,,,,,,,
,,,,,,4.653828125,2.5206,space,0.3721,0,46,46,7,1,8,image/8.jpg,0,0,,R_7CKHJGMjptgL6SO,2,2024-05-23_21h11.32.019,face trait task,2021.2.3,MacIntel,59.99880002,120488,,,,,,,
,,,,,,6.767473958,4.2789,space,0.4533,0,47,47,4,1,5,image/5.jpg,0,0,,R_7CKHJGMjptgL6SO,2,2024-05-23_21h11.32.019,face trait task,2021.2.3,MacIntel,59.99880002,120488,,,,,,,
,,,,,,6.981588542,3.6705,space,0.4008,0,48,48,20,1,21,image/21.jpg,0,0,,R_7CKHJGMjptgL6SO,2,2024-05-23_21h11.32.019,face trait task,2021.2.3,MacIntel,59.99880002,120488,,,,,,,
,,,,,,4.708072917,4.1178,space,0.3053,0,49,49,16,1,17,image/17.jpg,0,0,,R_7CKHJGMjptgL6SO,2,2024-05-23_21h11.32.019,face trait task,2021.2.3,MacIntel,59.99880002,120488,,,,,,,
,,,,,,5.335911458,2.255,space,0.3679,0,50,50,31,1,32,image/32.jpg,0,0,,R_7CKHJGMjptgL6SO,2,2024-05-23_21h11.32.019,face trait task,2021.2.3,MacIntel,59.99880002,120488,,,,,,,
,,,,,,5.955078125,2.9031,space,0.222,0,51,51,26,1,27,image/27.jpg,0,0,,R_7CKHJGMjptgL6SO,2,2024-05-23_21h11.32.019,face trait task,2021.2.3,MacIntel,59.99880002,120488,,,,,,,
,,,,,,3.53296875,2.1876,space,0.3338,0,52,52,15,1,16,image/16.jpg,0,0,,R_7CKHJGMjptgL6SO,2,2024-05-23_21h11.32.019,face trait task,2021.2.3,MacIntel,59.99880002,120488,,,,,,,
,,,,,,,,,,,,,,,,,,,,R_7CKHJGMjptgL6SO,2,2024-05-23_21h11.32.019,face trait task,2021.2.3,MacIntel,59.99880002,120488,0,3,3,3,1,3,friendly.png
