choose_trial,key_resp.keys,key_resp.rt,key_resp_4.keys,key_resp_4.rt,session_trait,slider_face_judge.response,slider_face_judge.rt,key_resp_3.keys,key_resp_3.rt,face_loop.thisRepN,face_loop.thisTrialN,face_loop.thisN,face_loop.thisIndex,face_loop.ran,face_serial,image_name,isCheck,answer,check_question,participant,session,date,expName,psychopyVersion,OS,frameRate,SONAid,session.thisRepN,session.thisTrialN,session.thisN,session.thisIndex,session.ran,session_serial,slider_judge_img
"[0,1,2,3,4,5,6,7,8,9,10,11,12,13,14,15,16,17,18,19,20,21,22,23,24,25,26,27,28,29,30,31,32,33,34,35,36,37,38,39,40,41,42,43,44,45,46,47,48,49,55,55,53]",space,8.381,space,23.0845,critical,2.989910889,3.7818,space,1.067,0,0,0,31,1,32,image/32.jpg,0,0,,R_7CKs9SKBixkdv7M,2,2024-05-31_21h42.49.728,face trait task,2021.2.3,MacIntel,61.34969325,120813,,,,,,,
,,,,,,5.004624023,2.4582,space,0.7538,0,1,1,47,1,48,image/48.jpg,0,0,,R_7CKs9SKBixkdv7M,2,2024-05-31_21h42.49.728,face trait task,2021.2.3,MacIntel,61.34969325,120813,,,,,,,
,,,,,,3.98706014,2.9417,space,0.4718,0,2,2,26,1,27,image/27.jpg,0,0,,R_7CKs9SKBixkdv7M,2,2024-05-31_21h42.49.728,face trait task,2021.2.3,MacIntel,61.34969325,120813,,,,,,,
,,,,,,3.566202799,2.6598,space,0.4022,0,3,3,2,1,3,image/3.jpg,0,0,,R_7CKs9SKBixkdv7M,2,2024-05-31_21h42.49.728,face trait task,2021.2.3,MacIntel,61.34969325,120813,,,,,,,
,,,,,,2.509339193,1.7422,space,0.4104,0,4,4,27,1,28,image/28.jpg,0,0,,R_7CKs9SKBixkdv7M,2,2024-05-31_21h42.49.728,face trait task,2021.2.3,MacIntel,61.34969325,120813,,,,,,,
,,,,,,2.995087077,1.5264,space,0.4149,0,5,5,7,1,8,image/8.jpg,0,0,,R_7CKs9SKBixkdv7M,2,2024-05-31_21h42.49.728,face trait task,2021.2.3,MacIntel,61.34969325,120813,,,,,,,
,,,,,,5.306772868,1.7261,space,0.3061,0,6,6,16,1,17,image/17.jpg,0,0,,R_7CKs9SKBixkdv7M,2,2024-05-31_21h42.49.728,face trait task,2021.2.3,MacIntel,61.34969325,120813,,,,,,,
,,,,,,1.947190145,1.7258,space,0.2856,0,7,7,43,1,44,image/44.jpg,0,0,,R_7CKs9SKBixkdv7M,2,2024-05-31_21h42.49.728,face trait task,2021.2.3,MacIntel,61.34969325,120813,,,,,,,
,,,,,,5.637756755,3.3546,space,0.3928,0,8,8,14,1,15,image/15.jpg,0,0,,R_7CKs9SKBixkdv7M,2,2024-05-31_21h42.49.728,face trait task,2021.2.3,MacIntel,61.34969325,120813,,,,,,,
,,,,,,4.302108154,1.4756,space,0.4042,0,9,9,23,1,24,image/24.jpg,0,0,,R_7CKs9SKBixkdv7M,2,2024-05-31_21h42.49.728,face trait task,2021.2.3,MacIntel,61.34969325,120813,,,,,,,
,,,,,,5.453724365,2.3256,space,0.2934,0,10,10,28,1,29,image/29.jpg,0,0,,R_7CKs9SKBixkdv7M,2,2024-05-31_21h42.49.728,face trait task,2021.2.3,MacIntel,61.34969325,120813,,,,,,,
,,,,,,1.043526408,7.5524,space,1.2265,0,11,11,52,1,54,image/fill_img.png,1,1,Please move the slider all the way to the LEFT to show that you are paying attention.,R_7CKs9SKBixkdv7M,2,2024-05-31_21h42.49.728,face trait task,2021.2.3,MacIntel,61.34969325,120813,,,,,,,
,,,,,,6.007083333,5.2083,space,1.6035,0,12,12,8,1,9,image/9.jpg,0,0,,R_7CKs9SKBixkdv7M,2,2024-05-31_21h42.49.728,face trait task,2021.2.3,MacIntel,61.34969325,120813,,,,,,,
,,,,,,6.337648926,1.6413,space,0.2848,0,13,13,38,1,39,image/39.jpg,0,0,,R_7CKs9SKBixkdv7M,2,2024-05-31_21h42.49.728,face trait task,2021.2.3,MacIntel,61.34969325,120813,,,,,,,
,,,,,,2.985797526,1.7923,space,0.6513,0,14,14,49,1,50,image/50.jpg,0,0,,R_7CKs9SKBixkdv7M,2,2024-05-31_21h42.49.728,face trait task,2021.2.3,MacIntel,61.34969325,120813,,,,,,,
,,,,,,4.012305908,1.4085,space,0.3264,0,15,15,13,1,14,image/14.jpg,0,0,,R_7CKs9SKBixkdv7M,2,2024-05-31_21h42.49.728,face trait task,2021.2.3,MacIntel,61.34969325,120813,,,,,,,
,,,,,,3.438602702,2.3926,space,0.2852,0,16,16,5,1,6,image/6.jpg,0,0,,R_7CKs9SKBixkdv7M,2,2024-05-31_21h42.49.728,face trait task,2021.2.3,MacIntel,61.34969325,120813,,,,,,,
,,,,,,3.695452067,2.9428,space,0.4648,0,17,17,10,1,11,image/11.jpg,0,0,,R_7CKs9SKBixkdv7M,2,2024-05-31_21h42.49.728,face trait task,2021.2.3,MacIntel,61.34969325,120813,,,,,,,
,,,,,,2.507578939,2.0092,space,0.3024,0,18,18,33,1,34,image/34.jpg,0,0,,R_7CKs9SKBixkdv7M,2,2024-05-31_21h42.49.728,face trait task,2021.2.3,MacIntel,61.34969325,120813,,,,,,,
,,,,,,5.133823242,2.2099,space,0.3399,0,19,19,9,1,10,image/10.jpg,0,0,,R_7CKs9SKBixkdv7M,2,2024-05-31_21h42.49.728,face trait task,2021.2.3,MacIntel,61.34969325,120813,,,,,,,
,,,,,,5.745276693,1.792,space,0.3661,0,20,20,19,1,20,image/20.jpg,0,0,,R_7CKs9SKBixkdv7M,2,2024-05-31_21h42.49.728,face trait task,2021.2.3,MacIntel,61.34969325,120813,,,,,,,
,,,,,,4.353260091,4.5049,space,0.3353,0,21,21,3,1,4,image/4.jpg,0,0,,R_7CKs9SKBixkdv7M,2,2024-05-31_21h42.49.728,face trait task,2021.2.3,MacIntel,61.34969325,120813,,,,,,,
,,,,,,3.701662598,1.7577,space,0.3183,0,22,22,11,1,12,image/12.jpg,0,0,,R_7CKs9SKBixkdv7M,2,2024-05-31_21h42.49.728,face trait task,2021.2.3,MacIntel,61.34969325,120813,,,,,,,
,,,,,,5.362539469,1.6756,space,0.2732,0,23,23,32,1,33,image/33.jpg,0,0,,R_7CKs9SKBixkdv7M,2,2024-05-31_21h42.49.728,face trait task,2021.2.3,MacIntel,61.34969325,120813,,,,,,,
,,,,,,1.97958903,3.3429,space,0.3075,0,24,24,6,1,7,image/7.jpg,0,0,,R_7CKs9SKBixkdv7M,2,2024-05-31_21h42.49.728,face trait task,2021.2.3,MacIntel,61.34969325,120813,,,,,,,
,,,,,,1.575570679,1.7257,space,0.5075,0,25,25,41,1,42,image/42.jpg,0,0,,R_7CKs9SKBixkdv7M,2,2024-05-31_21h42.49.728,face trait task,2021.2.3,MacIntel,61.34969325,120813,,,,,,,
,,,,,,2.252422485,2.0591,space,1.0173,0,26,26,39,1,40,image/40.jpg,0,0,,R_7CKs9SKBixkdv7M,2,2024-05-31_21h42.49.728,face trait task,2021.2.3,MacIntel,61.34969325,120813,,,,,,,
,,,,,,2.98711141,2.2619,space,0.2869,0,27,27,25,1,26,image/26.jpg,0,0,,R_7CKs9SKBixkdv7M,2,2024-05-31_21h42.49.728,face trait task,2021.2.3,MacIntel,61.34969325,120813,,,,,,,
,,,,,,3.696165771,1.843,space,0.2093,0,28,28,45,1,46,image/46.jpg,0,0,,R_7CKs9SKBixkdv7M,2,2024-05-31_21h42.49.728,face trait task,2021.2.3,MacIntel,61.34969325,120813,,,,,,,
,,,,,,2.750291341,1.5765,space,0.2902,0,29,29,1,1,2,image/2.jpg,0,0,,R_7CKs9SKBixkdv7M,2,2024-05-31_21h42.49.728,face trait task,2021.2.3,MacIntel,61.34969325,120813,,,,,,,
,,,,,,2.392777303,1.475,space,0.255,0,30,30,15,1,16,image/16.jpg,0,0,,R_7CKs9SKBixkdv7M,2,2024-05-31_21h42.49.728,face trait task,2021.2.3,MacIntel,61.34969325,120813,,,,,,,
,,,,,,1.743553263,2.5758,space,0.4556,0,31,31,34,1,35,image/35.jpg,0,0,,R_7CKs9SKBixkdv7M,2,2024-05-31_21h42.49.728,face trait task,2021.2.3,MacIntel,61.34969325,120813,,,,,,,
,,,,,,3.863112793,3.2382,space,0.2219,0,32,32,21,1,22,image/22.jpg,0,0,,R_7CKs9SKBixkdv7M,2,2024-05-31_21h42.49.728,face trait task,2021.2.3,MacIntel,61.34969325,120813,,,,,,,
,,,,,,6.648310547,2.0263,space,0.2871,0,33,33,0,1,1,image/1.jpg,0,0,,R_7CKs9SKBixkdv7M,2,2024-05-31_21h42.49.728,face trait task,2021.2.3,MacIntel,61.34969325,120813,,,,,,,
,,,,,,3.043091227,3.142,space,1.6894,0,34,34,24,1,25,image/25.jpg,0,0,,R_7CKs9SKBixkdv7M,2,2024-05-31_21h42.49.728,face trait task,2021.2.3,MacIntel,61.34969325,120813,,,,,,,
,,,,,,3.043091227,3.754,space,0.2355,0,35,35,48,1,49,image/49.jpg,0,0,,R_7CKs9SKBixkdv7M,2,2024-05-31_21h42.49.728,face trait task,2021.2.3,MacIntel,61.34969325,120813,,,,,,,
,,,,,,3.78327596,1.3767,space,0.2581,0,36,36,18,1,19,image/19.jpg,0,0,,R_7CKs9SKBixkdv7M,2,2024-05-31_21h42.49.728,face trait task,2021.2.3,MacIntel,61.34969325,120813,,,,,,,
,,,,,,2.02226298,1.8926,space,0.2676,0,37,37,17,1,18,image/18.jpg,0,0,,R_7CKs9SKBixkdv7M,2,2024-05-31_21h42.49.728,face trait task,2021.2.3,MacIntel,61.34969325,120813,,,,,,,
,,,,,,1.012844442,1.8753,space,0.2672,0,38,38,40,1,41,image/41.jpg,0,0,,R_7CKs9SKBixkdv7M,2,2024-05-31_21h42.49.728,face trait task,2021.2.3,MacIntel,61.34969325,120813,,,,,,,
,,,,,,1.012844442,1.2415,space,0.2429,0,39,39,4,1,5,image/5.jpg,0,0,,R_7CKs9SKBixkdv7M,2,2024-05-31_21h42.49.728,face trait task,2021.2.3,MacIntel,61.34969325,120813,,,,,,,
,,,,,,6.988340658,3.0078,space,0.5165,0,40,40,50,1,56,image/fill_img.png,1,7,Please move the slider all the way to the RIGHT to show that you are paying attention.,R_7CKs9SKBixkdv7M,2,2024-05-31_21h42.49.728,face trait task,2021.2.3,MacIntel,61.34969325,120813,,,,,,,
,,,,,,1.166124064,2.1914,space,0.1827,0,41,41,35,1,36,image/36.jpg,0,0,,R_7CKs9SKBixkdv7M,2,2024-05-31_21h42.49.728,face trait task,2021.2.3,MacIntel,61.34969325,120813,,,,,,,
,,,,,,1.166124064,3.8081,space,0.2392,0,42,42,46,1,47,image/47.jpg,0,0,,R_7CKs9SKBixkdv7M,2,2024-05-31_21h42.49.728,face trait task,2021.2.3,MacIntel,61.34969325,120813,,,,,,,
,,,,,,1.655976359,1.3262,space,0.304,0,43,43,12,1,13,image/13.jpg,0,0,,R_7CKs9SKBixkdv7M,2,2024-05-31_21h42.49.728,face trait task,2021.2.3,MacIntel,61.34969325,120813,,,,,,,
,,,,,,1.43487264,1.7257,space,1.1062,0,44,44,37,1,38,image/38.jpg,0,0,,R_7CKs9SKBixkdv7M,2,2024-05-31_21h42.49.728,face trait task,2021.2.3,MacIntel,61.34969325,120813,,,,,,,
,,,,,,2.688850098,1.4587,space,0.3377,0,45,45,44,1,45,image/45.jpg,0,0,,R_7CKs9SKBixkdv7M,2,2024-05-31_21h42.49.728,face trait task,2021.2.3,MacIntel,61.34969325,120813,,,,,,,
,,,,,,2.590176392,4.6205,space,0.663,0,46,46,36,1,37,image/37.jpg,0,0,,R_7CKs9SKBixkdv7M,2,2024-05-31_21h42.49.728,face trait task,2021.2.3,MacIntel,61.34969325,120813,,,,,,,
,,,,,,2.968450521,2.1425,space,0.4054,0,47,47,30,1,31,image/31.jpg,0,0,,R_7CKs9SKBixkdv7M,2,2024-05-31_21h42.49.728,face trait task,2021.2.3,MacIntel,61.34969325,120813,,,,,,,
,,,,,,3.468481038,3.1228,space,0.1849,0,48,48,29,1,30,image/30.jpg,0,0,,R_7CKs9SKBixkdv7M,2,2024-05-31_21h42.49.728,face trait task,2021.2.3,MacIntel,61.34969325,120813,,,,,,,
,,,,,,2.993324382,6.6706,space,0.3051,0,49,49,20,1,21,image/21.jpg,0,0,,R_7CKs9SKBixkdv7M,2,2024-05-31_21h42.49.728,face trait task,2021.2.3,MacIntel,61.34969325,120813,,,,,,,
,,,,,,6.996771647,3.1575,space,0.3376,0,50,50,51,1,56,image/fill_img.png,1,7,Please move the slider all the way to the RIGHT to show that you are paying attention.,R_7CKs9SKBixkdv7M,2,2024-05-31_21h42.49.728,face trait task,2021.2.3,MacIntel,61.34969325,120813,,,,,,,
,,,,,,2.99714152,3.9523,space,0.4209,0,51,51,22,1,23,image/23.jpg,0,0,,R_7CKs9SKBixkdv7M,2,2024-05-31_21h42.49.728,face trait task,2021.2.3,MacIntel,61.34969325,120813,,,,,,,
,,,,,,4.526789144,2.7929,space,0.2194,0,52,52,42,1,43,image/43.jpg,0,0,,R_7CKs9SKBixkdv7M,2,2024-05-31_21h42.49.728,face trait task,2021.2.3,MacIntel,61.34969325,120813,,,,,,,
,,,,,,,,,,,,,,,,,,,,R_7CKs9SKBixkdv7M,2,2024-05-31_21h42.49.728,face trait task,2021.2.3,MacIntel,61.34969325,120813,0,0,0,0,1,0,critical.png
,,,,,trustworthy,3.005146484,3.0498,space,0.369,0,0,0,23,1,24,image/24.jpg,0,0,,R_7CKs9SKBixkdv7M,2,2024-05-31_21h42.49.728,face trait task,2021.2.3,MacIntel,61.34969325,120813,,,,,,,
,,,,,,2.453698324,4.9184,space,0.2191,0,1,1,30,1,31,image/31.jpg,0,0,,R_7CKs9SKBixkdv7M,2,2024-05-31_21h42.49.728,face trait task,2021.2.3,MacIntel,61.34969325,120813,,,,,,,
,,,,,,2.068016154,5.4552,space,0.3194,0,2,2,1,1,2,image/2.jpg,0,0,,R_7CKs9SKBixkdv7M,2,2024-05-31_21h42.49.728,face trait task,2021.2.3,MacIntel,61.34969325,120813,,,,,,,
,,,,,,1.061790568,1.9752,space,0.2097,0,3,3,28,1,29,image/29.jpg,0,0,,R_7CKs9SKBixkdv7M,2,2024-05-31_21h42.49.728,face trait task,2021.2.3,MacIntel,61.34969325,120813,,,,,,,
,,,,,,1.926999308,2.2592,space,0.3181,0,4,4,17,1,18,image/18.jpg,0,0,,R_7CKs9SKBixkdv7M,2,2024-05-31_21h42.49.728,face trait task,2021.2.3,MacIntel,61.34969325,120813,,,,,,,
,,,,,,1.781954346,1.1759,space,0.329,0,5,5,19,1,20,image/20.jpg,0,0,,R_7CKs9SKBixkdv7M,2,2024-05-31_21h42.49.728,face trait task,2021.2.3,MacIntel,61.34969325,120813,,,,,,,
,,,,,,2.711853434,2.4595,space,0.2874,0,6,6,47,1,48,image/48.jpg,0,0,,R_7CKs9SKBixkdv7M,2,2024-05-31_21h42.49.728,face trait task,2021.2.3,MacIntel,61.34969325,120813,,,,,,,
,,,,,,2.167440999,1.3257,space,0.3241,0,7,7,10,1,11,image/11.jpg,0,0,,R_7CKs9SKBixkdv7M,2,2024-05-31_21h42.49.728,face trait task,2021.2.3,MacIntel,61.34969325,120813,,,,,,,
,,,,,,3.518918457,1.9922,space,0.2329,0,8,8,48,1,49,image/49.jpg,0,0,,R_7CKs9SKBixkdv7M,2,2024-05-31_21h42.49.728,face trait task,2021.2.3,MacIntel,61.34969325,120813,,,,,,,
,,,,,,2.565164795,1.3431,space,0.3206,0,9,9,13,1,14,image/14.jpg,0,0,,R_7CKs9SKBixkdv7M,2,2024-05-31_21h42.49.728,face trait task,2021.2.3,MacIntel,61.34969325,120813,,,,,,,
,,,,,,4.00838501,1.8094,space,0.2249,0,10,10,2,1,3,image/3.jpg,0,0,,R_7CKs9SKBixkdv7M,2,2024-05-31_21h42.49.728,face trait task,2021.2.3,MacIntel,61.34969325,120813,,,,,,,
,,,,,,4.572295736,1.4757,space,0.2587,0,11,11,35,1,36,image/36.jpg,0,0,,R_7CKs9SKBixkdv7M,2,2024-05-31_21h42.49.728,face trait task,2021.2.3,MacIntel,61.34969325,120813,,,,,,,
,,,,,,4.020861816,1.8426,space,0.4837,0,12,12,24,1,25,image/25.jpg,0,0,,R_7CKs9SKBixkdv7M,2,2024-05-31_21h42.49.728,face trait task,2021.2.3,MacIntel,61.34969325,120813,,,,,,,
,,,,,,2.005588786,1.6423,space,0.2587,0,13,13,18,1,19,image/19.jpg,0,0,,R_7CKs9SKBixkdv7M,2,2024-05-31_21h42.49.728,face trait task,2021.2.3,MacIntel,61.34969325,120813,,,,,,,
,,,,,,2.346185303,1.9932,space,0.2103,0,14,14,3,1,4,image/4.jpg,0,0,,R_7CKs9SKBixkdv7M,2,2024-05-31_21h42.49.728,face trait task,2021.2.3,MacIntel,61.34969325,120813,,,,,,,
,,,,,,3.644967448,1.8434,space,0.165,0,15,15,26,1,27,image/27.jpg,0,0,,R_7CKs9SKBixkdv7M,2,2024-05-31_21h42.49.728,face trait task,2021.2.3,MacIntel,61.34969325,120813,,,,,,,
,,,,,,4.482909342,1.5276,space,0.3939,0,16,16,4,1,5,image/5.jpg,0,0,,R_7CKs9SKBixkdv7M,2,2024-05-31_21h42.49.728,face trait task,2021.2.3,MacIntel,61.34969325,120813,,,,,,,
,,,,,,4.987299398,1.527,space,0.3549,0,17,17,20,1,21,image/21.jpg,0,0,,R_7CKs9SKBixkdv7M,2,2024-05-31_21h42.49.728,face trait task,2021.2.3,MacIntel,61.34969325,120813,,,,,,,
,,,,,,2.994198405,1.926,space,0.2825,0,18,18,38,1,39,image/39.jpg,0,0,,R_7CKs9SKBixkdv7M,2,2024-05-31_21h42.49.728,face trait task,2021.2.3,MacIntel,61.34969325,120813,,,,,,,
,,,,,,2.632266032,2.2256,space,0.2313,0,19,19,5,1,6,image/6.jpg,0,0,,R_7CKs9SKBixkdv7M,2,2024-05-31_21h42.49.728,face trait task,2021.2.3,MacIntel,61.34969325,120813,,,,,,,
,,,,,,2.364255981,1.3432,space,0.3083,0,20,20,39,1,40,image/40.jpg,0,0,,R_7CKs9SKBixkdv7M,2,2024-05-31_21h42.49.728,face trait task,2021.2.3,MacIntel,61.34969325,120813,,,,,,,
,,,,,,2.00090922,1.9256,space,0.4514,0,21,21,44,1,45,image/45.jpg,0,0,,R_7CKs9SKBixkdv7M,2,2024-05-31_21h42.49.728,face trait task,2021.2.3,MacIntel,61.34969325,120813,,,,,,,
,,,,,,1.779692179,1.4917,space,0.3511,0,22,22,29,1,30,image/30.jpg,0,0,,R_7CKs9SKBixkdv7M,2,2024-05-31_21h42.49.728,face trait task,2021.2.3,MacIntel,61.34969325,120813,,,,,,,
,,,,,,4.307082926,3.5427,space,1.3898,0,23,23,49,1,50,image/50.jpg,0,0,,R_7CKs9SKBixkdv7M,2,2024-05-31_21h42.49.728,face trait task,2021.2.3,MacIntel,61.34969325,120813,,,,,,,
,,,,,,4.940360107,1.6764,space,0.7233,0,24,24,40,1,41,image/41.jpg,0,0,,R_7CKs9SKBixkdv7M,2,2024-05-31_21h42.49.728,face trait task,2021.2.3,MacIntel,61.34969325,120813,,,,,,,
,,,,,,2.935910645,2.959,space,0.2728,0,25,25,46,1,47,image/47.jpg,0,0,,R_7CKs9SKBixkdv7M,2,2024-05-31_21h42.49.728,face trait task,2021.2.3,MacIntel,61.34969325,120813,,,,,,,
,,,,,,5.230197347,1.5418,space,0.2411,0,26,26,33,1,34,image/34.jpg,0,0,,R_7CKs9SKBixkdv7M,2,2024-05-31_21h42.49.728,face trait task,2021.2.3,MacIntel,61.34969325,120813,,,,,,,
,,,,,,5.537458089,1.4432,space,0.7478,0,27,27,31,1,32,image/32.jpg,0,0,,R_7CKs9SKBixkdv7M,2,2024-05-31_21h42.49.728,face trait task,2021.2.3,MacIntel,61.34969325,120813,,,,,,,
,,,,,,2.976072998,1.6095,space,0.227,0,28,28,6,1,7,image/7.jpg,0,0,,R_7CKs9SKBixkdv7M,2,2024-05-31_21h42.49.728,face trait task,2021.2.3,MacIntel,61.34969325,120813,,,,,,,
,,,,,,2.091446533,2.2594,space,0.2874,0,29,29,42,1,43,image/43.jpg,0,0,,R_7CKs9SKBixkdv7M,2,2024-05-31_21h42.49.728,face trait task,2021.2.3,MacIntel,61.34969325,120813,,,,,,,
,,,,,,4.027834066,2.5093,space,0.2571,0,30,30,27,1,28,image/28.jpg,0,0,,R_7CKs9SKBixkdv7M,2,2024-05-31_21h42.49.728,face trait task,2021.2.3,MacIntel,61.34969325,120813,,,,,,,
,,,,,,6.000078939,2.459,space,0.224,0,31,31,11,1,12,image/12.jpg,0,0,,R_7CKs9SKBixkdv7M,2,2024-05-31_21h42.49.728,face trait task,2021.2.3,MacIntel,61.34969325,120813,,,,,,,
,,,,,,2.733076172,2.5752,space,0.2619,0,32,32,45,1,46,image/46.jpg,0,0,,R_7CKs9SKBixkdv7M,2,2024-05-31_21h42.49.728,face trait task,2021.2.3,MacIntel,61.34969325,120813,,,,,,,
,,,,,,2.069002889,1.9592,space,0.4209,0,33,33,14,1,15,image/15.jpg,0,0,,R_7CKs9SKBixkdv7M,2,2024-05-31_21h42.49.728,face trait task,2021.2.3,MacIntel,61.34969325,120813,,,,,,,
,,,,,,1.536946615,1.4261,space,0.3493,0,34,34,0,1,1,image/1.jpg,0,0,,R_7CKs9SKBixkdv7M,2,2024-05-31_21h42.49.728,face trait task,2021.2.3,MacIntel,61.34969325,120813,,,,,,,
,,,,,,1.000010579,3.4405,space,0.4902,0,35,35,52,1,54,image/fill_img.png,1,1,Please move the slider all the way to the LEFT to show that you are paying attention.,R_7CKs9SKBixkdv7M,2,2024-05-31_21h42.49.728,face trait task,2021.2.3,MacIntel,61.34969325,120813,,,,,,,
,,,,,,1.300049032,1.5247,space,0.5079,0,36,36,8,1,9,image/9.jpg,0,0,,R_7CKs9SKBixkdv7M,2,2024-05-31_21h42.49.728,face trait task,2021.2.3,MacIntel,61.34969325,120813,,,,,,,
,,,,,,4.038415934,1.8747,space,0.3342,0,37,37,41,1,42,image/42.jpg,0,0,,R_7CKs9SKBixkdv7M,2,2024-05-31_21h42.49.728,face trait task,2021.2.3,MacIntel,61.34969325,120813,,,,,,,
,,,,,,6.996315104,2.4085,space,0.3065,0,38,38,50,1,56,image/fill_img.png,1,7,Please move the slider all the way to the RIGHT to show that you are paying attention.,R_7CKs9SKBixkdv7M,2,2024-05-31_21h42.49.728,face trait task,2021.2.3,MacIntel,61.34969325,120813,,,,,,,
,,,,,,1.852277629,5.7336,space,0.3084,0,39,39,9,1,10,image/10.jpg,0,0,,R_7CKs9SKBixkdv7M,2,2024-05-31_21h42.49.728,face trait task,2021.2.3,MacIntel,61.34969325,120813,,,,,,,
,,,,,,1.475513509,1.5091,space,0.6371,0,40,40,25,1,26,image/26.jpg,0,0,,R_7CKs9SKBixkdv7M,2,2024-05-31_21h42.49.728,face trait task,2021.2.3,MacIntel,61.34969325,120813,,,,,,,
,,,,,,2.300976969,1.7754,space,0.3105,0,41,41,34,1,35,image/35.jpg,0,0,,R_7CKs9SKBixkdv7M,2,2024-05-31_21h42.49.728,face trait task,2021.2.3,MacIntel,61.34969325,120813,,,,,,,
,,,,,,3.585498454,1.7926,space,0.4909,0,42,42,36,1,37,image/37.jpg,0,0,,R_7CKs9SKBixkdv7M,2,2024-05-31_21h42.49.728,face trait task,2021.2.3,MacIntel,61.34969325,120813,,,,,,,
,,,,,,6.979033203,2.3922,space,0.2903,0,43,43,51,1,56,image/fill_img.png,1,7,Please move the slider all the way to the RIGHT to show that you are paying attention.,R_7CKs9SKBixkdv7M,2,2024-05-31_21h42.49.728,face trait task,2021.2.3,MacIntel,61.34969325,120813,,,,,,,
,,,,,,2.004058431,2.4405,space,0.2036,0,44,44,21,1,22,image/22.jpg,0,0,,R_7CKs9SKBixkdv7M,2,2024-05-31_21h42.49.728,face trait task,2021.2.3,MacIntel,61.34969325,120813,,,,,,,
,,,,,,4.806347249,1.9082,space,0.2161,0,45,45,43,1,44,image/44.jpg,0,0,,R_7CKs9SKBixkdv7M,2,2024-05-31_21h42.49.728,face trait task,2021.2.3,MacIntel,61.34969325,120813,,,,,,,
,,,,,,2.362470296,2.1917,space,0.2323,0,46,46,15,1,16,image/16.jpg,0,0,,R_7CKs9SKBixkdv7M,2,2024-05-31_21h42.49.728,face trait task,2021.2.3,MacIntel,61.34969325,120813,,,,,,,
,,,,,,1.009238688,4.0735,space,0.2863,0,47,47,32,1,33,image/33.jpg,0,0,,R_7CKs9SKBixkdv7M,2,2024-05-31_21h42.49.728,face trait task,2021.2.3,MacIntel,61.34969325,120813,,,,,,,
,,,,,,4.385753174,2.225,space,0.2412,0,48,48,22,1,23,image/23.jpg,0,0,,R_7CKs9SKBixkdv7M,2,2024-05-31_21h42.49.728,face trait task,2021.2.3,MacIntel,61.34969325,120813,,,,,,,
,,,,,,1.008059489,3.9695,space,0.4877,0,49,49,16,1,17,image/17.jpg,0,0,,R_7CKs9SKBixkdv7M,2,2024-05-31_21h42.49.728,face trait task,2021.2.3,MacIntel,61.34969325,120813,,,,,,,
,,,,,,4.705830078,2.9748,space,0.2064,0,50,50,7,1,8,image/8.jpg,0,0,,R_7CKs9SKBixkdv7M,2,2024-05-31_21h42.49.728,face trait task,2021.2.3,MacIntel,61.34969325,120813,,,,,,,
,,,,,,2.313907674,1.8586,space,0.2171,0,51,51,37,1,38,image/38.jpg,0,0,,R_7CKs9SKBixkdv7M,2,2024-05-31_21h42.49.728,face trait task,2021.2.3,MacIntel,61.34969325,120813,,,,,,,
,,,,,,3.324015299,1.7088,space,0.2282,0,52,52,12,1,13,image/13.jpg,0,0,,R_7CKs9SKBixkdv7M,2,2024-05-31_21h42.49.728,face trait task,2021.2.3,MacIntel,61.34969325,120813,,,,,,,
,,,,,,,,,,,,,,,,,,,,R_7CKs9SKBixkdv7M,2,2024-05-31_21h42.49.728,face trait task,2021.2.3,MacIntel,61.34969325,120813,0,1,1,2,1,2,trustworthy.png
,,,,,friendly,6.994243978,3.3355,space,0.362,0,0,0,51,1,56,image/fill_img.png,1,7,Please move the slider all the way to the RIGHT to show that you are paying attention.,R_7CKs9SKBixkdv7M,2,2024-05-31_21h42.49.728,face trait task,2021.2.3,MacIntel,61.34969325,120813,,,,,,,
,,,,,,4.406687419,2.6743,space,0.417,0,1,1,41,1,42,image/42.jpg,0,0,,R_7CKs9SKBixkdv7M,2,2024-05-31_21h42.49.728,face trait task,2021.2.3,MacIntel,61.34969325,120813,,,,,,,
,,,,,,4.920946452,2.7751,space,0.5984,0,2,2,2,1,3,image/3.jpg,0,0,,R_7CKs9SKBixkdv7M,2,2024-05-31_21h42.49.728,face trait task,2021.2.3,MacIntel,61.34969325,120813,,,,,,,
,,,,,,3.996622721,1.7764,space,0.4544,0,3,3,10,1,11,image/11.jpg,0,0,,R_7CKs9SKBixkdv7M,2,2024-05-31_21h42.49.728,face trait task,2021.2.3,MacIntel,61.34969325,120813,,,,,,,
,,,,,,4.317068685,2.3088,space,0.4422,0,4,4,36,1,37,image/37.jpg,0,0,,R_7CKs9SKBixkdv7M,2,2024-05-31_21h42.49.728,face trait task,2021.2.3,MacIntel,61.34969325,120813,,,,,,,
,,,,,,3.891684163,1.8755,space,0.5874,0,5,5,6,1,7,image/7.jpg,0,0,,R_7CKs9SKBixkdv7M,2,2024-05-31_21h42.49.728,face trait task,2021.2.3,MacIntel,61.34969325,120813,,,,,,,
,,,,,,2.965644531,1.8426,space,0.4276,0,6,6,0,1,1,image/1.jpg,0,0,,R_7CKs9SKBixkdv7M,2,2024-05-31_21h42.49.728,face trait task,2021.2.3,MacIntel,61.34969325,120813,,,,,,,
,,,,,,2.534967651,2.2603,space,0.2229,0,7,7,18,1,19,image/19.jpg,0,0,,R_7CKs9SKBixkdv7M,2,2024-05-31_21h42.49.728,face trait task,2021.2.3,MacIntel,61.34969325,120813,,,,,,,
,,,,,,5.151885986,4.254,space,0.1753,0,8,8,35,1,36,image/36.jpg,0,0,,R_7CKs9SKBixkdv7M,2,2024-05-31_21h42.49.728,face trait task,2021.2.3,MacIntel,61.34969325,120813,,,,,,,
,,,,,,3.507015788,1.9252,space,0.2904,0,9,9,34,1,35,image/35.jpg,0,0,,R_7CKs9SKBixkdv7M,2,2024-05-31_21h42.49.728,face trait task,2021.2.3,MacIntel,61.34969325,120813,,,,,,,
,,,,,,3.008085124,3.2255,space,0.192,0,10,10,14,1,15,image/15.jpg,0,0,,R_7CKs9SKBixkdv7M,2,2024-05-31_21h42.49.728,face trait task,2021.2.3,MacIntel,61.34969325,120813,,,,,,,
,,,,,,4.515564779,2.3125,space,0.2414,0,11,11,27,1,28,image/28.jpg,0,0,,R_7CKs9SKBixkdv7M,2,2024-05-31_21h42.49.728,face trait task,2021.2.3,MacIntel,61.34969325,120813,,,,,,,
,,,,,,4.918399658,1.9592,space,0.2378,0,12,12,48,1,49,image/49.jpg,0,0,,R_7CKs9SKBixkdv7M,2,2024-05-31_21h42.49.728,face trait task,2021.2.3,MacIntel,61.34969325,120813,,,,,,,
,,,,,,1.87365804,1.8931,space,0.4555,0,13,13,28,1,29,image/29.jpg,0,0,,R_7CKs9SKBixkdv7M,2,2024-05-31_21h42.49.728,face trait task,2021.2.3,MacIntel,61.34969325,120813,,,,,,,
,,,,,,2.823156331,1.9938,space,0.583,0,14,14,17,1,18,image/18.jpg,0,0,,R_7CKs9SKBixkdv7M,2,2024-05-31_21h42.49.728,face trait task,2021.2.3,MacIntel,61.34969325,120813,,,,,,,
,,,,,,5.717829997,1.8767,space,0.2478,0,15,15,40,1,41,image/41.jpg,0,0,,R_7CKs9SKBixkdv7M,2,2024-05-31_21h42.49.728,face trait task,2021.2.3,MacIntel,61.34969325,120813,,,,,,,
,,,,,,2.405595296,2.5763,space,0.2495,0,16,16,29,1,30,image/30.jpg,0,0,,R_7CKs9SKBixkdv7M,2,2024-05-31_21h42.49.728,face trait task,2021.2.3,MacIntel,61.34969325,120813,,,,,,,
,,,,,,1.806514486,1.7085,space,0.2663,0,17,17,45,1,46,image/46.jpg,0,0,,R_7CKs9SKBixkdv7M,2,2024-05-31_21h42.49.728,face trait task,2021.2.3,MacIntel,61.34969325,120813,,,,,,,
,,,,,,3.471747233,1.7424,space,0.333,0,18,18,25,1,26,image/26.jpg,0,0,,R_7CKs9SKBixkdv7M,2,2024-05-31_21h42.49.728,face trait task,2021.2.3,MacIntel,61.34969325,120813,,,,,,,
,,,,,,5.428411051,1.5104,space,0.2925,0,19,19,11,1,12,image/12.jpg,0,0,,R_7CKs9SKBixkdv7M,2,2024-05-31_21h42.49.728,face trait task,2021.2.3,MacIntel,61.34969325,120813,,,,,,,
,,,,,,3.3377771,2.0761,space,0.2718,0,20,20,15,1,16,image/16.jpg,0,0,,R_7CKs9SKBixkdv7M,2,2024-05-31_21h42.49.728,face trait task,2021.2.3,MacIntel,61.34969325,120813,,,,,,,
,,,,,,4.404919027,1.5263,space,0.2096,0,21,21,49,1,50,image/50.jpg,0,0,,R_7CKs9SKBixkdv7M,2,2024-05-31_21h42.49.728,face trait task,2021.2.3,MacIntel,61.34969325,120813,,,,,,,
,,,,,,6.971538086,3.2907,space,0.4432,0,22,22,50,1,56,image/fill_img.png,1,7,Please move the slider all the way to the RIGHT to show that you are paying attention.,R_7CKs9SKBixkdv7M,2,2024-05-31_21h42.49.728,face trait task,2021.2.3,MacIntel,61.34969325,120813,,,,,,,
,,,,,,3.817381185,1.9569,space,0.2344,0,23,23,12,1,13,image/13.jpg,0,0,,R_7CKs9SKBixkdv7M,2,2024-05-31_21h42.49.728,face trait task,2021.2.3,MacIntel,61.34969325,120813,,,,,,,
,,,,,,3.331744792,1.8423,space,0.3416,0,24,24,24,1,25,image/25.jpg,0,0,,R_7CKs9SKBixkdv7M,2,2024-05-31_21h42.49.728,face trait task,2021.2.3,MacIntel,61.34969325,120813,,,,,,,
,,,,,,2.695498454,2.0594,space,0.3087,0,25,25,32,1,33,image/33.jpg,0,0,,R_7CKs9SKBixkdv7M,2,2024-05-31_21h42.49.728,face trait task,2021.2.3,MacIntel,61.34969325,120813,,,,,,,
,,,,,,3.081953939,2.2581,space,0.1895,0,26,26,37,1,38,image/38.jpg,0,0,,R_7CKs9SKBixkdv7M,2,2024-05-31_21h42.49.728,face trait task,2021.2.3,MacIntel,61.34969325,120813,,,,,,,
,,,,,,2.536919352,1.6953,space,0.3168,0,27,27,47,1,48,image/48.jpg,0,0,,R_7CKs9SKBixkdv7M,2,2024-05-31_21h42.49.728,face trait task,2021.2.3,MacIntel,61.34969325,120813,,,,,,,
,,,,,,3.154985758,1.5266,space,0.2557,0,28,28,22,1,23,image/23.jpg,0,0,,R_7CKs9SKBixkdv7M,2,2024-05-31_21h42.49.728,face trait task,2021.2.3,MacIntel,61.34969325,120813,,,,,,,
,,,,,,4.752409261,5.6904,space,0.2027,0,29,29,26,1,27,image/27.jpg,0,0,,R_7CKs9SKBixkdv7M,2,2024-05-31_21h42.49.728,face trait task,2021.2.3,MacIntel,61.34969325,120813,,,,,,,
,,,,,,5.291393636,1.5599,space,0.2577,0,30,30,20,1,21,image/21.jpg,0,0,,R_7CKs9SKBixkdv7M,2,2024-05-31_21h42.49.728,face trait task,2021.2.3,MacIntel,61.34969325,120813,,,,,,,
,,,,,,2.533260905,1.6097,space,0.2148,0,31,31,30,1,31,image/31.jpg,0,0,,R_7CKs9SKBixkdv7M,2,2024-05-31_21h42.49.728,face trait task,2021.2.3,MacIntel,61.34969325,120813,,,,,,,
,,,,,,2.000127767,1.6758,space,0.201,0,32,32,46,1,47,image/47.jpg,0,0,,R_7CKs9SKBixkdv7M,2,2024-05-31_21h42.49.728,face trait task,2021.2.3,MacIntel,61.34969325,120813,,,,,,,
,,,,,,2.969477946,1.8592,space,0.2898,0,33,33,44,1,45,image/45.jpg,0,0,,R_7CKs9SKBixkdv7M,2,2024-05-31_21h42.49.728,face trait task,2021.2.3,MacIntel,61.34969325,120813,,,,,,,
,,,,,,1.017999674,2.877,space,0.3068,0,34,34,16,1,17,image/17.jpg,0,0,,R_7CKs9SKBixkdv7M,2,2024-05-31_21h42.49.728,face trait task,2021.2.3,MacIntel,61.34969325,120813,,,,,,,
,,,,,,4.267200521,2.5591,space,0.2428,0,35,35,23,1,24,image/24.jpg,0,0,,R_7CKs9SKBixkdv7M,2,2024-05-31_21h42.49.728,face trait task,2021.2.3,MacIntel,61.34969325,120813,,,,,,,
,,,,,,3.826578776,2.6919,space,0.2582,0,36,36,8,1,9,image/9.jpg,0,0,,R_7CKs9SKBixkdv7M,2,2024-05-31_21h42.49.728,face trait task,2021.2.3,MacIntel,61.34969325,120813,,,,,,,
,,,,,,1.007716471,2.3759,space,0.4224,0,37,37,52,1,54,image/fill_img.png,1,1,Please move the slider all the way to the LEFT to show that you are paying attention.,R_7CKs9SKBixkdv7M,2,2024-05-31_21h42.49.728,face trait task,2021.2.3,MacIntel,61.34969325,120813,,,,,,,
,,,,,,5.081086426,2.3098,space,0.2231,0,38,38,33,1,34,image/34.jpg,0,0,,R_7CKs9SKBixkdv7M,2,2024-05-31_21h42.49.728,face trait task,2021.2.3,MacIntel,61.34969325,120813,,,,,,,
,,,,,,2.665480957,1.8933,space,0.4352,0,39,39,9,1,10,image/10.jpg,0,0,,R_7CKs9SKBixkdv7M,2,2024-05-31_21h42.49.728,face trait task,2021.2.3,MacIntel,61.34969325,120813,,,,,,,
,,,,,,2.294120483,1.3426,space,0.7713,0,40,40,21,1,22,image/22.jpg,0,0,,R_7CKs9SKBixkdv7M,2,2024-05-31_21h42.49.728,face trait task,2021.2.3,MacIntel,61.34969325,120813,,,,,,,
,,,,,,1.99196167,2.31,space,0.2282,0,41,41,38,1,39,image/39.jpg,0,0,,R_7CKs9SKBixkdv7M,2,2024-05-31_21h42.49.728,face trait task,2021.2.3,MacIntel,61.34969325,120813,,,,,,,
,,,,,,5.91436849,2.2597,space,0.2569,0,42,42,43,1,44,image/44.jpg,0,0,,R_7CKs9SKBixkdv7M,2,2024-05-31_21h42.49.728,face trait task,2021.2.3,MacIntel,61.34969325,120813,,,,,,,
,,,,,,4.053369141,1.4423,space,0.6585,0,43,43,5,1,6,image/6.jpg,0,0,,R_7CKs9SKBixkdv7M,2,2024-05-31_21h42.49.728,face trait task,2021.2.3,MacIntel,61.34969325,120813,,,,,,,
,,,,,,2.972210286,1.8595,space,0.2722,0,44,44,19,1,20,image/20.jpg,0,0,,R_7CKs9SKBixkdv7M,2,2024-05-31_21h42.49.728,face trait task,2021.2.3,MacIntel,61.34969325,120813,,,,,,,
,,,,,,3.354986572,1.7599,space,0.3164,0,45,45,1,1,2,image/2.jpg,0,0,,R_7CKs9SKBixkdv7M,2,2024-05-31_21h42.49.728,face trait task,2021.2.3,MacIntel,61.34969325,120813,,,,,,,
,,,,,,2.360024618,1.2932,space,0.2671,0,46,46,13,1,14,image/14.jpg,0,0,,R_7CKs9SKBixkdv7M,2,2024-05-31_21h42.49.728,face trait task,2021.2.3,MacIntel,61.34969325,120813,,,,,,,
,,,,,,6.177984212,2.9097,space,0.3109,0,47,47,4,1,5,image/5.jpg,0,0,,R_7CKs9SKBixkdv7M,2,2024-05-31_21h42.49.728,face trait task,2021.2.3,MacIntel,61.34969325,120813,,,,,,,
,,,,,,5.933662109,1.7091,space,0.3869,0,48,48,31,1,32,image/32.jpg,0,0,,R_7CKs9SKBixkdv7M,2,2024-05-31_21h42.49.728,face trait task,2021.2.3,MacIntel,61.34969325,120813,,,,,,,
,,,,,,2.894396973,1.8086,space,0.2715,0,49,49,42,1,43,image/43.jpg,0,0,,R_7CKs9SKBixkdv7M,2,2024-05-31_21h42.49.728,face trait task,2021.2.3,MacIntel,61.34969325,120813,,,,,,,
,,,,,,2.245480347,1.9754,space,0.2733,0,50,50,39,1,40,image/40.jpg,0,0,,R_7CKs9SKBixkdv7M,2,2024-05-31_21h42.49.728,face trait task,2021.2.3,MacIntel,61.34969325,120813,,,,,,,
,,,,,,1.740125936,3.2878,space,0.2673,0,51,51,7,1,8,image/8.jpg,0,0,,R_7CKs9SKBixkdv7M,2,2024-05-31_21h42.49.728,face trait task,2021.2.3,MacIntel,61.34969325,120813,,,,,,,
,,,,,,3.819051514,1.2098,space,0.2755,0,52,52,3,1,4,image/4.jpg,0,0,,R_7CKs9SKBixkdv7M,2,2024-05-31_21h42.49.728,face trait task,2021.2.3,MacIntel,61.34969325,120813,,,,,,,
,,,,,,,,,,,,,,,,,,,,R_7CKs9SKBixkdv7M,2,2024-05-31_21h42.49.728,face trait task,2021.2.3,MacIntel,61.34969325,120813,0,2,2,3,1,3,friendly.png
,,,,,competent,5.775851644,1.7222,space,0.5044,0,0,0,11,1,12,image/12.jpg,0,0,,R_7CKs9SKBixkdv7M,2,2024-05-31_21h42.49.728,face trait task,2021.2.3,MacIntel,61.34969325,120813,,,,,,,
,,,,,,6.420483398,1.7421,space,0.6005,0,1,1,1,1,2,image/2.jpg,0,0,,R_7CKs9SKBixkdv7M,2,2024-05-31_21h42.49.728,face trait task,2021.2.3,MacIntel,61.34969325,120813,,,,,,,
,,,,,,6.717469889,1.625,space,0.2372,0,2,2,18,1,19,image/19.jpg,0,0,,R_7CKs9SKBixkdv7M,2,2024-05-31_21h42.49.728,face trait task,2021.2.3,MacIntel,61.34969325,120813,,,,,,,
,,,,,,5.987025146,1.2754,space,0.3515,0,3,3,8,1,9,image/9.jpg,0,0,,R_7CKs9SKBixkdv7M,2,2024-05-31_21h42.49.728,face trait task,2021.2.3,MacIntel,61.34969325,120813,,,,,,,
,,,,,,4.988140462,1.4094,space,0.2074,0,4,4,31,1,32,image/32.jpg,0,0,,R_7CKs9SKBixkdv7M,2,2024-05-31_21h42.49.728,face trait task,2021.2.3,MacIntel,61.34969325,120813,,,,,,,
,,,,,,5.40369222,1.7921,space,0.2425,0,5,5,23,1,24,image/24.jpg,0,0,,R_7CKs9SKBixkdv7M,2,2024-05-31_21h42.49.728,face trait task,2021.2.3,MacIntel,61.34969325,120813,,,,,,,
,,,,,,5.621970622,1.2093,space,0.325,0,6,6,21,1,22,image/22.jpg,0,0,,R_7CKs9SKBixkdv7M,2,2024-05-31_21h42.49.728,face trait task,2021.2.3,MacIntel,61.34969325,120813,,,,,,,
,,,,,,4.609727783,1.4588,space,0.2095,0,7,7,3,1,4,image/4.jpg,0,0,,R_7CKs9SKBixkdv7M,2,2024-05-31_21h42.49.728,face trait task,2021.2.3,MacIntel,61.34969325,120813,,,,,,,
,,,,,,4.006971842,1.4752,space,0.1895,0,8,8,29,1,30,image/30.jpg,0,0,,R_7CKs9SKBixkdv7M,2,2024-05-31_21h42.49.728,face trait task,2021.2.3,MacIntel,61.34969325,120813,,,,,,,
,,,,,,4.416312663,2.2926,space,0.3547,0,9,9,27,1,28,image/28.jpg,0,0,,R_7CKs9SKBixkdv7M,2,2024-05-31_21h42.49.728,face trait task,2021.2.3,MacIntel,61.34969325,120813,,,,,,,
,,,,,,3.539760335,2.026,space,0.3061,0,10,10,38,1,39,image/39.jpg,0,0,,R_7CKs9SKBixkdv7M,2,2024-05-31_21h42.49.728,face trait task,2021.2.3,MacIntel,61.34969325,120813,,,,,,,
,,,,,,3.0309375,1.527,space,0.3005,0,11,11,44,1,45,image/45.jpg,0,0,,R_7CKs9SKBixkdv7M,2,2024-05-31_21h42.49.728,face trait task,2021.2.3,MacIntel,61.34969325,120813,,,,,,,
,,,,,,2.305675252,1.8763,space,0.2898,0,12,12,34,1,35,image/35.jpg,0,0,,R_7CKs9SKBixkdv7M,2,2024-05-31_21h42.49.728,face trait task,2021.2.3,MacIntel,61.34969325,120813,,,,,,,
,,,,,,3.363306071,2.227,space,0.55,0,13,13,30,1,31,image/31.jpg,0,0,,R_7CKs9SKBixkdv7M,2,2024-05-31_21h42.49.728,face trait task,2021.2.3,MacIntel,61.34969325,120813,,,,,,,
,,,,,,4.651770833,1.4433,space,0.2919,0,14,14,26,1,27,image/27.jpg,0,0,,R_7CKs9SKBixkdv7M,2,2024-05-31_21h42.49.728,face trait task,2021.2.3,MacIntel,61.34969325,120813,,,,,,,
,,,,,,2.174194539,4.1598,space,1.3396,0,15,15,0,1,1,image/1.jpg,0,0,,R_7CKs9SKBixkdv7M,2,2024-05-31_21h42.49.728,face trait task,2021.2.3,MacIntel,61.34969325,120813,,,,,,,
,,,,,,1.998172201,1.8434,space,0.2872,0,16,16,37,1,38,image/38.jpg,0,0,,R_7CKs9SKBixkdv7M,2,2024-05-31_21h42.49.728,face trait task,2021.2.3,MacIntel,61.34969325,120813,,,,,,,
,,,,,,3.647462972,1.6929,space,0.8398,0,17,17,15,1,16,image/16.jpg,0,0,,R_7CKs9SKBixkdv7M,2,2024-05-31_21h42.49.728,face trait task,2021.2.3,MacIntel,61.34969325,120813,,,,,,,
,,,,,,6.150957031,3.243,space,0.5212,0,18,18,2,1,3,image/3.jpg,0,0,,R_7CKs9SKBixkdv7M,2,2024-05-31_21h42.49.728,face trait task,2021.2.3,MacIntel,61.34969325,120813,,,,,,,
,,,,,,6.582436523,1.9588,space,0.3402,0,19,19,40,1,41,image/41.jpg,0,0,,R_7CKs9SKBixkdv7M,2,2024-05-31_21h42.49.728,face trait task,2021.2.3,MacIntel,61.34969325,120813,,,,,,,
,,,,,,2.956306152,2.9597,space,0.2606,0,20,20,32,1,33,image/33.jpg,0,0,,R_7CKs9SKBixkdv7M,2,2024-05-31_21h42.49.728,face trait task,2021.2.3,MacIntel,61.34969325,120813,,,,,,,
,,,,,,4.003712565,2.2257,space,0.4503,0,21,21,36,1,37,image/37.jpg,0,0,,R_7CKs9SKBixkdv7M,2,2024-05-31_21h42.49.728,face trait task,2021.2.3,MacIntel,61.34969325,120813,,,,,,,
,,,,,,3.443517253,1.3087,space,0.3171,0,22,22,10,1,11,image/11.jpg,0,0,,R_7CKs9SKBixkdv7M,2,2024-05-31_21h42.49.728,face trait task,2021.2.3,MacIntel,61.34969325,120813,,,,,,,
,,,,,,4.511175944,1.4918,space,0.4417,0,23,23,19,1,20,image/20.jpg,0,0,,R_7CKs9SKBixkdv7M,2,2024-05-31_21h42.49.728,face trait task,2021.2.3,MacIntel,61.34969325,120813,,,,,,,
,,,,,,6.988275553,2.4248,space,0.3534,0,24,24,50,1,56,image/fill_img.png,1,7,Please move the slider all the way to the RIGHT to show that you are paying attention.,R_7CKs9SKBixkdv7M,2,2024-05-31_21h42.49.728,face trait task,2021.2.3,MacIntel,61.34969325,120813,,,,,,,
,,,,,,5.733485107,2.2409,space,0.2376,0,25,25,5,1,6,image/6.jpg,0,0,,R_7CKs9SKBixkdv7M,2,2024-05-31_21h42.49.728,face trait task,2021.2.3,MacIntel,61.34969325,120813,,,,,,,
,,,,,,2.921495768,1.8762,space,0.3327,0,26,26,13,1,14,image/14.jpg,0,0,,R_7CKs9SKBixkdv7M,2,2024-05-31_21h42.49.728,face trait task,2021.2.3,MacIntel,61.34969325,120813,,,,,,,
,,,,,,4.059730225,2.1263,space,0.3891,0,27,27,46,1,47,image/47.jpg,0,0,,R_7CKs9SKBixkdv7M,2,2024-05-31_21h42.49.728,face trait task,2021.2.3,MacIntel,61.34969325,120813,,,,,,,
,,,,,,4.771302897,1.409,space,0.2571,0,28,28,33,1,34,image/34.jpg,0,0,,R_7CKs9SKBixkdv7M,2,2024-05-31_21h42.49.728,face trait task,2021.2.3,MacIntel,61.34969325,120813,,,,,,,
,,,,,,5.868144124,2.0757,space,0.3201,0,29,29,4,1,5,image/5.jpg,0,0,,R_7CKs9SKBixkdv7M,2,2024-05-31_21h42.49.728,face trait task,2021.2.3,MacIntel,61.34969325,120813,,,,,,,
,,,,,,4.679508464,1.9923,space,0.2074,0,30,30,12,1,13,image/13.jpg,0,0,,R_7CKs9SKBixkdv7M,2,2024-05-31_21h42.49.728,face trait task,2021.2.3,MacIntel,61.34969325,120813,,,,,,,
,,,,,,3.370095622,2.259,space,0.6731,0,31,31,39,1,40,image/40.jpg,0,0,,R_7CKs9SKBixkdv7M,2,2024-05-31_21h42.49.728,face trait task,2021.2.3,MacIntel,61.34969325,120813,,,,,,,
,,,,,,4.704554443,1.7926,space,0.2614,0,32,32,6,1,7,image/7.jpg,0,0,,R_7CKs9SKBixkdv7M,2,2024-05-31_21h42.49.728,face trait task,2021.2.3,MacIntel,61.34969325,120813,,,,,,,
,,,,,,6.706984049,11.622,space,0.4862,0,33,33,48,1,49,image/49.jpg,0,0,,R_7CKs9SKBixkdv7M,2,2024-05-31_21h42.49.728,face trait task,2021.2.3,MacIntel,61.34969325,120813,,,,,,,
,,,,,,1.009156291,5.2043,space,0.4436,0,34,34,52,1,54,image/fill_img.png,1,1,Please move the slider all the way to the LEFT to show that you are paying attention.,R_7CKs9SKBixkdv7M,2,2024-05-31_21h42.49.728,face trait task,2021.2.3,MacIntel,61.34969325,120813,,,,,,,
,,,,,,6.990109049,5.1355,space,0.691,0,35,35,51,1,56,image/fill_img.png,1,7,Please move the slider all the way to the RIGHT to show that you are paying attention.,R_7CKs9SKBixkdv7M,2,2024-05-31_21h42.49.728,face trait task,2021.2.3,MacIntel,61.34969325,120813,,,,,,,
,,,,,,3.845482178,1.6739,space,0.3208,0,36,36,42,1,43,image/43.jpg,0,0,,R_7CKs9SKBixkdv7M,2,2024-05-31_21h42.49.728,face trait task,2021.2.3,MacIntel,61.34969325,120813,,,,,,,
,,,,,,4.381601563,1.8595,space,0.3085,0,37,37,24,1,25,image/25.jpg,0,0,,R_7CKs9SKBixkdv7M,2,2024-05-31_21h42.49.728,face trait task,2021.2.3,MacIntel,61.34969325,120813,,,,,,,
,,,,,,3.510219727,1.9923,space,0.2868,0,38,38,9,1,10,image/10.jpg,0,0,,R_7CKs9SKBixkdv7M,2,2024-05-31_21h42.49.728,face trait task,2021.2.3,MacIntel,61.34969325,120813,,,,,,,
,,,,,,2.632353923,1.7269,space,0.3397,0,39,39,28,1,29,image/29.jpg,0,0,,R_7CKs9SKBixkdv7M,2,2024-05-31_21h42.49.728,face trait task,2021.2.3,MacIntel,61.34969325,120813,,,,,,,
,,,,,,3.392378337,1.7268,space,0.3558,0,40,40,41,1,42,image/42.jpg,0,0,,R_7CKs9SKBixkdv7M,2,2024-05-31_21h42.49.728,face trait task,2021.2.3,MacIntel,61.34969325,120813,,,,,,,
,,,,,,3.553201497,4.1537,space,0.6361,0,41,41,43,1,44,image/44.jpg,0,0,,R_7CKs9SKBixkdv7M,2,2024-05-31_21h42.49.728,face trait task,2021.2.3,MacIntel,61.34969325,120813,,,,,,,
,,,,,,4.622855225,5.5877,space,0.2655,0,42,42,45,1,46,image/46.jpg,0,0,,R_7CKs9SKBixkdv7M,2,2024-05-31_21h42.49.728,face trait task,2021.2.3,MacIntel,61.34969325,120813,,,,,,,
,,,,,,4.974794515,2.5095,space,0.4727,0,43,43,17,1,18,image/18.jpg,0,0,,R_7CKs9SKBixkdv7M,2,2024-05-31_21h42.49.728,face trait task,2021.2.3,MacIntel,61.34969325,120813,,,,,,,
,,,,,,3.847814941,1.5917,space,0.3723,0,44,44,14,1,15,image/15.jpg,0,0,,R_7CKs9SKBixkdv7M,2,2024-05-31_21h42.49.728,face trait task,2021.2.3,MacIntel,61.34969325,120813,,,,,,,
,,,,,,3.660810547,9.2373,space,0.8861,0,45,45,7,1,8,image/8.jpg,0,0,,R_7CKs9SKBixkdv7M,2,2024-05-31_21h42.49.728,face trait task,2021.2.3,MacIntel,61.34969325,120813,,,,,,,
,,,,,,4.270303955,1.726,space,0.3871,0,46,46,49,1,50,image/50.jpg,0,0,,R_7CKs9SKBixkdv7M,2,2024-05-31_21h42.49.728,face trait task,2021.2.3,MacIntel,61.34969325,120813,,,,,,,
,,,,,,3.170893962,3.7198,space,0.2614,0,47,47,16,1,17,image/17.jpg,0,0,,R_7CKs9SKBixkdv7M,2,2024-05-31_21h42.49.728,face trait task,2021.2.3,MacIntel,61.34969325,120813,,,,,,,
,,,,,,2.60721578,1.3426,space,0.717,0,48,48,25,1,26,image/26.jpg,0,0,,R_7CKs9SKBixkdv7M,2,2024-05-31_21h42.49.728,face trait task,2021.2.3,MacIntel,61.34969325,120813,,,,,,,
,,,,,,5.963232422,1.6598,space,1.0882,0,49,49,35,1,36,image/36.jpg,0,0,,R_7CKs9SKBixkdv7M,2,2024-05-31_21h42.49.728,face trait task,2021.2.3,MacIntel,61.34969325,120813,,,,,,,
,,,,,,5.985079753,11.5711,space,0.5609,0,50,50,20,1,21,image/21.jpg,0,0,,R_7CKs9SKBixkdv7M,2,2024-05-31_21h42.49.728,face trait task,2021.2.3,MacIntel,61.34969325,120813,,,,,,,
,,,,,,3.968036702,2.6591,space,0.3669,0,51,51,47,1,48,image/48.jpg,0,0,,R_7CKs9SKBixkdv7M,2,2024-05-31_21h42.49.728,face trait task,2021.2.3,MacIntel,61.34969325,120813,,,,,,,
,,,,,,5.294717204,7.8539,space,0.3847,0,52,52,22,1,23,image/23.jpg,0,0,,R_7CKs9SKBixkdv7M,2,2024-05-31_21h42.49.728,face trait task,2021.2.3,MacIntel,61.34969325,120813,,,,,,,
,,,,,,,,,,,,,,,,,,,,R_7CKs9SKBixkdv7M,2,2024-05-31_21h42.49.728,face trait task,2021.2.3,MacIntel,61.34969325,120813,0,3,3,1,1,1,competent.png
