chooserow,ParID,pre_instru_resp_2.keys,pre_instru_resp_2.rt,pre_instru_resp_3.keys,pre_instru_resp_3.rt,pre_instru_resp_9.keys,pre_instru_resp_9.rt,pre_instru_resp_8.keys,pre_instru_resp_8.rt,pre_instru_resp_4.keys,pre_instru_resp_4.rt,pre_instru_resp_5.keys,pre_instru_resp_5.rt,pre_instru_resp_6.keys,pre_instru_resp_6.rt,key_resp_3.keys,key_resp_3.rt,key_resp_4.keys,key_resp_4.rt,key_resp_5.keys,key_resp_5.rt,key_resp_6.keys,key_resp_6.rt,key_resp_7.keys,key_resp_7.rt,trials_2.thisRepN,trials_2.thisTrialN,trials_2.thisN,trials_2.thisIndex,trials_2.ran,participant,session,date,expName,psychopyVersion,OS,frameRate,SONAid,pre_instru_resp.keys,pre_instru_resp.rt,clicked,judge_2.x,judge_2.y,judge_2.leftButton,judge_2.midButton,judge_2.rightButton,judge_2.clicked_name,trials.thisRepN,trials.thisTrialN,trials.thisN,trials.thisIndex,trials.ran,prac_answer,prac_dot_sti,dotlefttext,dotrighttext,prac_acc,judge.x,judge.y,judge.leftButton,judge.midButton,judge.rightButton,judge.clicked_name,clicked_guilt,slider_guilt.response,slider_guilt.rt,key_guilt.keys,key_guilt.rt,share_slider.response,share_slider.rt,key_share.keys,slider_apology.response,slider_apology.rt,key_apology.keys,slider_hide.response,slider_hide.rt,slider_forgiveness.response,slider_forgiveness.rt,key_forgiveness.keys,slider_mad.response,slider_mad.rt,trialseq.thisRepN,trialseq.thisTrialN,trialseq.thisN,trialseq.thisIndex,trialseq.ran,type_trial,stipic,DV,picture,answer,number,key_share.rt,key_forgiveness.rt,key_apology.rt
"[52,60,48,85,75,71,19,144,98,93,86,171,118,82,126,156,175,167,147,160,141,6,63,81,117,148,28,99,143,198,110,195,179,103,181,190,53,140,38,130,131,180]",R_7dZ8IU3hLSkW652,space,1.5857,space,2.4795,space,30.1515,space,14.5797,space,31.9937,space,8.041,space,3.6749,3,4.6597,1,5.3264,3,6.8725,2,8.8206,2,2.8765,0,0,0,0,1,R_7dZ8IU3hLSkW652,1,2024-05-23_15h52.28.339,interaction task,2021.2.3,Win32,60.60606061,120798,,,,,,,,,,,,,,,,,,,,,,,,,,,,,,,,,,,,,,,,,,,,,,,,,,,,,,,,,
,,,,,,,,,,,,,,,,,,,,,,,,,,,,,,,R_7dZ8IU3hLSkW652,1,2024-05-23_15h52.28.339,interaction task,2021.2.3,Win32,60.60606061,120798,space,2.4529,"[""RightButton_2""]",0.268183901,-0.289079229,1,0,0,RightButton_2,0,0,0,2,1,RightButton_2,11dot2.png,Smaller,Greater,,,,,,,,,,,,,,,,,,,,,,,,,,,,,,,,,,,,,,,
,,,,,,,,,,,,,,,,,,,,,,,,,,,,,,,R_7dZ8IU3hLSkW652,1,2024-05-23_15h52.28.339,interaction task,2021.2.3,Win32,60.60606061,120798,,,"[""LeftButton_2""]",-0.228023177,-0.324768066,1,0,0,LeftButton_2,0,1,1,1,1,LeftButton_2,9dot2.png,Smaller,Greater,,,,,,,,,,,,,,,,,,,,,,,,,,,,,,,,,,,,,,,
,,,,,,,,,,,,,,,,,,,,,,,,,,,,,,,R_7dZ8IU3hLSkW652,1,2024-05-23_15h52.28.339,interaction task,2021.2.3,Win32,60.60606061,120798,,,"[""LeftButton_2""]",-0.331548402,-0.339043627,1,0,0,LeftButton_2,0,2,2,0,1,LeftButton_2,11dot1.png,Greater,Smaller,,,,,,,,,,,,,,,,,,,,,,,,,,,,,,,,,,,,,,,
,,,,,,,,,,,,,,,,,,,,,,,,,,,,,,,R_7dZ8IU3hLSkW652,1,2024-05-23_15h52.28.339,interaction task,2021.2.3,Win32,60.60606061,120798,,,,,,,,,,,,,,,,,Greater,Smaller,0.6,-0.319946452,-0.517487552,1,0,0,LeftButton,"[""LeftButton""]",50,9.5761,space,5.217,,,,,,,,,,,,,,0,0,0,0,1,1,both_wrong.png,0,RandomDot10.png,No answer,20,,,
,,,,,,,,,,,,,,,,,,,,,,,,,,,,,,,R_7dZ8IU3hLSkW652,1,2024-05-23_15h52.28.339,interaction task,2021.2.3,Win32,60.60606061,120798,,,,,,,,,,,,,,,,,Greater,Smaller,,0.199464525,-0.540328424,1,0,0,RightButton,"[""RightButton""]",,,,,3.858768407,12.9431,space,,,,,,,,,,,0,1,1,1,1,1,both_wrong.png,1,RandomDot13.png,No answer,19,1.2365,,
,,,,,,,,,,,,,,,,,,,,,,,,,,,,,,,R_7dZ8IU3hLSkW652,1,2024-05-23_15h52.28.339,interaction task,2021.2.3,Win32,60.60606061,120798,,,,,,,,,,,,,,,,,Greater,Smaller,,-0.286032967,-0.487508966,1,0,0,LeftButton,"[""LeftButton""]",58,2.4914,space,1.175,,,,,,,,,,,,,,0,2,2,2,1,1,both_wrong.png,0,RandomDot24.png,No answer,21,,,
,,,,,,,,,,,,,,,,,,,,,,,,,,,,,,,R_7dZ8IU3hLSkW652,1,2024-05-23_15h52.28.339,interaction task,2021.2.3,Win32,60.60606061,120798,,,,,,,,,,,,,,,,,Greater,Smaller,,0.298527443,-0.520342612,1,0,0,RightButton,"[""RightButton""]",,,,,,,,,,,,,89.70991685,5.419,space,30.75354441,6.9975,0,3,3,3,1,1,both_wrong.png,3,RandomDot40.png,No answer,21,,0.8495,
,,,,,,,,,,,,,,,,,,,,,,,,,,,,,,,R_7dZ8IU3hLSkW652,1,2024-05-23_15h52.28.339,interaction task,2021.2.3,Win32,60.60606061,120798,,,,,,,,,,,,,,,,,Greater,Smaller,,-0.233377929,-0.497501872,1,0,0,LeftButton,"[""LeftButton""]",,,,,,,,21,5.8036,space,23,8.7224,,,,,,0,4,4,4,1,1,both_wrong.png,2,RandomDot10.png,No answer,20,,,0.8995
,,,,,,,,,,,,,,,,,,,,,,,,,,,,,,,R_7dZ8IU3hLSkW652,1,2024-05-23_15h52.28.339,interaction task,2021.2.3,Win32,60.60606061,120798,,,,,,,,,,,,,,,,,Smaller,Greater,,0.299419929,-0.536045769,1,0,0,RightButton,"[""RightButton""]",,,,,4.08188336,4.3362,space,,,,,,,,,,,0,5,5,5,1,1,both_wrong.png,1,RandomDot14.png,No answer,20,0.4276,,
,,,,,,,,,,,,,,,,,,,,,,,,,,,,,,,R_7dZ8IU3hLSkW652,1,2024-05-23_15h52.28.339,interaction task,2021.2.3,Win32,60.60606061,120798,,,,,,,,,,,,,,,,,Smaller,Greater,,0.291387801,-0.478943655,1,0,0,RightButton,"[""RightButton""]",,,,,,,,,,,,,,,,,,0,6,6,6,1,0,both_right.png,1,RandomDot36.png,No answer,19,,,
,,,,,,,,,,,,,,,,,,,,,,,,,,,,,,,R_7dZ8IU3hLSkW652,1,2024-05-23_15h52.28.339,interaction task,2021.2.3,Win32,60.60606061,120798,,,,,,,,,,,,,,,,,Greater,Smaller,,-0.211066434,-0.496074276,1,0,0,LeftButton,"[""LeftButton""]",80,1.7826,space,0.3807,,,,,,,,,,,,,,0,7,7,7,1,3,only_sub_wrong.png,0,RandomDot33.png,No answer,19,,,
,,,,,,,,,,,,,,,,,,,,,,,,,,,,,,,R_7dZ8IU3hLSkW652,1,2024-05-23_15h52.28.339,interaction task,2021.2.3,Win32,60.60606061,120798,,,,,,,,,,,,,,,,,Greater,Smaller,,0.244087515,-0.491791621,1,0,0,RightButton,"[""RightButton""]",20,1.0991,space,0.5837,,,,,,,,,,,,,,0,8,8,8,1,2,only_sub_right.png,0,RandomDot16.png,No answer,20,,,
,,,,,,,,,,,,,,,,,,,,,,,,,,,,,,,R_7dZ8IU3hLSkW652,1,2024-05-23_15h52.28.339,interaction task,2021.2.3,Win32,60.60606061,120798,,,,,,,,,,,,,,,,,Smaller,Greater,,-0.31637659,-0.476088595,1,0,0,LeftButton,"[""LeftButton""]",,,,,,,,,,,,,80.33458738,2.5441,space,28.86045015,4.9871,0,9,9,9,1,1,both_wrong.png,3,RandomDot12.png,No answer,21,,0.3485,
,,,,,,,,,,,,,,,,,,,,,,,,,,,,,,,R_7dZ8IU3hLSkW652,1,2024-05-23_15h52.28.339,interaction task,2021.2.3,Win32,60.60606061,120798,,,,,,,,,,,,,,,,,Greater,Smaller,,-0.282463186,-0.511777302,1,0,0,LeftButton,"[""LeftButton""]",,,,,,,,,,,,,71.049408,4.8881,space,19.48512894,3.3345,0,10,10,10,1,1,both_wrong.png,3,RandomDot13.png,No answer,21,,0.2716,
,,,,,,,,,,,,,,,,,,,,,,,,,,,,,,,R_7dZ8IU3hLSkW652,1,2024-05-23_15h52.28.339,interaction task,2021.2.3,Win32,60.60606061,120798,,,,,,,,,,,,,,,,,Greater,Smaller,,0.261936663,-0.513204897,1,0,0,RightButton,"[""RightButton""]",,,,,,,,40,3.3627,space,39,5.1238,,,,,,0,11,11,11,1,3,only_sub_wrong.png,2,RandomDot23.png,No answer,20,,,0.9832
,,,,,,,,,,,,,,,,,,,,,,,,,,,,,,,R_7dZ8IU3hLSkW652,1,2024-05-23_15h52.28.339,interaction task,2021.2.3,Win32,60.60606061,120798,,,,,,,,,,,,,,,,,Smaller,Greater,,-0.270861195,-0.510349837,1,0,0,LeftButton,"[""LeftButton""]",,,,,4.541499331,6.3769,space,,,,,,,,,,,0,12,12,12,1,2,only_sub_right.png,1,RandomDot34.png,No answer,19,3.4044,,
,,,,,,,,,,,,,,,,,,,,,,,,,,,,,,,R_7dZ8IU3hLSkW652,1,2024-05-23_15h52.28.339,interaction task,2021.2.3,Win32,60.60606061,120798,,,,,,,,,,,,,,,,,Smaller,Greater,,-0.22356091,-0.494646681,1,0,0,LeftButton,"[""LeftButton""]",,,,,,,,21,2.6014,space,27,3.7684,,,,,,0,13,13,13,1,1,both_wrong.png,2,RandomDot7.png,No answer,21,,,0.7061
,,,,,,,,,,,,,,,,,,,,,,,,,,,,,,,R_7dZ8IU3hLSkW652,1,2024-05-23_15h52.28.339,interaction task,2021.2.3,Win32,60.60606061,120798,,,,,,,,,,,,,,,,,Smaller,Greater,,-0.293172691,-0.491791621,1,0,0,LeftButton,"[""LeftButton""]",,,,,,,,21,3.302,space,21,4.1757,,,,,,0,14,14,14,1,2,only_sub_right.png,2,RandomDot34.png,No answer,20,,,0.2843
,,,,,,,,,,,,,,,,,,,,,,,,,,,,,,,R_7dZ8IU3hLSkW652,1,2024-05-23_15h52.28.339,interaction task,2021.2.3,Win32,60.60606061,120798,,,,,,,,,,,,,,,,,Greater,Smaller,,-0.251227076,-0.534618173,1,0,0,LeftButton,"[""LeftButton""]",,,,,4.978804378,3.4339,space,,,,,,,,,,,0,15,15,15,1,3,only_sub_wrong.png,1,RandomDot4.png,No answer,20,1.1175,,
,,,,,,,,,,,,,,,,,,,,,,,,,,,,,,,R_7dZ8IU3hLSkW652,1,2024-05-23_15h52.28.339,interaction task,2021.2.3,Win32,60.60606061,120798,,,,,,,,,,,,,,,,,Smaller,Greater,,-0.297634957,-0.543183484,1,0,0,LeftButton,"[""LeftButton""]",,,,,,,,73,6.6554,space,40,8.2836,,,,,,0,16,16,16,1,3,only_sub_wrong.png,2,RandomDot17.png,No answer,19,,,0.4247
,,,,,,,,,,,,,,,,,,,,,,,,,,,,,,,R_7dZ8IU3hLSkW652,1,2024-05-23_15h52.28.339,interaction task,2021.2.3,Win32,60.60606061,120798,,,,,,,,,,,,,,,,,Smaller,Greater,,0.281570782,-0.497501872,1,0,0,RightButton,"[""RightButton""]",,,,,2.894912985,3.2547,space,,,,,,,,,,,0,17,17,17,1,3,only_sub_wrong.png,1,RandomDot22.png,No answer,20,0.2389,,
,,,,,,,,,,,,,,,,,,,,,,,,,,,,,,,R_7dZ8IU3hLSkW652,1,2024-05-23_15h52.28.339,interaction task,2021.2.3,Win32,60.60606061,120798,,,,,,,,,,,,,,,,,Greater,Smaller,,-0.2815707,-0.531763114,1,0,0,LeftButton,"[""LeftButton""]",81,2.8922,space,0.5011,,,,,,,,,,,,,,0,18,18,18,1,3,only_sub_wrong.png,0,RandomDot5.png,No answer,20,,,
,,,,,,,,,,,,,,,,,,,,,,,,,,,,,,,R_7dZ8IU3hLSkW652,1,2024-05-23_15h52.28.339,interaction task,2021.2.3,Win32,60.60606061,120798,,,,,,,,,,,,,,,,,Greater,Smaller,,0.276216029,-0.493219216,1,0,0,RightButton,"[""RightButton""]",,,,,3.158188581,3.8415,space,,,,,,,,,,,0,19,19,19,1,3,only_sub_wrong.png,1,RandomDot22.png,No answer,19,0.9169,,
,,,,,,,,,,,,,,,,,,,,,,,,,,,,,,,R_7dZ8IU3hLSkW652,1,2024-05-23_15h52.28.339,interaction task,2021.2.3,Win32,60.60606061,120798,,,,,,,,,,,,,,,,,Smaller,Greater,,0.266398929,-0.527480458,1,0,0,RightButton,"[""RightButton""]",,,,,,,,,,,,,88.17740646,4.8674,space,7.67582113,6.6771,0,20,20,20,1,2,only_sub_right.png,3,RandomDot7.png,No answer,20,,0.3509,
,,,,,,,,,,,,,,,,,,,,,,,,,,,,,,,R_7dZ8IU3hLSkW652,1,2024-05-23_15h52.28.339,interaction task,2021.2.3,Win32,60.60606061,120798,,,,,,,,,,,,,,,,,Smaller,Greater,,0.283355672,-0.498929336,1,0,0,RightButton,"[""RightButton""]",,,,,,,,,,,,,,,,,,0,21,21,21,1,0,both_right.png,0,RandomDot22.png,No answer,19,,,
,,,,,,,,,,,,,,,,,,,,,,,,,,,,,,,R_7dZ8IU3hLSkW652,1,2024-05-23_15h52.28.339,interaction task,2021.2.3,Win32,60.60606061,120798,,,,,,,,,,,,,,,,,Greater,Smaller,,-0.250334672,-0.534618173,1,0,0,LeftButton,"[""LeftButton""]",,,,,3.211736105,2.4415,space,,,,,,,,,,,0,22,22,22,1,1,both_wrong.png,1,RandomDot27.png,No answer,19,0.9841,,
,,,,,,,,,,,,,,,,,,,,,,,,,,,,,,,R_7dZ8IU3hLSkW652,1,2024-05-23_15h52.28.339,interaction task,2021.2.3,Win32,60.60606061,120798,,,,,,,,,,,,,,,,,Smaller,Greater,,0.240517653,-0.501784527,1,0,0,RightButton,"[""RightButton""]",,,,,,,,51,2.8867,space,23,3.9674,,,,,,0,23,23,23,1,1,both_wrong.png,2,RandomDot21.png,No answer,20,,,0.3002
,,,,,,,,,,,,,,,,,,,,,,,,,,,,,,,R_7dZ8IU3hLSkW652,1,2024-05-23_15h52.28.339,interaction task,2021.2.3,Win32,60.60606061,120798,,,,,,,,,,,,,,,,,Smaller,Greater,,0.282463186,-0.473233405,1,0,0,RightButton,"[""RightButton""]",,,,,3.12248996,2.8872,space,,,,,,,,,,,0,24,24,24,1,2,only_sub_right.png,1,RandomDot27.png,No answer,21,0.3207,,
,,,,,,,,,,,,,,,,,,,,,,,,,,,,,,,R_7dZ8IU3hLSkW652,1,2024-05-23_15h52.28.339,interaction task,2021.2.3,Win32,60.60606061,120798,,,,,,,,,,,,,,,,,Greater,Smaller,,0.208389139,-0.474661,1,0,0,RightButton,"[""RightButton""]",81,3.9805,space,1.6181,,,,,,,,,,,,,,0,25,25,25,1,3,only_sub_wrong.png,0,RandomDot12.png,No answer,20,,,
,,,,,,,,,,,,,,,,,,,,,,,,,,,,,,,R_7dZ8IU3hLSkW652,1,2024-05-23_15h52.28.339,interaction task,2021.2.3,Win32,60.60606061,120798,,,,,,,,,,,,,,,,,Greater,Smaller,,-0.313699214,-0.497501872,1,0,0,LeftButton,"[""LeftButton""]",,,,,,,,,,,,,,,,,,0,26,26,26,1,0,both_right.png,2,RandomDot23.png,No answer,19,,,
,,,,,,,,,,,,,,,,,,,,,,,,,,,,,,,R_7dZ8IU3hLSkW652,1,2024-05-23_15h52.28.339,interaction task,2021.2.3,Win32,60.60606061,120798,,,,,,,,,,,,,,,,,Greater,Smaller,,0.236055387,-0.498929336,1,0,0,RightButton,"[""RightButton""]",26,3.9616,space,2.1065,,,,,,,,,,,,,,0,27,27,27,1,2,only_sub_right.png,0,RandomDot21.png,No answer,19,,,
,,,,,,,,,,,,,,,,,,,,,,,,,,,,,,,R_7dZ8IU3hLSkW652,1,2024-05-23_15h52.28.339,interaction task,2021.2.3,Win32,60.60606061,120798,,,,,,,,,,,,,,,,,Smaller,Greater,,0.272646167,-0.511777302,1,0,0,RightButton,"[""RightButton""]",,,,,,,,,,,,,90.97196868,2.5831,space,8.216705205,4.7148,0,28,28,28,1,2,only_sub_right.png,3,RandomDot31.png,No answer,19,,1.0847,
,,,,,,,,,,,,,,,,,,,,,,,,,,,,,,,R_7dZ8IU3hLSkW652,1,2024-05-23_15h52.28.339,interaction task,2021.2.3,Win32,60.60606061,120798,,,,,,,,,,,,,,,,,Greater,Smaller,,0.236947791,-0.510349837,1,0,0,RightButton,"[""RightButton""]",,,,,,,,,,,,,,,,,,0,29,29,29,1,5,both_right.png,10,RandomDot42.png,RightButton,20,,,
,,,,,,,,,,,,,,,,,,,,,,,,,,,,,,,R_7dZ8IU3hLSkW652,1,2024-05-23_15h52.28.339,interaction task,2021.2.3,Win32,60.60606061,120798,,,,,,,,,,,,,,,,,Greater,Smaller,,-0.263721553,-0.476088595,1,0,0,LeftButton,"[""LeftButton""]",,,,,2.957385368,1.563,space,,,,,,,,,,,0,30,30,30,1,2,only_sub_right.png,1,RandomDot6.png,No answer,21,0.3518,,
,,,,,,,,,,,,,,,,,,,,,,,,,,,,,,,R_7dZ8IU3hLSkW652,1,2024-05-23_15h52.28.339,interaction task,2021.2.3,Win32,60.60606061,120798,,,,,,,,,,,,,,,,,Smaller,Greater,,0.344042838,-0.521770208,1,0,0,RightButton,"[""RightButton""]",,,,,,,,,,,,,,,,,,0,31,31,31,1,4,both_right.png,10,RandomDot41.png,RightButton,5,,,
,,,,,,,,,,,,,,,,,,,,,,,,,,,,,,,R_7dZ8IU3hLSkW652,1,2024-05-23_15h52.28.339,interaction task,2021.2.3,Win32,60.60606061,120798,,,,,,,,,,,,,,,,,Smaller,Greater,,-0.229808067,-0.468950749,1,0,0,LeftButton,"[""LeftButton""]",,,,,,,,70,3.0579,space,20,4.5395,,,,,,0,32,32,32,1,3,only_sub_wrong.png,2,RandomDot15.png,No answer,20,,,0.2321
,,,,,,,,,,,,,,,,,,,,,,,,,,,,,,,R_7dZ8IU3hLSkW652,1,2024-05-23_15h52.28.339,interaction task,2021.2.3,Win32,60.60606061,120798,,,,,,,,,,,,,,,,,Smaller,Greater,,0.239625167,-0.476088595,1,0,0,RightButton,"[""RightButton""]",13,2.5311,space,0.3395,,,,,,,,,,,,,,0,33,33,33,1,2,only_sub_right.png,0,RandomDot21.png,No answer,21,,,
,,,,,,,,,,,,,,,,,,,,,,,,,,,,,,,R_7dZ8IU3hLSkW652,1,2024-05-23_15h52.28.339,interaction task,2021.2.3,Win32,60.60606061,120798,,,,,,,,,,,,,,,,,Greater,Smaller,,0.213743892,-0.517487552,1,0,0,RightButton,"[""RightButton""]",,,,,,,,,,,,,13.53539998,3.4971,space,50.40566306,5.5809,0,34,34,34,1,3,only_sub_wrong.png,3,RandomDot3.png,No answer,19,,0.6513,
,,,,,,,,,,,,,,,,,,,,,,,,,,,,,,,R_7dZ8IU3hLSkW652,1,2024-05-23_15h52.28.339,interaction task,2021.2.3,Win32,60.60606061,120798,,,,,,,,,,,,,,,,,Smaller,Greater,,0.301204819,-0.497501872,1,0,0,RightButton,"[""RightButton""]",,,,,,,,,,,,,21.91910727,6.8401,space,83.03900775,9.4341,0,35,35,35,1,3,only_sub_wrong.png,3,RandomDot7.png,No answer,19,,0.8632,
,,,,,,,,,,,,,,,,,,,,,,,,,,,,,,,R_7dZ8IU3hLSkW652,1,2024-05-23_15h52.28.339,interaction task,2021.2.3,Win32,60.60606061,120798,,,,,,,,,,,,,,,,,Greater,Smaller,,0.269968791,-0.536045769,1,0,0,RightButton,"[""RightButton""]",48,3.2057,space,1.0206,,,,,,,,,,,,,,0,36,36,36,1,1,both_wrong.png,0,RandomDot32.png,No answer,19,,,
,,,,,,,,,,,,,,,,,,,,,,,,,,,,,,,R_7dZ8IU3hLSkW652,1,2024-05-23_15h52.28.339,interaction task,2021.2.3,Win32,60.60606061,120798,,,,,,,,,,,,,,,,,Smaller,Greater,,-0.352967412,-0.513204897,1,0,0,LeftButton,"[""LeftButton""]",,,,,,,,,,,,,85.83356997,6.3722,space,19.48512894,7.392,0,37,37,37,1,2,only_sub_right.png,3,RandomDot8.png,No answer,19,,0.5212,
,,,,,,,,,,,,,,,,,,,,,,,,,,,,,,,R_7dZ8IU3hLSkW652,1,2024-05-23_15h52.28.339,interaction task,2021.2.3,Win32,60.60606061,120798,,,,,,,,,,,,,,,,,Greater,Smaller,,0.302989791,-0.463180881,1,0,0,RightButton,"[""RightButton""]",,,,,,,,,,,,,,,,,,0,38,38,38,1,0,both_right.png,3,RandomDot39.png,No answer,20,,,
,,,,,,,,,,,,,,,,,,,,,,,,,,,,,,,R_7dZ8IU3hLSkW652,1,2024-05-23_15h52.28.339,interaction task,2021.2.3,Win32,60.60606061,120798,,,,,,,,,,,,,,,,,Smaller,Greater,,0.352074967,-0.522440194,1,0,0,RightButton,"[""RightButton""]",,,,,,,,22,2.8005,space,22,5.973,,,,,,0,39,39,39,1,2,only_sub_right.png,2,RandomDot8.png,No answer,21,,,0.5258
,,,,,,,,,,,,,,,,,,,,,,,,,,,,,,,R_7dZ8IU3hLSkW652,1,2024-05-23_15h52.28.339,interaction task,2021.2.3,Win32,60.60606061,120798,,,,,,,,,,,,,,,,,Smaller,Greater,,-0.251227076,-0.524183007,1,0,0,LeftButton,"[""LeftButton""]",,,,,,,,14,2.3239,space,18,4.2703,,,,,,0,40,40,40,1,2,only_sub_right.png,2,RandomDot5.png,No answer,21,,,2.4178
,,,,,,,,,,,,,,,,,,,,,,,,,,,,,,,R_7dZ8IU3hLSkW652,1,2024-05-23_15h52.28.339,interaction task,2021.2.3,Win32,60.60606061,120798,,,,,,,,,,,,,,,,,Greater,Smaller,,0.25479702,-0.510239705,1,0,0,RightButton,"[""RightButton""]",,,,,,,,,,,,,33.99884887,10.8393,space,62.12482077,13.5454,0,41,41,41,1,3,only_sub_wrong.png,3,RandomDot20.png,No answer,19,,0.8949,
