choose_trial,key_resp.keys,key_resp.rt,key_resp_4.keys,key_resp_4.rt,session_trait,slider_face_judge.response,slider_face_judge.rt,key_resp_3.keys,key_resp_3.rt,face_loop.thisRepN,face_loop.thisTrialN,face_loop.thisN,face_loop.thisIndex,face_loop.ran,face_serial,image_name,isCheck,answer,check_question,participant,session,date,expName,psychopyVersion,OS,frameRate,SONAid,session.thisRepN,session.thisTrialN,session.thisN,session.thisIndex,session.ran,session_serial,slider_judge_img
"[0,1,2,3,4,5,6,7,8,9,10,11,12,13,14,15,16,17,18,19,20,21,22,23,24,25,26,27,28,29,30,31,32,33,34,35,36,37,38,39,40,41,42,43,44,45,46,47,48,49,58,57,58]",space,7.2333,space,12.1339,critical,5.089935891,8.073,space,5.6529,0,0,0,18,1,19,image/19.jpg,0,0,,R_7dZ8IU3hLSkW652,2,2024-05-23_16h07.01.566,face trait task,2021.2.3,Win32,60.60606061,120798,,,,,,,
,,,,,,4.014989555,3.8451,space,1.7007,0,1,1,11,1,12,image/12.jpg,0,0,,R_7dZ8IU3hLSkW652,2,2024-05-23_16h07.01.566,face trait task,2021.2.3,Win32,60.60606061,120798,,,,,,,
,,,,,,3.034261373,3.443,space,1.733,0,2,2,9,1,10,image/10.jpg,0,0,,R_7dZ8IU3hLSkW652,2,2024-05-23_16h07.01.566,face trait task,2021.2.3,Win32,60.60606061,120798,,,,,,,
,,,,,,1.034261307,2.8431,space,0.6849,0,3,3,3,1,4,image/4.jpg,0,0,,R_7dZ8IU3hLSkW652,2,2024-05-23_16h07.01.566,face trait task,2021.2.3,Win32,60.60606061,120798,,,,,,,
,,,,,,4.798715465,2.0211,space,0.9394,0,4,4,1,1,2,image/2.jpg,0,0,,R_7dZ8IU3hLSkW652,2,2024-05-23_16h07.01.566,face trait task,2021.2.3,Win32,60.60606061,120798,,,,,,,
,,,,,,4.965739019,2.3606,space,0.353,0,5,5,8,1,9,image/9.jpg,0,0,,R_7dZ8IU3hLSkW652,2,2024-05-23_16h07.01.566,face trait task,2021.2.3,Win32,60.60606061,120798,,,,,,,
,,,,,,5.029978848,3.0605,space,0.8385,0,6,6,12,1,13,image/13.jpg,0,0,,R_7dZ8IU3hLSkW652,2,2024-05-23_16h07.01.566,face trait task,2021.2.3,Win32,60.60606061,120798,,,,,,,
,,,,,,3.128479919,2.5062,space,0.788,0,7,7,22,1,23,image/23.jpg,0,0,,R_7dZ8IU3hLSkW652,2,2024-05-23_16h07.01.566,face trait task,2021.2.3,Win32,60.60606061,120798,,,,,,,
,,,,,,5.077087925,2.3063,space,0.6661,0,8,8,0,1,1,image/1.jpg,0,0,,R_7dZ8IU3hLSkW652,2,2024-05-23_16h07.01.566,face trait task,2021.2.3,Win32,60.60606061,120798,,,,,,,
,,,,,,6.237687628,3.1107,space,0.9791,0,9,9,28,1,29,image/29.jpg,0,0,,R_7dZ8IU3hLSkW652,2,2024-05-23_16h07.01.566,face trait task,2021.2.3,Win32,60.60606061,120798,,,,,,,
,,,,,,1.937901499,3.0118,space,1.4759,0,10,10,14,1,15,image/15.jpg,0,0,,R_7dZ8IU3hLSkW652,2,2024-05-23_16h07.01.566,face trait task,2021.2.3,Win32,60.60606061,120798,,,,,,,
,,,,,,5.985010707,3.5534,space,0.4802,0,11,11,31,1,32,image/32.jpg,0,0,,R_7dZ8IU3hLSkW652,2,2024-05-23_16h07.01.566,face trait task,2021.2.3,Win32,60.60606061,120798,,,,,,,
,,,,,,6.049250535,3.8869,space,0.2349,0,12,12,21,1,22,image/22.jpg,0,0,,R_7dZ8IU3hLSkW652,2,2024-05-23_16h07.01.566,face trait task,2021.2.3,Win32,60.60606061,120798,,,,,,,
,,,,,,2.995717475,3.2068,space,0.0774,0,13,13,46,1,47,image/47.jpg,0,0,,R_7dZ8IU3hLSkW652,2,2024-05-23_16h07.01.566,face trait task,2021.2.3,Win32,60.60606061,120798,,,,,,,
,,,,,,2.995717475,5.9494,space,0.3837,0,14,14,44,1,45,image/45.jpg,0,0,,R_7dZ8IU3hLSkW652,2,2024-05-23_16h07.01.566,face trait task,2021.2.3,Win32,60.60606061,120798,,,,,,,
,,,,,,1.942184285,3.1515,space,0.5388,0,15,15,7,1,8,image/8.jpg,0,0,,R_7dZ8IU3hLSkW652,2,2024-05-23_16h07.01.566,face trait task,2021.2.3,Win32,60.60606061,120798,,,,,,,
,,,,,,4.965739019,3.1144,space,1.1747,0,16,16,19,1,20,image/20.jpg,0,0,,R_7dZ8IU3hLSkW652,2,2024-05-23_16h07.01.566,face trait task,2021.2.3,Win32,60.60606061,120798,,,,,,,
,,,,,,1.972162806,4.0715,space,0.3961,0,17,17,2,1,3,image/3.jpg,0,0,,R_7dZ8IU3hLSkW652,2,2024-05-23_16h07.01.566,face trait task,2021.2.3,Win32,60.60606061,120798,,,,,,,
,,,,,,4.490364287,4.3381,space,0.4876,0,18,18,36,1,37,image/37.jpg,0,0,,R_7dZ8IU3hLSkW652,2,2024-05-23_16h07.01.566,face trait task,2021.2.3,Win32,60.60606061,120798,,,,,,,
,,,,,,1.226980793,2.0781,space,0.5266,0,19,19,4,1,5,image/5.jpg,0,0,,R_7dZ8IU3hLSkW652,2,2024-05-23_16h07.01.566,face trait task,2021.2.3,Win32,60.60606061,120798,,,,,,,
,,,,,,5.2355463,3.2072,space,0.7545,0,20,20,37,1,38,image/38.jpg,0,0,,R_7dZ8IU3hLSkW652,2,2024-05-23_16h07.01.566,face trait task,2021.2.3,Win32,60.60606061,120798,,,,,,,
,,,,,,5.865096621,4.1868,space,1.0462,0,21,21,27,1,28,image/28.jpg,0,0,,R_7dZ8IU3hLSkW652,2,2024-05-23_16h07.01.566,face trait task,2021.2.3,Win32,60.60606061,120798,,,,,,,
,,,,,,3.942184154,5.9214,space,1.7635,0,22,22,5,1,6,image/6.jpg,0,0,,R_7dZ8IU3hLSkW652,2,2024-05-23_16h07.01.566,face trait task,2021.2.3,Win32,60.60606061,120798,,,,,,,
,,,,,,2.987152296,2.9078,space,0.2555,0,23,23,20,1,21,image/21.jpg,0,0,,R_7dZ8IU3hLSkW652,2,2024-05-23_16h07.01.566,face trait task,2021.2.3,Win32,60.60606061,120798,,,,,,,
,,,,,,2.156316916,2.0549,space,0.4026,0,24,24,48,1,49,image/49.jpg,0,0,,R_7dZ8IU3hLSkW652,2,2024-05-23_16h07.01.566,face trait task,2021.2.3,Win32,60.60606061,120798,,,,,,,
,,,,,,6.987152034,4.5011,space,0.6178,0,25,25,51,1,58,image/fill_img.png,1,7,Please move the slider all the way to the RIGHT to show that you are paying attention.,R_7dZ8IU3hLSkW652,2,2024-05-23_16h07.01.566,face trait task,2021.2.3,Win32,60.60606061,120798,,,,,,,
,,,,,,2.408993641,4.0334,space,0.3336,0,26,26,15,1,16,image/16.jpg,0,0,,R_7dZ8IU3hLSkW652,2,2024-05-23_16h07.01.566,face trait task,2021.2.3,Win32,60.60606061,120798,,,,,,,
,,,,,,3.920771009,2.8762,space,0.315,0,27,27,16,1,17,image/17.jpg,0,0,,R_7dZ8IU3hLSkW652,2,2024-05-23_16h07.01.566,face trait task,2021.2.3,Win32,60.60606061,120798,,,,,,,
,,,,,,5.959314775,3.0047,space,0.3646,0,28,28,29,1,30,image/30.jpg,0,0,,R_7dZ8IU3hLSkW652,2,2024-05-23_16h07.01.566,face trait task,2021.2.3,Win32,60.60606061,120798,,,,,,,
,,,,,,5.539614692,5.8014,space,0.6048,0,29,29,39,1,40,image/40.jpg,0,0,,R_7dZ8IU3hLSkW652,2,2024-05-23_16h07.01.566,face trait task,2021.2.3,Win32,60.60606061,120798,,,,,,,
,,,,,,1.616702355,2.0595,space,0.3776,0,30,30,17,1,18,image/18.jpg,0,0,,R_7dZ8IU3hLSkW652,2,2024-05-23_16h07.01.566,face trait task,2021.2.3,Win32,60.60606061,120798,,,,,,,
,,,,,,2.644539615,2.6862,space,0.271,0,31,31,34,1,35,image/35.jpg,0,0,,R_7dZ8IU3hLSkW652,2,2024-05-23_16h07.01.566,face trait task,2021.2.3,Win32,60.60606061,120798,,,,,,,
,,,,,,2.99143469,3.2053,space,0.6851,0,32,32,32,1,33,image/33.jpg,0,0,,R_7dZ8IU3hLSkW652,2,2024-05-23_16h07.01.566,face trait task,2021.2.3,Win32,60.60606061,120798,,,,,,,
,,,,,,5.967880347,3.0265,space,0.2838,0,33,33,33,1,34,image/34.jpg,0,0,,R_7dZ8IU3hLSkW652,2,2024-05-23_16h07.01.566,face trait task,2021.2.3,Win32,60.60606061,120798,,,,,,,
,,,,,,6.289079491,2.7261,space,1.4443,0,34,34,45,1,46,image/46.jpg,0,0,,R_7dZ8IU3hLSkW652,2,2024-05-23_16h07.01.566,face trait task,2021.2.3,Win32,60.60606061,120798,,,,,,,
,,,,,,2.700214263,2.1437,space,0.6,0,35,35,49,1,50,image/50.jpg,0,0,,R_7dZ8IU3hLSkW652,2,2024-05-23_16h07.01.566,face trait task,2021.2.3,Win32,60.60606061,120798,,,,,,,
,,,,,,2.871520604,3.1846,space,0.3585,0,36,36,24,1,25,image/25.jpg,0,0,,R_7dZ8IU3hLSkW652,2,2024-05-23_16h07.01.566,face trait task,2021.2.3,Win32,60.60606061,120798,,,,,,,
,,,,,,3.989293623,2.7061,space,3.5038,0,37,37,35,1,36,image/36.jpg,0,0,,R_7dZ8IU3hLSkW652,2,2024-05-23_16h07.01.566,face trait task,2021.2.3,Win32,60.60606061,120798,,,,,,,
,,,,,,6.987152034,3.1052,space,0.4042,0,38,38,52,1,59,image/fill_img.png,1,7,Please move the slider all the way to the RIGHT to show that you are paying attention.,R_7dZ8IU3hLSkW652,2,2024-05-23_16h07.01.566,face trait task,2021.2.3,Win32,60.60606061,120798,,,,,,,
,,,,,,2.670235546,2.3517,space,0.5032,0,39,39,41,1,42,image/42.jpg,0,0,,R_7dZ8IU3hLSkW652,2,2024-05-23_16h07.01.566,face trait task,2021.2.3,Win32,60.60606061,120798,,,,,,,
,,,,,,2.931477647,2.1287,space,2.1708,0,40,40,23,1,24,image/24.jpg,0,0,,R_7dZ8IU3hLSkW652,2,2024-05-23_16h07.01.566,face trait task,2021.2.3,Win32,60.60606061,120798,,,,,,,
,,,,,,2.571734606,13.4626,space,0.4431,0,41,41,43,1,44,image/44.jpg,0,0,,R_7dZ8IU3hLSkW652,2,2024-05-23_16h07.01.566,face trait task,2021.2.3,Win32,60.60606061,120798,,,,,,,
,,,,,,2.353319189,4.3528,space,0.4671,0,42,42,10,1,11,image/11.jpg,0,0,,R_7dZ8IU3hLSkW652,2,2024-05-23_16h07.01.566,face trait task,2021.2.3,Win32,60.60606061,120798,,,,,,,
,,,,,,5.256959445,2.0708,space,0.2853,0,43,43,13,1,14,image/14.jpg,0,0,,R_7dZ8IU3hLSkW652,2,2024-05-23_16h07.01.566,face trait task,2021.2.3,Win32,60.60606061,120798,,,,,,,
,,,,,,5.788008827,3.8231,space,0.2906,0,44,44,42,1,43,image/43.jpg,0,0,,R_7dZ8IU3hLSkW652,2,2024-05-23_16h07.01.566,face trait task,2021.2.3,Win32,60.60606061,120798,,,,,,,
,,,,,,2.29336195,2.2087,space,0.3994,0,45,45,40,1,41,image/41.jpg,0,0,,R_7dZ8IU3hLSkW652,2,2024-05-23_16h07.01.566,face trait task,2021.2.3,Win32,60.60606061,120798,,,,,,,
,,,,,,4.447537604,2.3785,space,0.2219,0,46,46,38,1,39,image/39.jpg,0,0,,R_7dZ8IU3hLSkW652,2,2024-05-23_16h07.01.566,face trait task,2021.2.3,Win32,60.60606061,120798,,,,,,,
,,,,,,3.055674518,3.9773,space,0.8862,0,47,47,25,1,26,image/26.jpg,0,0,,R_7dZ8IU3hLSkW652,2,2024-05-23_16h07.01.566,face trait task,2021.2.3,Win32,60.60606061,120798,,,,,,,
,,,,,,6.922912206,2.4895,space,0.5568,0,48,48,50,1,59,image/fill_img.png,1,7,Please move the slider all the way to the RIGHT to show that you are paying attention.,R_7dZ8IU3hLSkW652,2,2024-05-23_16h07.01.566,face trait task,2021.2.3,Win32,60.60606061,120798,,,,,,,
,,,,,,6.807280514,3.0007,space,0.8197,0,49,49,30,1,31,image/31.jpg,0,0,,R_7dZ8IU3hLSkW652,2,2024-05-23_16h07.01.566,face trait task,2021.2.3,Win32,60.60606061,120798,,,,,,,
,,,,,,1.899357602,2.1121,space,0.399,0,50,50,6,1,7,image/7.jpg,0,0,,R_7dZ8IU3hLSkW652,2,2024-05-23_16h07.01.566,face trait task,2021.2.3,Win32,60.60606061,120798,,,,,,,
,,,,,,2.263383428,4.021,space,0.3341,0,51,51,47,1,48,image/48.jpg,0,0,,R_7dZ8IU3hLSkW652,2,2024-05-23_16h07.01.566,face trait task,2021.2.3,Win32,60.60606061,120798,,,,,,,
,,,,,,2.070663942,4.0049,space,0.2983,0,52,52,26,1,27,image/27.jpg,0,0,,R_7dZ8IU3hLSkW652,2,2024-05-23_16h07.01.566,face trait task,2021.2.3,Win32,60.60606061,120798,,,,,,,
,,,,,,,,,,,,,,,,,,,,R_7dZ8IU3hLSkW652,2,2024-05-23_16h07.01.566,face trait task,2021.2.3,Win32,60.60606061,120798,0,0,0,0,1,0,critical.png
,,,,,friendly,2.1991436,2.5968,space,0.4685,0,0,0,49,1,50,image/50.jpg,0,0,,R_7dZ8IU3hLSkW652,2,2024-05-23_16h07.01.566,face trait task,2021.2.3,Win32,60.60606061,120798,,,,,,,
,,,,,,2.931477647,3.193,space,0.4832,0,1,1,25,1,26,image/26.jpg,0,0,,R_7dZ8IU3hLSkW652,2,2024-05-23_16h07.01.566,face trait task,2021.2.3,Win32,60.60606061,120798,,,,,,,
,,,,,,1.364025827,2.1654,space,0.6234,0,2,2,28,1,29,image/29.jpg,0,0,,R_7dZ8IU3hLSkW652,2,2024-05-23_16h07.01.566,face trait task,2021.2.3,Win32,60.60606061,120798,,,,,,,
,,,,,,4.73875803,3.8102,space,0.4914,0,3,3,46,1,47,image/47.jpg,0,0,,R_7dZ8IU3hLSkW652,2,2024-05-23_16h07.01.566,face trait task,2021.2.3,Win32,60.60606061,120798,,,,,,,
,,,,,,3.304068653,3.1105,space,0.2185,0,4,4,42,1,43,image/43.jpg,0,0,,R_7dZ8IU3hLSkW652,2,2024-05-23_16h07.01.566,face trait task,2021.2.3,Win32,60.60606061,120798,,,,,,,
,,,,,,6.010706638,2.1021,space,0.753,0,5,5,3,1,4,image/4.jpg,0,0,,R_7dZ8IU3hLSkW652,2,2024-05-23_16h07.01.566,face trait task,2021.2.3,Win32,60.60606061,120798,,,,,,,
,,,,,,1.997858738,2.5235,space,0.7044,0,6,6,45,1,46,image/46.jpg,0,0,,R_7dZ8IU3hLSkW652,2,2024-05-23_16h07.01.566,face trait task,2021.2.3,Win32,60.60606061,120798,,,,,,,
,,,,,,3.972162872,2.5567,space,0.3852,0,7,7,18,1,19,image/19.jpg,0,0,,R_7dZ8IU3hLSkW652,2,2024-05-23_16h07.01.566,face trait task,2021.2.3,Win32,60.60606061,120798,,,,,,,
,,,,,,4.02783752,2.8363,space,1.2687,0,8,8,34,1,35,image/35.jpg,0,0,,R_7dZ8IU3hLSkW652,2,2024-05-23_16h07.01.566,face trait task,2021.2.3,Win32,60.60606061,120798,,,,,,,
,,,,,,3.055674518,1.7525,space,0.3652,0,9,9,0,1,1,image/1.jpg,0,0,,R_7dZ8IU3hLSkW652,2,2024-05-23_16h07.01.566,face trait task,2021.2.3,Win32,60.60606061,120798,,,,,,,
,,,,,,1.899357602,1.9343,space,0.7942,0,10,10,6,1,7,image/7.jpg,0,0,,R_7dZ8IU3hLSkW652,2,2024-05-23_16h07.01.566,face trait task,2021.2.3,Win32,60.60606061,120798,,,,,,,
,,,,,,4.494646681,3.6915,space,2.1851,0,11,11,19,1,20,image/20.jpg,0,0,,R_7dZ8IU3hLSkW652,2,2024-05-23_16h07.01.566,face trait task,2021.2.3,Win32,60.60606061,120798,,,,,,,
,,,,,,3.205567713,3.0118,space,0.3498,0,12,12,31,1,32,image/32.jpg,0,0,,R_7dZ8IU3hLSkW652,2,2024-05-23_16h07.01.566,face trait task,2021.2.3,Win32,60.60606061,120798,,,,,,,
,,,,,,5.976445919,4.0687,space,1.4878,0,13,13,2,1,3,image/3.jpg,0,0,,R_7dZ8IU3hLSkW652,2,2024-05-23_16h07.01.566,face trait task,2021.2.3,Win32,60.60606061,120798,,,,,,,
,,,,,,2.010706703,2.2417,space,0.4326,0,14,14,14,1,15,image/15.jpg,0,0,,R_7dZ8IU3hLSkW652,2,2024-05-23_16h07.01.566,face trait task,2021.2.3,Win32,60.60606061,120798,,,,,,,
,,,,,,3.07280527,4.5896,space,0.209,0,15,15,5,1,6,image/6.jpg,0,0,,R_7dZ8IU3hLSkW652,2,2024-05-23_16h07.01.566,face trait task,2021.2.3,Win32,60.60606061,120798,,,,,,,
,,,,,,6.790150154,1.8846,space,0.9845,0,16,16,4,1,5,image/5.jpg,0,0,,R_7dZ8IU3hLSkW652,2,2024-05-23_16h07.01.566,face trait task,2021.2.3,Win32,60.60606061,120798,,,,,,,
,,,,,,4.002141589,2.7905,space,0.4697,0,17,17,39,1,40,image/40.jpg,0,0,,R_7dZ8IU3hLSkW652,2,2024-05-23_16h07.01.566,face trait task,2021.2.3,Win32,60.60606061,120798,,,,,,,
,,,,,,2.29336195,3.022,space,0.7347,0,18,18,9,1,10,image/10.jpg,0,0,,R_7dZ8IU3hLSkW652,2,2024-05-23_16h07.01.566,face trait task,2021.2.3,Win32,60.60606061,120798,,,,,,,
,,,,,,1.96359743,2.324,space,0.2753,0,19,19,23,1,24,image/24.jpg,0,0,,R_7dZ8IU3hLSkW652,2,2024-05-23_16h07.01.566,face trait task,2021.2.3,Win32,60.60606061,120798,,,,,,,
,,,,,,1.004282786,1.7858,space,0.4216,0,20,20,30,1,31,image/31.jpg,0,0,,R_7dZ8IU3hLSkW652,2,2024-05-23_16h07.01.566,face trait task,2021.2.3,Win32,60.60606061,120798,,,,,,,
,,,,,,2.99143469,2.2036,space,0.2041,0,21,21,26,1,27,image/27.jpg,0,0,,R_7dZ8IU3hLSkW652,2,2024-05-23_16h07.01.566,face trait task,2021.2.3,Win32,60.60606061,120798,,,,,,,
,,,,,,1.304068588,2.5938,space,0.4734,0,22,22,29,1,30,image/30.jpg,0,0,,R_7dZ8IU3hLSkW652,2,2024-05-23_16h07.01.566,face trait task,2021.2.3,Win32,60.60606061,120798,,,,,,,
,,,,,,1.304068588,1.4185,space,0.333,0,23,23,37,1,38,image/38.jpg,0,0,,R_7dZ8IU3hLSkW652,2,2024-05-23_16h07.01.566,face trait task,2021.2.3,Win32,60.60606061,120798,,,,,,,
,,,,,,4.978586985,2.9014,space,0.3235,0,24,24,17,1,18,image/18.jpg,0,0,,R_7dZ8IU3hLSkW652,2,2024-05-23_16h07.01.566,face trait task,2021.2.3,Win32,60.60606061,120798,,,,,,,
,,,,,,4.978586985,1.5526,space,0.5,0,25,25,1,1,2,image/2.jpg,0,0,,R_7dZ8IU3hLSkW652,2,2024-05-23_16h07.01.566,face trait task,2021.2.3,Win32,60.60606061,120798,,,,,,,
,,,,,,3.012848227,3.6529,space,0.2417,0,26,26,44,1,45,image/45.jpg,0,0,,R_7dZ8IU3hLSkW652,2,2024-05-23_16h07.01.566,face trait task,2021.2.3,Win32,60.60606061,120798,,,,,,,
,,,,,,2.361884368,9.1734,space,0.5087,0,27,27,15,1,16,image/16.jpg,0,0,,R_7dZ8IU3hLSkW652,2,2024-05-23_16h07.01.566,face trait task,2021.2.3,Win32,60.60606061,120798,,,,,,,
,,,,,,6.974304069,2.513,space,0.5514,0,28,28,50,1,59,image/fill_img.png,1,7,Please move the slider all the way to the RIGHT to show that you are paying attention.,R_7dZ8IU3hLSkW652,2,2024-05-23_16h07.01.566,face trait task,2021.2.3,Win32,60.60606061,120798,,,,,,,
,,,,,,5.107066643,4.0089,space,0.4854,0,29,29,24,1,25,image/25.jpg,0,0,,R_7dZ8IU3hLSkW652,2,2024-05-23_16h07.01.566,face trait task,2021.2.3,Win32,60.60606061,120798,,,,,,,
,,,,,,1.972162806,2.5837,space,0.8911,0,30,30,8,1,9,image/9.jpg,0,0,,R_7dZ8IU3hLSkW652,2,2024-05-23_16h07.01.566,face trait task,2021.2.3,Win32,60.60606061,120798,,,,,,,
,,,,,,4.644539876,1.9004,space,0.5891,0,31,31,33,1,34,image/34.jpg,0,0,,R_7dZ8IU3hLSkW652,2,2024-05-23_16h07.01.566,face trait task,2021.2.3,Win32,60.60606061,120798,,,,,,,
,,,,,,5.299786129,2.4633,space,1.0348,0,32,32,11,1,12,image/12.jpg,0,0,,R_7dZ8IU3hLSkW652,2,2024-05-23_16h07.01.566,face trait task,2021.2.3,Win32,60.60606061,120798,,,,,,,
,,,,,,4.002141589,1.9107,space,0.3496,0,33,33,38,1,39,image/39.jpg,0,0,,R_7dZ8IU3hLSkW652,2,2024-05-23_16h07.01.566,face trait task,2021.2.3,Win32,60.60606061,120798,,,,,,,
,,,,,,4.019271949,1.5283,space,0.3067,0,34,34,47,1,48,image/48.jpg,0,0,,R_7dZ8IU3hLSkW652,2,2024-05-23_16h07.01.566,face trait task,2021.2.3,Win32,60.60606061,120798,,,,,,,
,,,,,,3.552462788,2.6564,space,0.3841,0,35,35,13,1,14,image/14.jpg,0,0,,R_7dZ8IU3hLSkW652,2,2024-05-23_16h07.01.566,face trait task,2021.2.3,Win32,60.60606061,120798,,,,,,,
,,,,,,2.815845955,2.4688,space,0.3231,0,36,36,21,1,22,image/22.jpg,0,0,,R_7dZ8IU3hLSkW652,2,2024-05-23_16h07.01.566,face trait task,2021.2.3,Win32,60.60606061,120798,,,,,,,
,,,,,,5.000000131,2.3492,space,0.3182,0,37,37,12,1,13,image/13.jpg,0,0,,R_7dZ8IU3hLSkW652,2,2024-05-23_16h07.01.566,face trait task,2021.2.3,Win32,60.60606061,120798,,,,,,,
,,,,,,2.233404711,1.9518,space,0.5385,0,38,38,27,1,28,image/28.jpg,0,0,,R_7dZ8IU3hLSkW652,2,2024-05-23_16h07.01.566,face trait task,2021.2.3,Win32,60.60606061,120798,,,,,,,
,,,,,,5.419700214,3.0731,space,0.3383,0,39,39,48,1,49,image/49.jpg,0,0,,R_7dZ8IU3hLSkW652,2,2024-05-23_16h07.01.566,face trait task,2021.2.3,Win32,60.60606061,120798,,,,,,,
,,,,,,2.99143469,1.991,space,0.2668,0,40,40,40,1,41,image/41.jpg,0,0,,R_7dZ8IU3hLSkW652,2,2024-05-23_16h07.01.566,face trait task,2021.2.3,Win32,60.60606061,120798,,,,,,,
,,,,,,1.993576148,2.3169,space,0.2703,0,41,41,10,1,11,image/11.jpg,0,0,,R_7dZ8IU3hLSkW652,2,2024-05-23_16h07.01.566,face trait task,2021.2.3,Win32,60.60606061,120798,,,,,,,
,,,,,,5.492505615,3.6255,space,0.2681,0,42,42,20,1,21,image/21.jpg,0,0,,R_7dZ8IU3hLSkW652,2,2024-05-23_16h07.01.566,face trait task,2021.2.3,Win32,60.60606061,120798,,,,,,,
,,,,,,4.400428527,3.9442,space,0.7007,0,43,43,22,1,23,image/23.jpg,0,0,,R_7dZ8IU3hLSkW652,2,2024-05-23_16h07.01.566,face trait task,2021.2.3,Win32,60.60606061,120798,,,,,,,
,,,,,,4.516060219,3.1216,space,0.3164,0,44,44,32,1,33,image/33.jpg,0,0,,R_7dZ8IU3hLSkW652,2,2024-05-23_16h07.01.566,face trait task,2021.2.3,Win32,60.60606061,120798,,,,,,,
,,,,,,2.871520604,2.0196,space,0.3519,0,45,45,36,1,37,image/37.jpg,0,0,,R_7dZ8IU3hLSkW652,2,2024-05-23_16h07.01.566,face trait task,2021.2.3,Win32,60.60606061,120798,,,,,,,
,,,,,,2.3875803,2.1355,space,0.3231,0,46,46,16,1,17,image/17.jpg,0,0,,R_7dZ8IU3hLSkW652,2,2024-05-23_16h07.01.566,face trait task,2021.2.3,Win32,60.60606061,120798,,,,,,,
,,,,,,6.918629812,2.0023,space,0.5851,0,47,47,51,1,58,image/fill_img.png,1,7,Please move the slider all the way to the RIGHT to show that you are paying attention.,R_7dZ8IU3hLSkW652,2,2024-05-23_16h07.01.566,face trait task,2021.2.3,Win32,60.60606061,120798,,,,,,,
,,,,,,3.967880086,2.7701,space,0.3022,0,48,48,35,1,36,image/36.jpg,0,0,,R_7dZ8IU3hLSkW652,2,2024-05-23_16h07.01.566,face trait task,2021.2.3,Win32,60.60606061,120798,,,,,,,
,,,,,,4.211991435,6.8015,space,0.37,0,49,49,7,1,8,image/8.jpg,0,0,,R_7dZ8IU3hLSkW652,2,2024-05-23_16h07.01.566,face trait task,2021.2.3,Win32,60.60606061,120798,,,,,,,
,,,,,,3.693790411,2.5091,space,0.8826,0,50,50,41,1,42,image/42.jpg,0,0,,R_7dZ8IU3hLSkW652,2,2024-05-23_16h07.01.566,face trait task,2021.2.3,Win32,60.60606061,120798,,,,,,,
,,,,,,4.494646681,2.0178,space,0.7955,0,51,51,43,1,44,image/44.jpg,0,0,,R_7dZ8IU3hLSkW652,2,2024-05-23_16h07.01.566,face trait task,2021.2.3,Win32,60.60606061,120798,,,,,,,
,,,,,,6.905781846,2.1474,space,0.3583,0,52,52,52,1,59,image/fill_img.png,1,7,Please move the slider all the way to the RIGHT to show that you are paying attention.,R_7dZ8IU3hLSkW652,2,2024-05-23_16h07.01.566,face trait task,2021.2.3,Win32,60.60606061,120798,,,,,,,
,,,,,,,,,,,,,,,,,,,,R_7dZ8IU3hLSkW652,2,2024-05-23_16h07.01.566,face trait task,2021.2.3,Win32,60.60606061,120798,0,1,1,3,1,3,friendly.png
,,,,,trustworthy,3.976445658,5.173,space,0.9057,0,0,0,2,1,3,image/3.jpg,0,0,,R_7dZ8IU3hLSkW652,2,2024-05-23_16h07.01.566,face trait task,2021.2.3,Win32,60.60606061,120798,,,,,,,
,,,,,,3.021413407,2.1281,space,0.2751,0,1,1,0,1,1,image/1.jpg,0,0,,R_7dZ8IU3hLSkW652,2,2024-05-23_16h07.01.566,face trait task,2021.2.3,Win32,60.60606061,120798,,,,,,,
,,,,,,6.961456103,2.2212,space,0.2933,0,2,2,50,1,59,image/fill_img.png,1,7,Please move the slider all the way to the RIGHT to show that you are paying attention.,R_7dZ8IU3hLSkW652,2,2024-05-23_16h07.01.566,face trait task,2021.2.3,Win32,60.60606061,120798,,,,,,,
,,,,,,4.45182039,5.6669,space,0.4683,0,3,3,25,1,26,image/26.jpg,0,0,,R_7dZ8IU3hLSkW652,2,2024-05-23_16h07.01.566,face trait task,2021.2.3,Win32,60.60606061,120798,,,,,,,
,,,,,,2.880085784,1.6871,space,0.271,0,4,4,10,1,11,image/11.jpg,0,0,,R_7dZ8IU3hLSkW652,2,2024-05-23_16h07.01.566,face trait task,2021.2.3,Win32,60.60606061,120798,,,,,,,
,,,,,,1.642398287,1.8366,space,0.9026,0,5,5,44,1,45,image/45.jpg,0,0,,R_7dZ8IU3hLSkW652,2,2024-05-23_16h07.01.566,face trait task,2021.2.3,Win32,60.60606061,120798,,,,,,,
,,,,,,1.625267731,1.18,space,0.4058,0,6,6,43,1,44,image/44.jpg,0,0,,R_7dZ8IU3hLSkW652,2,2024-05-23_16h07.01.566,face trait task,2021.2.3,Win32,60.60606061,120798,,,,,,,
,,,,,,1.021413342,1.8417,space,0.3576,0,7,7,45,1,46,image/46.jpg,0,0,,R_7dZ8IU3hLSkW652,2,2024-05-23_16h07.01.566,face trait task,2021.2.3,Win32,60.60606061,120798,,,,,,,
,,,,,,1.980728182,1.9376,space,0.2699,0,8,8,42,1,43,image/43.jpg,0,0,,R_7dZ8IU3hLSkW652,2,2024-05-23_16h07.01.566,face trait task,2021.2.3,Win32,60.60606061,120798,,,,,,,
,,,,,,6.032120176,1.808,space,0.3133,0,9,9,3,1,4,image/4.jpg,0,0,,R_7dZ8IU3hLSkW652,2,2024-05-23_16h07.01.566,face trait task,2021.2.3,Win32,60.60606061,120798,,,,,,,
,,,,,,2.965738758,6.4925,space,2.5269,0,10,10,19,1,20,image/20.jpg,0,0,,R_7dZ8IU3hLSkW652,2,2024-05-23_16h07.01.566,face trait task,2021.2.3,Win32,60.60606061,120798,,,,,,,
,,,,,,3.997858803,2.6231,space,0.2989,0,11,11,23,1,24,image/24.jpg,0,0,,R_7dZ8IU3hLSkW652,2,2024-05-23_16h07.01.566,face trait task,2021.2.3,Win32,60.60606061,120798,,,,,,,
,,,,,,1.993576148,3.3425,space,0.2588,0,12,12,30,1,31,image/31.jpg,0,0,,R_7dZ8IU3hLSkW652,2,2024-05-23_16h07.01.566,face trait task,2021.2.3,Win32,60.60606061,120798,,,,,,,
,,,,,,5.993576279,2.4403,space,0.8584,0,13,13,32,1,33,image/33.jpg,0,0,,R_7dZ8IU3hLSkW652,2,2024-05-23_16h07.01.566,face trait task,2021.2.3,Win32,60.60606061,120798,,,,,,,
,,,,,,4.070663812,2.3785,space,0.2838,0,14,14,26,1,27,image/27.jpg,0,0,,R_7dZ8IU3hLSkW652,2,2024-05-23_16h07.01.566,face trait task,2021.2.3,Win32,60.60606061,120798,,,,,,,
,,,,,,5.064239959,1.941,space,0.4027,0,15,15,17,1,18,image/18.jpg,0,0,,R_7dZ8IU3hLSkW652,2,2024-05-23_16h07.01.566,face trait task,2021.2.3,Win32,60.60606061,120798,,,,,,,
,,,,,,3.680942446,2.1229,space,0.2738,0,16,16,33,1,34,image/34.jpg,0,0,,R_7dZ8IU3hLSkW652,2,2024-05-23_16h07.01.566,face trait task,2021.2.3,Win32,60.60606061,120798,,,,,,,
,,,,,,2.914346895,2.0074,space,0.3795,0,17,17,29,1,30,image/30.jpg,0,0,,R_7dZ8IU3hLSkW652,2,2024-05-23_16h07.01.566,face trait task,2021.2.3,Win32,60.60606061,120798,,,,,,,
,,,,,,4.413276493,2.1936,space,0.3053,0,18,18,34,1,35,image/35.jpg,0,0,,R_7dZ8IU3hLSkW652,2,2024-05-23_16h07.01.566,face trait task,2021.2.3,Win32,60.60606061,120798,,,,,,,
,,,,,,1.659529039,1.7389,space,0.2374,0,19,19,38,1,39,image/39.jpg,0,0,,R_7dZ8IU3hLSkW652,2,2024-05-23_16h07.01.566,face trait task,2021.2.3,Win32,60.60606061,120798,,,,,,,
,,,,,,1.933618909,1.4147,space,0.1868,0,20,20,28,1,29,image/29.jpg,0,0,,R_7dZ8IU3hLSkW652,2,2024-05-23_16h07.01.566,face trait task,2021.2.3,Win32,60.60606061,120798,,,,,,,
,,,,,,2.237687497,6.4411,space,0.2855,0,21,21,21,1,22,image/22.jpg,0,0,,R_7dZ8IU3hLSkW652,2,2024-05-23_16h07.01.566,face trait task,2021.2.3,Win32,60.60606061,120798,,,,,,,
,,,,,,2.802997989,3.2911,space,1.2725,0,22,22,39,1,40,image/40.jpg,0,0,,R_7dZ8IU3hLSkW652,2,2024-05-23_16h07.01.566,face trait task,2021.2.3,Win32,60.60606061,120798,,,,,,,
,,,,,,3.66809448,4.8387,space,1.5834,0,23,23,18,1,19,image/19.jpg,0,0,,R_7dZ8IU3hLSkW652,2,2024-05-23_16h07.01.566,face trait task,2021.2.3,Win32,60.60606061,120798,,,,,,,
,,,,,,5.038544028,2.4271,space,0.372,0,24,24,11,1,12,image/12.jpg,0,0,,R_7dZ8IU3hLSkW652,2,2024-05-23_16h07.01.566,face trait task,2021.2.3,Win32,60.60606061,120798,,,,,,,
,,,,,,3.008565441,2.874,space,0.4491,0,25,25,27,1,28,image/28.jpg,0,0,,R_7dZ8IU3hLSkW652,2,2024-05-23_16h07.01.566,face trait task,2021.2.3,Win32,60.60606061,120798,,,,,,,
,,,,,,4.974304199,2.0917,space,0.4392,0,26,26,1,1,2,image/2.jpg,0,0,,R_7dZ8IU3hLSkW652,2,2024-05-23_16h07.01.566,face trait task,2021.2.3,Win32,60.60606061,120798,,,,,,,
,,,,,,1.612419766,2.4596,space,0.9108,0,27,27,8,1,9,image/9.jpg,0,0,,R_7dZ8IU3hLSkW652,2,2024-05-23_16h07.01.566,face trait task,2021.2.3,Win32,60.60606061,120798,,,,,,,
,,,,,,5.792291221,2.5062,space,0.2683,0,28,28,7,1,8,image/8.jpg,0,0,,R_7dZ8IU3hLSkW652,2,2024-05-23_16h07.01.566,face trait task,2021.2.3,Win32,60.60606061,120798,,,,,,,
,,,,,,2.481798846,2.2854,space,0.4181,0,29,29,14,1,15,image/15.jpg,0,0,,R_7dZ8IU3hLSkW652,2,2024-05-23_16h07.01.566,face trait task,2021.2.3,Win32,60.60606061,120798,,,,,,,
,,,,,,3.993576017,6.3948,space,3.3712,0,30,30,24,1,25,image/25.jpg,0,0,,R_7dZ8IU3hLSkW652,2,2024-05-23_16h07.01.566,face trait task,2021.2.3,Win32,60.60606061,120798,,,,,,,
,,,,,,5.916488484,2.0853,space,0.5034,0,31,31,12,1,13,image/13.jpg,0,0,,R_7dZ8IU3hLSkW652,2,2024-05-23_16h07.01.566,face trait task,2021.2.3,Win32,60.60606061,120798,,,,,,,
,,,,,,6.944325743,2.1762,space,0.3067,0,32,32,51,1,58,image/fill_img.png,1,7,Please move the slider all the way to the RIGHT to show that you are paying attention.,R_7dZ8IU3hLSkW652,2,2024-05-23_16h07.01.566,face trait task,2021.2.3,Win32,60.60606061,120798,,,,,,,
,,,,,,6.383297645,1.9145,space,0.371,0,33,33,4,1,5,image/5.jpg,0,0,,R_7dZ8IU3hLSkW652,2,2024-05-23_16h07.01.566,face trait task,2021.2.3,Win32,60.60606061,120798,,,,,,,
,,,,,,2.802997989,3.2697,space,0.2313,0,34,34,22,1,23,image/23.jpg,0,0,,R_7dZ8IU3hLSkW652,2,2024-05-23_16h07.01.566,face trait task,2021.2.3,Win32,60.60606061,120798,,,,,,,
,,,,,,3.989293623,2.3439,space,0.4126,0,35,35,15,1,16,image/16.jpg,0,0,,R_7dZ8IU3hLSkW652,2,2024-05-23_16h07.01.566,face trait task,2021.2.3,Win32,60.60606061,120798,,,,,,,
,,,,,,3.008565441,2.1754,space,0.2702,0,36,36,16,1,17,image/17.jpg,0,0,,R_7dZ8IU3hLSkW652,2,2024-05-23_16h07.01.566,face trait task,2021.2.3,Win32,60.60606061,120798,,,,,,,
,,,,,,4.353319058,3.2126,space,0.2949,0,37,37,31,1,32,image/32.jpg,0,0,,R_7dZ8IU3hLSkW652,2,2024-05-23_16h07.01.566,face trait task,2021.2.3,Win32,60.60606061,120798,,,,,,,
,,,,,,4.353319058,2.4155,space,0.3531,0,38,38,35,1,36,image/36.jpg,0,0,,R_7dZ8IU3hLSkW652,2,2024-05-23_16h07.01.566,face trait task,2021.2.3,Win32,60.60606061,120798,,,,,,,
,,,,,,5.167023685,2.2626,space,0.3665,0,39,39,6,1,7,image/7.jpg,0,0,,R_7dZ8IU3hLSkW652,2,2024-05-23_16h07.01.566,face trait task,2021.2.3,Win32,60.60606061,120798,,,,,,,
,,,,,,2.978586724,3.5282,space,0.3558,0,40,40,49,1,50,image/50.jpg,0,0,,R_7dZ8IU3hLSkW652,2,2024-05-23_16h07.01.566,face trait task,2021.2.3,Win32,60.60606061,120798,,,,,,,
,,,,,,3.94646694,2.8089,space,0.3008,0,41,41,5,1,6,image/6.jpg,0,0,,R_7dZ8IU3hLSkW652,2,2024-05-23_16h07.01.566,face trait task,2021.2.3,Win32,60.60606061,120798,,,,,,,
,,,,,,4.498929467,3.0416,space,0.7497,0,42,42,9,1,10,image/10.jpg,0,0,,R_7dZ8IU3hLSkW652,2,2024-05-23_16h07.01.566,face trait task,2021.2.3,Win32,60.60606061,120798,,,,,,,
,,,,,,1.890792422,2.2969,space,0.4428,0,43,43,46,1,47,image/47.jpg,0,0,,R_7dZ8IU3hLSkW652,2,2024-05-23_16h07.01.566,face trait task,2021.2.3,Win32,60.60606061,120798,,,,,,,
,,,,,,1.659529039,2.581,space,0.3349,0,44,44,47,1,48,image/48.jpg,0,0,,R_7dZ8IU3hLSkW652,2,2024-05-23_16h07.01.566,face trait task,2021.2.3,Win32,60.60606061,120798,,,,,,,
,,,,,,6.940043349,2.2362,space,0.3832,0,45,45,52,1,59,image/fill_img.png,1,7,Please move the slider all the way to the RIGHT to show that you are paying attention.,R_7dZ8IU3hLSkW652,2,2024-05-23_16h07.01.566,face trait task,2021.2.3,Win32,60.60606061,120798,,,,,,,
,,,,,,2.961456364,3.0127,space,0.4382,0,46,46,48,1,49,image/49.jpg,0,0,,R_7dZ8IU3hLSkW652,2,2024-05-23_16h07.01.566,face trait task,2021.2.3,Win32,60.60606061,120798,,,,,,,
,,,,,,1.004282786,3.333,space,1.0296,0,47,47,40,1,41,image/41.jpg,0,0,,R_7dZ8IU3hLSkW652,2,2024-05-23_16h07.01.566,face trait task,2021.2.3,Win32,60.60606061,120798,,,,,,,
,,,,,,2.182012848,2.2453,space,0.2627,0,48,48,37,1,38,image/38.jpg,0,0,,R_7dZ8IU3hLSkW652,2,2024-05-23_16h07.01.566,face trait task,2021.2.3,Win32,60.60606061,120798,,,,,,,
,,,,,,3.719486343,1.9054,space,0.406,0,49,49,13,1,14,image/14.jpg,0,0,,R_7dZ8IU3hLSkW652,2,2024-05-23_16h07.01.566,face trait task,2021.2.3,Win32,60.60606061,120798,,,,,,,
,,,,,,2.413276231,1.7898,space,0.3493,0,50,50,36,1,37,image/37.jpg,0,0,,R_7dZ8IU3hLSkW652,2,2024-05-23_16h07.01.566,face trait task,2021.2.3,Win32,60.60606061,120798,,,,,,,
,,,,,,6.374732857,2.8602,space,0.471,0,51,51,20,1,21,image/21.jpg,0,0,,R_7dZ8IU3hLSkW652,2,2024-05-23_16h07.01.566,face trait task,2021.2.3,Win32,60.60606061,120798,,,,,,,
,,,,,,3.702355591,3.8372,space,0.4396,0,52,52,41,1,42,image/42.jpg,0,0,,R_7dZ8IU3hLSkW652,2,2024-05-23_16h07.01.566,face trait task,2021.2.3,Win32,60.60606061,120798,,,,,,,
,,,,,,,,,,,,,,,,,,,,R_7dZ8IU3hLSkW652,2,2024-05-23_16h07.01.566,face trait task,2021.2.3,Win32,60.60606061,120798,0,2,2,2,1,2,trustworthy.png
,,,,,competent,1.985010772,4.5359,space,0.2419,0,0,0,47,1,48,image/48.jpg,0,0,,R_7dZ8IU3hLSkW652,2,2024-05-23_16h07.01.566,face trait task,2021.2.3,Win32,60.60606061,120798,,,,,,,
,,,,,,5.933618844,2.0292,space,0.4643,0,1,1,32,1,33,image/33.jpg,0,0,,R_7dZ8IU3hLSkW652,2,2024-05-23_16h07.01.566,face trait task,2021.2.3,Win32,60.60606061,120798,,,,,,,
,,,,,,2.216274155,1.7306,space,0.2198,0,2,2,49,1,50,image/50.jpg,0,0,,R_7dZ8IU3hLSkW652,2,2024-05-23_16h07.01.566,face trait task,2021.2.3,Win32,60.60606061,120798,,,,,,,
,,,,,,6.006424244,3.7167,space,2.531,0,3,3,22,1,23,image/23.jpg,0,0,,R_7dZ8IU3hLSkW652,2,2024-05-23_16h07.01.566,face trait task,2021.2.3,Win32,60.60606061,120798,,,,,,,
,,,,,,4.216274221,2.5736,space,0.4375,0,4,4,33,1,34,image/34.jpg,0,0,,R_7dZ8IU3hLSkW652,2,2024-05-23_16h07.01.566,face trait task,2021.2.3,Win32,60.60606061,120798,,,,,,,
,,,,,,4.006423983,1.9494,space,0.2079,0,5,5,48,1,49,image/49.jpg,0,0,,R_7dZ8IU3hLSkW652,2,2024-05-23_16h07.01.566,face trait task,2021.2.3,Win32,60.60606061,120798,,,,,,,
,,,,,,5.068522745,3.4166,space,0.3138,0,6,6,24,1,25,image/25.jpg,0,0,,R_7dZ8IU3hLSkW652,2,2024-05-23_16h07.01.566,face trait task,2021.2.3,Win32,60.60606061,120798,,,,,,,
,,,,,,6.965739281,3.1873,space,0.3317,0,7,7,20,1,21,image/21.jpg,0,0,,R_7dZ8IU3hLSkW652,2,2024-05-23_16h07.01.566,face trait task,2021.2.3,Win32,60.60606061,120798,,,,,,,
,,,,,,6.00214185,2.2578,space,0.5109,0,8,8,16,1,17,image/17.jpg,0,0,,R_7dZ8IU3hLSkW652,2,2024-05-23_16h07.01.566,face trait task,2021.2.3,Win32,60.60606061,120798,,,,,,,
,,,,,,6.974304069,2.6014,space,0.3037,0,9,9,50,1,59,image/fill_img.png,1,7,Please move the slider all the way to the RIGHT to show that you are paying attention.,R_7dZ8IU3hLSkW652,2,2024-05-23_16h07.01.566,face trait task,2021.2.3,Win32,60.60606061,120798,,,,,,,
,,,,,,3.531049251,3.7718,space,0.5168,0,10,10,14,1,15,image/15.jpg,0,0,,R_7dZ8IU3hLSkW652,2,2024-05-23_16h07.01.566,face trait task,2021.2.3,Win32,60.60606061,120798,,,,,,,
,,,,,,4.477516321,2.5278,space,0.3351,0,11,11,39,1,40,image/40.jpg,0,0,,R_7dZ8IU3hLSkW652,2,2024-05-23_16h07.01.566,face trait task,2021.2.3,Win32,60.60606061,120798,,,,,,,
,,,,,,5.980728313,2.0526,space,0.2861,0,12,12,6,1,7,image/7.jpg,0,0,,R_7dZ8IU3hLSkW652,2,2024-05-23_16h07.01.566,face trait task,2021.2.3,Win32,60.60606061,120798,,,,,,,
,,,,,,5.997858672,1.6696,space,0.3607,0,13,13,7,1,8,image/8.jpg,0,0,,R_7dZ8IU3hLSkW652,2,2024-05-23_16h07.01.566,face trait task,2021.2.3,Win32,60.60606061,120798,,,,,,,
,,,,,,5.406852248,2.758,space,0.3575,0,14,14,45,1,46,image/46.jpg,0,0,,R_7dZ8IU3hLSkW652,2,2024-05-23_16h07.01.566,face trait task,2021.2.3,Win32,60.60606061,120798,,,,,,,
,,,,,,5.05567478,2.9161,space,0.7083,0,15,15,29,1,30,image/30.jpg,0,0,,R_7dZ8IU3hLSkW652,2,2024-05-23_16h07.01.566,face trait task,2021.2.3,Win32,60.60606061,120798,,,,,,,
,,,,,,6.914347418,5.0159,space,0.5712,0,16,16,51,1,58,image/fill_img.png,1,7,Please move the slider all the way to the RIGHT to show that you are paying attention.,R_7dZ8IU3hLSkW652,2,2024-05-23_16h07.01.566,face trait task,2021.2.3,Win32,60.60606061,120798,,,,,,,
,,,,,,6.503212514,3.3889,space,0.2378,0,17,17,1,1,2,image/2.jpg,0,0,,R_7dZ8IU3hLSkW652,2,2024-05-23_16h07.01.566,face trait task,2021.2.3,Win32,60.60606061,120798,,,,,,,
,,,,,,3.488222959,16.0181,space,3.7897,0,18,18,9,1,10,image/10.jpg,0,0,,R_7dZ8IU3hLSkW652,2,2024-05-23_16h07.01.566,face trait task,2021.2.3,Win32,60.60606061,120798,,,,,,,
,,,,,,6.601713062,2.9716,space,0.452,0,19,19,11,1,12,image/12.jpg,0,0,,R_7dZ8IU3hLSkW652,2,2024-05-23_16h07.01.566,face trait task,2021.2.3,Win32,60.60606061,120798,,,,,,,
,,,,,,1.989293362,2.3708,space,0.1673,0,20,20,38,1,39,image/39.jpg,0,0,,R_7dZ8IU3hLSkW652,2,2024-05-23_16h07.01.566,face trait task,2021.2.3,Win32,60.60606061,120798,,,,,,,
,,,,,,6.978587247,1.9912,space,0.2569,0,21,21,52,1,59,image/fill_img.png,1,7,Please move the slider all the way to the RIGHT to show that you are paying attention.,R_7dZ8IU3hLSkW652,2,2024-05-23_16h07.01.566,face trait task,2021.2.3,Win32,60.60606061,120798,,,,,,,
,,,,,,4.734475636,3.6013,space,0.2028,0,22,22,23,1,24,image/24.jpg,0,0,,R_7dZ8IU3hLSkW652,2,2024-05-23_16h07.01.566,face trait task,2021.2.3,Win32,60.60606061,120798,,,,,,,
,,,,,,1.96359743,2.141,space,0.6307,0,23,23,37,1,38,image/38.jpg,0,0,,R_7dZ8IU3hLSkW652,2,2024-05-23_16h07.01.566,face trait task,2021.2.3,Win32,60.60606061,120798,,,,,,,
,,,,,,5.32548206,3.8583,space,0.5456,0,24,24,10,1,11,image/11.jpg,0,0,,R_7dZ8IU3hLSkW652,2,2024-05-23_16h07.01.566,face trait task,2021.2.3,Win32,60.60606061,120798,,,,,,,
,,,,,,4.36188463,4.2349,space,2.8116,0,25,25,2,1,3,image/3.jpg,0,0,,R_7dZ8IU3hLSkW652,2,2024-05-23_16h07.01.566,face trait task,2021.2.3,Win32,60.60606061,120798,,,,,,,
,,,,,,4.845824542,2.4861,space,0.3678,0,26,26,34,1,35,image/35.jpg,0,0,,R_7dZ8IU3hLSkW652,2,2024-05-23_16h07.01.566,face trait task,2021.2.3,Win32,60.60606061,120798,,,,,,,
,,,,,,5.543897478,2.0648,space,0.534,0,27,27,46,1,47,image/47.jpg,0,0,,R_7dZ8IU3hLSkW652,2,2024-05-23_16h07.01.566,face trait task,2021.2.3,Win32,60.60606061,120798,,,,,,,
,,,,,,5.492505615,4.3286,space,1.4358,0,28,28,21,1,22,image/22.jpg,0,0,,R_7dZ8IU3hLSkW652,2,2024-05-23_16h07.01.566,face trait task,2021.2.3,Win32,60.60606061,120798,,,,,,,
,,,,,,6.473233405,1.8582,space,0.2515,0,29,29,18,1,19,image/19.jpg,0,0,,R_7dZ8IU3hLSkW652,2,2024-05-23_16h07.01.566,face trait task,2021.2.3,Win32,60.60606061,120798,,,,,,,
,,,,,,5.805139186,3.0501,space,0.3367,0,30,30,43,1,44,image/44.jpg,0,0,,R_7dZ8IU3hLSkW652,2,2024-05-23_16h07.01.566,face trait task,2021.2.3,Win32,60.60606061,120798,,,,,,,
,,,,,,5.453961717,3.7542,space,0.3492,0,31,31,17,1,18,image/18.jpg,0,0,,R_7dZ8IU3hLSkW652,2,2024-05-23_16h07.01.566,face trait task,2021.2.3,Win32,60.60606061,120798,,,,,,,
,,,,,,1.937901499,2.2137,space,0.2876,0,32,32,28,1,29,image/29.jpg,0,0,,R_7dZ8IU3hLSkW652,2,2024-05-23_16h07.01.566,face trait task,2021.2.3,Win32,60.60606061,120798,,,,,,,
,,,,,,5.368308351,3.2364,space,1.7953,0,33,33,41,1,42,image/42.jpg,0,0,,R_7dZ8IU3hLSkW652,2,2024-05-23_16h07.01.566,face trait task,2021.2.3,Win32,60.60606061,120798,,,,,,,
,,,,,,6.554604377,1.7015,space,0.4868,0,34,34,31,1,32,image/32.jpg,0,0,,R_7dZ8IU3hLSkW652,2,2024-05-23_16h07.01.566,face trait task,2021.2.3,Win32,60.60606061,120798,,,,,,,
,,,,,,4.970021413,2.7818,space,0.2625,0,35,35,44,1,45,image/45.jpg,0,0,,R_7dZ8IU3hLSkW652,2,2024-05-23_16h07.01.566,face trait task,2021.2.3,Win32,60.60606061,120798,,,,,,,
,,,,,,1.929336319,2.5481,space,0.5028,0,36,36,0,1,1,image/1.jpg,0,0,,R_7dZ8IU3hLSkW652,2,2024-05-23_16h07.01.566,face trait task,2021.2.3,Win32,60.60606061,120798,,,,,,,
,,,,,,4.952891054,5.1564,space,1.6447,0,37,37,35,1,36,image/36.jpg,0,0,,R_7dZ8IU3hLSkW652,2,2024-05-23_16h07.01.566,face trait task,2021.2.3,Win32,60.60606061,120798,,,,,,,
,,,,,,1.265524691,2.2601,space,0.4219,0,38,38,36,1,37,image/37.jpg,0,0,,R_7dZ8IU3hLSkW652,2,2024-05-23_16h07.01.566,face trait task,2021.2.3,Win32,60.60606061,120798,,,,,,,
,,,,,,6.798715726,2.3518,space,0.4054,0,39,39,19,1,20,image/20.jpg,0,0,,R_7dZ8IU3hLSkW652,2,2024-05-23_16h07.01.566,face trait task,2021.2.3,Win32,60.60606061,120798,,,,,,,
,,,,,,5.959314775,2.3746,space,1.3023,0,40,40,13,1,14,image/14.jpg,0,0,,R_7dZ8IU3hLSkW652,2,2024-05-23_16h07.01.566,face trait task,2021.2.3,Win32,60.60606061,120798,,,,,,,
,,,,,,6.032120176,27.0871,space,0.2888,0,41,41,12,1,13,image/13.jpg,0,0,,R_7dZ8IU3hLSkW652,2,2024-05-23_16h07.01.566,face trait task,2021.2.3,Win32,60.60606061,120798,,,,,,,
,,,,,,6.023554604,2.4366,space,0.2563,0,42,42,5,1,6,image/6.jpg,0,0,,R_7dZ8IU3hLSkW652,2,2024-05-23_16h07.01.566,face trait task,2021.2.3,Win32,60.60606061,120798,,,,,,,
,,,,,,6.897216274,2.0507,space,0.4639,0,43,43,4,1,5,image/5.jpg,0,0,,R_7dZ8IU3hLSkW652,2,2024-05-23_16h07.01.566,face trait task,2021.2.3,Win32,60.60606061,120798,,,,,,,
,,,,,,1.972162806,6.5213,space,2.3322,0,44,44,30,1,31,image/31.jpg,0,0,,R_7dZ8IU3hLSkW652,2,2024-05-23_16h07.01.566,face trait task,2021.2.3,Win32,60.60606061,120798,,,,,,,
,,,,,,6.867237949,2.105,space,0.2711,0,45,45,3,1,4,image/4.jpg,0,0,,R_7dZ8IU3hLSkW652,2,2024-05-23_16h07.01.566,face trait task,2021.2.3,Win32,60.60606061,120798,,,,,,,
,,,,,,4.991434951,1.7399,space,0.2511,0,46,46,25,1,26,image/26.jpg,0,0,,R_7dZ8IU3hLSkW652,2,2024-05-23_16h07.01.566,face trait task,2021.2.3,Win32,60.60606061,120798,,,,,,,
,,,,,,4.507494647,2.9761,space,0.2506,0,47,47,26,1,27,image/27.jpg,0,0,,R_7dZ8IU3hLSkW652,2,2024-05-23_16h07.01.566,face trait task,2021.2.3,Win32,60.60606061,120798,,,,,,,
,,,,,,5.509635974,2.1336,space,0.2463,0,48,48,8,1,9,image/9.jpg,0,0,,R_7dZ8IU3hLSkW652,2,2024-05-23_16h07.01.566,face trait task,2021.2.3,Win32,60.60606061,120798,,,,,,,
,,,,,,6.010706638,2.1954,space,0.2327,0,49,49,27,1,28,image/28.jpg,0,0,,R_7dZ8IU3hLSkW652,2,2024-05-23_16h07.01.566,face trait task,2021.2.3,Win32,60.60606061,120798,,,,,,,
,,,,,,1.017130752,3.1839,space,0.3459,0,50,50,40,1,41,image/41.jpg,0,0,,R_7dZ8IU3hLSkW652,2,2024-05-23_16h07.01.566,face trait task,2021.2.3,Win32,60.60606061,120798,,,,,,,
,,,,,,2.905781715,2.2214,space,0.5487,0,51,51,15,1,16,image/16.jpg,0,0,,R_7dZ8IU3hLSkW652,2,2024-05-23_16h07.01.566,face trait task,2021.2.3,Win32,60.60606061,120798,,,,,,,
,,,,,,5.556745443,2.3537,space,0.2085,0,52,52,42,1,43,image/43.jpg,0,0,,R_7dZ8IU3hLSkW652,2,2024-05-23_16h07.01.566,face trait task,2021.2.3,Win32,60.60606061,120798,,,,,,,
,,,,,,,,,,,,,,,,,,,,R_7dZ8IU3hLSkW652,2,2024-05-23_16h07.01.566,face trait task,2021.2.3,Win32,60.60606061,120798,0,3,3,1,1,1,competent.png
