key_resp.keys,key_resp.rt,key_resp_4.keys,key_resp_4.rt,key_resp_2.keys,key_resp_2.rt,key_resp_3.keys,key_resp_3.rt,face_loop.thisRepN,face_loop.thisTrialN,face_loop.thisN,face_loop.thisIndex,face_loop.ran,face_serial,image_name,participant,session,date,expName,psychopyVersion,OS,frameRate,session.thisRepN,session.thisTrialN,session.thisN,session.thisIndex,session.ran,session_serial,slider_judge_img
space,25.717,space,65.755,space,2.0337,2,8.3393,0,0,0,48,1,49,image/49.jpg,R_7dS7fGcto4aBF0E,2,2024-04-01_20h39.36.389,face trait task,2021.2.3,Win32,60.24096386,,,,,,,
,,,,,,1,1.6166,0,1,1,23,1,24,image/24.jpg,R_7dS7fGcto4aBF0E,2,2024-04-01_20h39.36.389,face trait task,2021.2.3,Win32,60.24096386,,,,,,,
,,,,,,3,2.1335,0,2,2,35,1,36,image/36.jpg,R_7dS7fGcto4aBF0E,2,2024-04-01_20h39.36.389,face trait task,2021.2.3,Win32,60.24096386,,,,,,,
,,,,,,2,2.1773,0,3,3,42,1,43,image/43.jpg,R_7dS7fGcto4aBF0E,2,2024-04-01_20h39.36.389,face trait task,2021.2.3,Win32,60.24096386,,,,,,,
,,,,,,4,3.4567,0,4,4,11,1,12,image/12.jpg,R_7dS7fGcto4aBF0E,2,2024-04-01_20h39.36.389,face trait task,2021.2.3,Win32,60.24096386,,,,,,,
,,,,,,3,1.5376,0,5,5,9,1,10,image/10.jpg,R_7dS7fGcto4aBF0E,2,2024-04-01_20h39.36.389,face trait task,2021.2.3,Win32,60.24096386,,,,,,,
,,,,,,2,1.3938,0,6,6,37,1,38,image/38.jpg,R_7dS7fGcto4aBF0E,2,2024-04-01_20h39.36.389,face trait task,2021.2.3,Win32,60.24096386,,,,,,,
,,,,,,2,2.0909,0,7,7,16,1,17,image/17.jpg,R_7dS7fGcto4aBF0E,2,2024-04-01_20h39.36.389,face trait task,2021.2.3,Win32,60.24096386,,,,,,,
,,,,,,5,1.5335,0,8,8,45,1,46,image/46.jpg,R_7dS7fGcto4aBF0E,2,2024-04-01_20h39.36.389,face trait task,2021.2.3,Win32,60.24096386,,,,,,,
,,,,,,3,1.7877,0,9,9,30,1,31,image/31.jpg,R_7dS7fGcto4aBF0E,2,2024-04-01_20h39.36.389,face trait task,2021.2.3,Win32,60.24096386,,,,,,,
,,,,,,7,2.0198,0,10,10,27,1,28,image/28.jpg,R_7dS7fGcto4aBF0E,2,2024-04-01_20h39.36.389,face trait task,2021.2.3,Win32,60.24096386,,,,,,,
,,,,,,5,1.5807,0,11,11,28,1,29,image/29.jpg,R_7dS7fGcto4aBF0E,2,2024-04-01_20h39.36.389,face trait task,2021.2.3,Win32,60.24096386,,,,,,,
,,,,,,4,1.7849,0,12,12,1,1,2,image/2.jpg,R_7dS7fGcto4aBF0E,2,2024-04-01_20h39.36.389,face trait task,2021.2.3,Win32,60.24096386,,,,,,,
,,,,,,7,1.8917,0,13,13,39,1,40,image/40.jpg,R_7dS7fGcto4aBF0E,2,2024-04-01_20h39.36.389,face trait task,2021.2.3,Win32,60.24096386,,,,,,,
,,,,,,5,2.3387,0,14,14,17,1,18,image/18.jpg,R_7dS7fGcto4aBF0E,2,2024-04-01_20h39.36.389,face trait task,2021.2.3,Win32,60.24096386,,,,,,,
,,,,,,6,1.1339,0,15,15,49,1,50,image/50.jpg,R_7dS7fGcto4aBF0E,2,2024-04-01_20h39.36.389,face trait task,2021.2.3,Win32,60.24096386,,,,,,,
,,,,,,6,1.3678,0,16,16,40,1,41,image/41.jpg,R_7dS7fGcto4aBF0E,2,2024-04-01_20h39.36.389,face trait task,2021.2.3,Win32,60.24096386,,,,,,,
,,,,,,3,1.3798,0,17,17,21,1,22,image/22.jpg,R_7dS7fGcto4aBF0E,2,2024-04-01_20h39.36.389,face trait task,2021.2.3,Win32,60.24096386,,,,,,,
,,,,,,4,1.2027,0,18,18,34,1,35,image/35.jpg,R_7dS7fGcto4aBF0E,2,2024-04-01_20h39.36.389,face trait task,2021.2.3,Win32,60.24096386,,,,,,,
,,,,,,3,1.4747,0,19,19,36,1,37,image/37.jpg,R_7dS7fGcto4aBF0E,2,2024-04-01_20h39.36.389,face trait task,2021.2.3,Win32,60.24096386,,,,,,,
,,,,,,2,1.0246,0,20,20,0,1,1,image/1.jpg,R_7dS7fGcto4aBF0E,2,2024-04-01_20h39.36.389,face trait task,2021.2.3,Win32,60.24096386,,,,,,,
,,,,,,4,2.5948,0,21,21,6,1,7,image/7.jpg,R_7dS7fGcto4aBF0E,2,2024-04-01_20h39.36.389,face trait task,2021.2.3,Win32,60.24096386,,,,,,,
,,,,,,4,0.7066,0,22,22,38,1,39,image/39.jpg,R_7dS7fGcto4aBF0E,2,2024-04-01_20h39.36.389,face trait task,2021.2.3,Win32,60.24096386,,,,,,,
,,,,,,4,0.7595,0,23,23,2,1,3,image/3.jpg,R_7dS7fGcto4aBF0E,2,2024-04-01_20h39.36.389,face trait task,2021.2.3,Win32,60.24096386,,,,,,,
,,,,,,4,2.0993,0,24,24,43,1,44,image/44.jpg,R_7dS7fGcto4aBF0E,2,2024-04-01_20h39.36.389,face trait task,2021.2.3,Win32,60.24096386,,,,,,,
,,,,,,5,0.5385,0,25,25,10,1,11,image/11.jpg,R_7dS7fGcto4aBF0E,2,2024-04-01_20h39.36.389,face trait task,2021.2.3,Win32,60.24096386,,,,,,,
,,,,,,5,0.0315,0,26,26,31,1,32,image/32.jpg,R_7dS7fGcto4aBF0E,2,2024-04-01_20h39.36.389,face trait task,2021.2.3,Win32,60.24096386,,,,,,,
,,,,,,5,1.6483,0,27,27,46,1,47,image/47.jpg,R_7dS7fGcto4aBF0E,2,2024-04-01_20h39.36.389,face trait task,2021.2.3,Win32,60.24096386,,,,,,,
,,,,,,7,2.5539,0,28,28,5,1,6,image/6.jpg,R_7dS7fGcto4aBF0E,2,2024-04-01_20h39.36.389,face trait task,2021.2.3,Win32,60.24096386,,,,,,,
,,,,,,6,1.3683,0,29,29,8,1,9,image/9.jpg,R_7dS7fGcto4aBF0E,2,2024-04-01_20h39.36.389,face trait task,2021.2.3,Win32,60.24096386,,,,,,,
,,,,,,3,0.9411,0,30,30,14,1,15,image/15.jpg,R_7dS7fGcto4aBF0E,2,2024-04-01_20h39.36.389,face trait task,2021.2.3,Win32,60.24096386,,,,,,,
,,,,,,4,1.1584,0,31,31,26,1,27,image/27.jpg,R_7dS7fGcto4aBF0E,2,2024-04-01_20h39.36.389,face trait task,2021.2.3,Win32,60.24096386,,,,,,,
,,,,,,5,0.7748,0,32,32,22,1,23,image/23.jpg,R_7dS7fGcto4aBF0E,2,2024-04-01_20h39.36.389,face trait task,2021.2.3,Win32,60.24096386,,,,,,,
,,,,,,4,1.0059,0,33,33,7,1,8,image/8.jpg,R_7dS7fGcto4aBF0E,2,2024-04-01_20h39.36.389,face trait task,2021.2.3,Win32,60.24096386,,,,,,,
,,,,,,4,0.7342,0,34,34,33,1,34,image/34.jpg,R_7dS7fGcto4aBF0E,2,2024-04-01_20h39.36.389,face trait task,2021.2.3,Win32,60.24096386,,,,,,,
,,,,,,3,0.6881,0,35,35,44,1,45,image/45.jpg,R_7dS7fGcto4aBF0E,2,2024-04-01_20h39.36.389,face trait task,2021.2.3,Win32,60.24096386,,,,,,,
,,,,,,2,1.6663,0,36,36,18,1,19,image/19.jpg,R_7dS7fGcto4aBF0E,2,2024-04-01_20h39.36.389,face trait task,2021.2.3,Win32,60.24096386,,,,,,,
,,,,,,6,0.5978,0,37,37,15,1,16,image/16.jpg,R_7dS7fGcto4aBF0E,2,2024-04-01_20h39.36.389,face trait task,2021.2.3,Win32,60.24096386,,,,,,,
,,,,,,2,0.2474,0,38,38,41,1,42,image/42.jpg,R_7dS7fGcto4aBF0E,2,2024-04-01_20h39.36.389,face trait task,2021.2.3,Win32,60.24096386,,,,,,,
,,,,,,5,0.2755,0,39,39,24,1,25,image/25.jpg,R_7dS7fGcto4aBF0E,2,2024-04-01_20h39.36.389,face trait task,2021.2.3,Win32,60.24096386,,,,,,,
,,,,,,3,0.3794,0,40,40,47,1,48,image/48.jpg,R_7dS7fGcto4aBF0E,2,2024-04-01_20h39.36.389,face trait task,2021.2.3,Win32,60.24096386,,,,,,,
,,,,,,4,0.2134,0,41,41,25,1,26,image/26.jpg,R_7dS7fGcto4aBF0E,2,2024-04-01_20h39.36.389,face trait task,2021.2.3,Win32,60.24096386,,,,,,,
,,,,,,2,0.2904,0,42,42,20,1,21,image/21.jpg,R_7dS7fGcto4aBF0E,2,2024-04-01_20h39.36.389,face trait task,2021.2.3,Win32,60.24096386,,,,,,,
,,,,,,1,0.8375,0,43,43,3,1,4,image/4.jpg,R_7dS7fGcto4aBF0E,2,2024-04-01_20h39.36.389,face trait task,2021.2.3,Win32,60.24096386,,,,,,,
,,,,,,5,0.731,0,44,44,12,1,13,image/13.jpg,R_7dS7fGcto4aBF0E,2,2024-04-01_20h39.36.389,face trait task,2021.2.3,Win32,60.24096386,,,,,,,
,,,,,,4,1.2104,0,45,45,32,1,33,image/33.jpg,R_7dS7fGcto4aBF0E,2,2024-04-01_20h39.36.389,face trait task,2021.2.3,Win32,60.24096386,,,,,,,
,,,,,,3,5.6701,0,46,46,19,1,20,image/20.jpg,R_7dS7fGcto4aBF0E,2,2024-04-01_20h39.36.389,face trait task,2021.2.3,Win32,60.24096386,,,,,,,
,,,,,,5,2.119,0,47,47,29,1,30,image/30.jpg,R_7dS7fGcto4aBF0E,2,2024-04-01_20h39.36.389,face trait task,2021.2.3,Win32,60.24096386,,,,,,,
,,,,,,3,1.4386,0,48,48,13,1,14,image/14.jpg,R_7dS7fGcto4aBF0E,2,2024-04-01_20h39.36.389,face trait task,2021.2.3,Win32,60.24096386,,,,,,,
,,,,,,1,1.3023,0,49,49,4,1,5,image/5.jpg,R_7dS7fGcto4aBF0E,2,2024-04-01_20h39.36.389,face trait task,2021.2.3,Win32,60.24096386,,,,,,,
,,,,,,,,,,,,,,,R_7dS7fGcto4aBF0E,2,2024-04-01_20h39.36.389,face trait task,2021.2.3,Win32,60.24096386,0,0,0,1,1,1,competent.png
,,,,,,4,1.7281,0,0,0,6,1,7,image/7.jpg,R_7dS7fGcto4aBF0E,2,2024-04-01_20h39.36.389,face trait task,2021.2.3,Win32,60.24096386,,,,,,,
,,,,,,3,0.9236,0,1,1,28,1,29,image/29.jpg,R_7dS7fGcto4aBF0E,2,2024-04-01_20h39.36.389,face trait task,2021.2.3,Win32,60.24096386,,,,,,,
,,,,,,2,1.5315,0,2,2,19,1,20,image/20.jpg,R_7dS7fGcto4aBF0E,2,2024-04-01_20h39.36.389,face trait task,2021.2.3,Win32,60.24096386,,,,,,,
,,,,,,2,0.8585,0,3,3,40,1,41,image/41.jpg,R_7dS7fGcto4aBF0E,2,2024-04-01_20h39.36.389,face trait task,2021.2.3,Win32,60.24096386,,,,,,,
,,,,,,2,0.5266,0,4,4,38,1,39,image/39.jpg,R_7dS7fGcto4aBF0E,2,2024-04-01_20h39.36.389,face trait task,2021.2.3,Win32,60.24096386,,,,,,,
,,,,,,3,0.9311,0,5,5,33,1,34,image/34.jpg,R_7dS7fGcto4aBF0E,2,2024-04-01_20h39.36.389,face trait task,2021.2.3,Win32,60.24096386,,,,,,,
,,,,,,3,141.2662,0,6,6,34,1,35,image/35.jpg,R_7dS7fGcto4aBF0E,2,2024-04-01_20h39.36.389,face trait task,2021.2.3,Win32,60.24096386,,,,,,,
,,,,,,2,1.0596,0,7,7,36,1,37,image/37.jpg,R_7dS7fGcto4aBF0E,2,2024-04-01_20h39.36.389,face trait task,2021.2.3,Win32,60.24096386,,,,,,,
,,,,,,4,0.6584,0,8,8,25,1,26,image/26.jpg,R_7dS7fGcto4aBF0E,2,2024-04-01_20h39.36.389,face trait task,2021.2.3,Win32,60.24096386,,,,,,,
,,,,,,2,1.1769,0,9,9,8,1,9,image/9.jpg,R_7dS7fGcto4aBF0E,2,2024-04-01_20h39.36.389,face trait task,2021.2.3,Win32,60.24096386,,,,,,,
,,,,,,3,3.2695,0,10,10,0,1,1,image/1.jpg,R_7dS7fGcto4aBF0E,2,2024-04-01_20h39.36.389,face trait task,2021.2.3,Win32,60.24096386,,,,,,,
,,,,,,5,11.5092,0,11,11,13,1,14,image/14.jpg,R_7dS7fGcto4aBF0E,2,2024-04-01_20h39.36.389,face trait task,2021.2.3,Win32,60.24096386,,,,,,,
,,,,,,4,8.5939,0,12,12,24,1,25,image/25.jpg,R_7dS7fGcto4aBF0E,2,2024-04-01_20h39.36.389,face trait task,2021.2.3,Win32,60.24096386,,,,,,,
,,,,,,1,7.2581,0,13,13,15,1,16,image/16.jpg,R_7dS7fGcto4aBF0E,2,2024-04-01_20h39.36.389,face trait task,2021.2.3,Win32,60.24096386,,,,,,,
,,,,,,2,0.292,0,14,14,42,1,43,image/43.jpg,R_7dS7fGcto4aBF0E,2,2024-04-01_20h39.36.389,face trait task,2021.2.3,Win32,60.24096386,,,,,,,
,,,,,,3,0.3475,0,15,15,22,1,23,image/23.jpg,R_7dS7fGcto4aBF0E,2,2024-04-01_20h39.36.389,face trait task,2021.2.3,Win32,60.24096386,,,,,,,
,,,,,,2,0.2803,0,16,16,27,1,28,image/28.jpg,R_7dS7fGcto4aBF0E,2,2024-04-01_20h39.36.389,face trait task,2021.2.3,Win32,60.24096386,,,,,,,
,,,,,,4,0.2632,0,17,17,23,1,24,image/24.jpg,R_7dS7fGcto4aBF0E,2,2024-04-01_20h39.36.389,face trait task,2021.2.3,Win32,60.24096386,,,,,,,
,,,,,,2,0.2758,0,18,18,47,1,48,image/48.jpg,R_7dS7fGcto4aBF0E,2,2024-04-01_20h39.36.389,face trait task,2021.2.3,Win32,60.24096386,,,,,,,
,,,,,,3,0.2061,0,19,19,21,1,22,image/22.jpg,R_7dS7fGcto4aBF0E,2,2024-04-01_20h39.36.389,face trait task,2021.2.3,Win32,60.24096386,,,,,,,
,,,,,,1,0.2811,0,20,20,26,1,27,image/27.jpg,R_7dS7fGcto4aBF0E,2,2024-04-01_20h39.36.389,face trait task,2021.2.3,Win32,60.24096386,,,,,,,
,,,,,,4,0.6345,0,21,21,17,1,18,image/18.jpg,R_7dS7fGcto4aBF0E,2,2024-04-01_20h39.36.389,face trait task,2021.2.3,Win32,60.24096386,,,,,,,
,,,,,,3,0.4164,0,22,22,49,1,50,image/50.jpg,R_7dS7fGcto4aBF0E,2,2024-04-01_20h39.36.389,face trait task,2021.2.3,Win32,60.24096386,,,,,,,
,,,,,,2,0.3172,0,23,23,39,1,40,image/40.jpg,R_7dS7fGcto4aBF0E,2,2024-04-01_20h39.36.389,face trait task,2021.2.3,Win32,60.24096386,,,,,,,
,,,,,,3,8.8314,0,24,24,35,1,36,image/36.jpg,R_7dS7fGcto4aBF0E,2,2024-04-01_20h39.36.389,face trait task,2021.2.3,Win32,60.24096386,,,,,,,
,,,,,,2,0.2425,0,25,25,31,1,32,image/32.jpg,R_7dS7fGcto4aBF0E,2,2024-04-01_20h39.36.389,face trait task,2021.2.3,Win32,60.24096386,,,,,,,
,,,,,,2,0.1969,0,26,26,10,1,11,image/11.jpg,R_7dS7fGcto4aBF0E,2,2024-04-01_20h39.36.389,face trait task,2021.2.3,Win32,60.24096386,,,,,,,
,,,,,,2,1.0733,0,27,27,1,1,2,image/2.jpg,R_7dS7fGcto4aBF0E,2,2024-04-01_20h39.36.389,face trait task,2021.2.3,Win32,60.24096386,,,,,,,
,,,,,,3,1.3235,0,28,28,4,1,5,image/5.jpg,R_7dS7fGcto4aBF0E,2,2024-04-01_20h39.36.389,face trait task,2021.2.3,Win32,60.24096386,,,,,,,
,,,,,,2,1.3691,0,29,29,12,1,13,image/13.jpg,R_7dS7fGcto4aBF0E,2,2024-04-01_20h39.36.389,face trait task,2021.2.3,Win32,60.24096386,,,,,,,
,,,,,,3,1.8158,0,30,30,9,1,10,image/10.jpg,R_7dS7fGcto4aBF0E,2,2024-04-01_20h39.36.389,face trait task,2021.2.3,Win32,60.24096386,,,,,,,
,,,,,,4,0.5968,0,31,31,16,1,17,image/17.jpg,R_7dS7fGcto4aBF0E,2,2024-04-01_20h39.36.389,face trait task,2021.2.3,Win32,60.24096386,,,,,,,
,,,,,,2,0.4503,0,32,32,32,1,33,image/33.jpg,R_7dS7fGcto4aBF0E,2,2024-04-01_20h39.36.389,face trait task,2021.2.3,Win32,60.24096386,,,,,,,
,,,,,,3,0.902,0,33,33,37,1,38,image/38.jpg,R_7dS7fGcto4aBF0E,2,2024-04-01_20h39.36.389,face trait task,2021.2.3,Win32,60.24096386,,,,,,,
,,,,,,2,0.7226,0,34,34,46,1,47,image/47.jpg,R_7dS7fGcto4aBF0E,2,2024-04-01_20h39.36.389,face trait task,2021.2.3,Win32,60.24096386,,,,,,,
,,,,,,2,0.6668,0,35,35,7,1,8,image/8.jpg,R_7dS7fGcto4aBF0E,2,2024-04-01_20h39.36.389,face trait task,2021.2.3,Win32,60.24096386,,,,,,,
,,,,,,4,1.2241,0,36,36,2,1,3,image/3.jpg,R_7dS7fGcto4aBF0E,2,2024-04-01_20h39.36.389,face trait task,2021.2.3,Win32,60.24096386,,,,,,,
,,,,,,4,1.3057,0,37,37,5,1,6,image/6.jpg,R_7dS7fGcto4aBF0E,2,2024-04-01_20h39.36.389,face trait task,2021.2.3,Win32,60.24096386,,,,,,,
,,,,,,3,0.8508,0,38,38,29,1,30,image/30.jpg,R_7dS7fGcto4aBF0E,2,2024-04-01_20h39.36.389,face trait task,2021.2.3,Win32,60.24096386,,,,,,,
,,,,,,4,0.4889,0,39,39,41,1,42,image/42.jpg,R_7dS7fGcto4aBF0E,2,2024-04-01_20h39.36.389,face trait task,2021.2.3,Win32,60.24096386,,,,,,,
,,,,,,2,0.3036,0,40,40,3,1,4,image/4.jpg,R_7dS7fGcto4aBF0E,2,2024-04-01_20h39.36.389,face trait task,2021.2.3,Win32,60.24096386,,,,,,,
,,,,,,2,0.2519,0,41,41,18,1,19,image/19.jpg,R_7dS7fGcto4aBF0E,2,2024-04-01_20h39.36.389,face trait task,2021.2.3,Win32,60.24096386,,,,,,,
,,,,,,2,0.2462,0,42,42,11,1,12,image/12.jpg,R_7dS7fGcto4aBF0E,2,2024-04-01_20h39.36.389,face trait task,2021.2.3,Win32,60.24096386,,,,,,,
,,,,,,2,0.2408,0,43,43,43,1,44,image/44.jpg,R_7dS7fGcto4aBF0E,2,2024-04-01_20h39.36.389,face trait task,2021.2.3,Win32,60.24096386,,,,,,,
,,,,,,3,0.2488,0,44,44,44,1,45,image/45.jpg,R_7dS7fGcto4aBF0E,2,2024-04-01_20h39.36.389,face trait task,2021.2.3,Win32,60.24096386,,,,,,,
,,,,,,3,0.3157,0,45,45,48,1,49,image/49.jpg,R_7dS7fGcto4aBF0E,2,2024-04-01_20h39.36.389,face trait task,2021.2.3,Win32,60.24096386,,,,,,,
,,,,,,2,1.2747,0,46,46,45,1,46,image/46.jpg,R_7dS7fGcto4aBF0E,2,2024-04-01_20h39.36.389,face trait task,2021.2.3,Win32,60.24096386,,,,,,,
,,,,,,2,0.91,0,47,47,14,1,15,image/15.jpg,R_7dS7fGcto4aBF0E,2,2024-04-01_20h39.36.389,face trait task,2021.2.3,Win32,60.24096386,,,,,,,
,,,,,,2,0.3733,0,48,48,30,1,31,image/31.jpg,R_7dS7fGcto4aBF0E,2,2024-04-01_20h39.36.389,face trait task,2021.2.3,Win32,60.24096386,,,,,,,
,,,,,,3,0.5844,0,49,49,20,1,21,image/21.jpg,R_7dS7fGcto4aBF0E,2,2024-04-01_20h39.36.389,face trait task,2021.2.3,Win32,60.24096386,,,,,,,
,,,,,,,,,,,,,,,R_7dS7fGcto4aBF0E,2,2024-04-01_20h39.36.389,face trait task,2021.2.3,Win32,60.24096386,0,1,1,2,1,2,trustworthy.png
,,,,,,2,2.015,0,0,0,1,1,2,image/2.jpg,R_7dS7fGcto4aBF0E,2,2024-04-01_20h39.36.389,face trait task,2021.2.3,Win32,60.24096386,,,,,,,
,,,,,,4,0.5654,0,1,1,44,1,45,image/45.jpg,R_7dS7fGcto4aBF0E,2,2024-04-01_20h39.36.389,face trait task,2021.2.3,Win32,60.24096386,,,,,,,
,,,,,,2,0.5757,0,2,2,42,1,43,image/43.jpg,R_7dS7fGcto4aBF0E,2,2024-04-01_20h39.36.389,face trait task,2021.2.3,Win32,60.24096386,,,,,,,
,,,,,,2,0.4187,0,3,3,15,1,16,image/16.jpg,R_7dS7fGcto4aBF0E,2,2024-04-01_20h39.36.389,face trait task,2021.2.3,Win32,60.24096386,,,,,,,
,,,,,,2,0.8169,0,4,4,2,1,3,image/3.jpg,R_7dS7fGcto4aBF0E,2,2024-04-01_20h39.36.389,face trait task,2021.2.3,Win32,60.24096386,,,,,,,
,,,,,,3,0.3498,0,5,5,24,1,25,image/25.jpg,R_7dS7fGcto4aBF0E,2,2024-04-01_20h39.36.389,face trait task,2021.2.3,Win32,60.24096386,,,,,,,
,,,,,,4,0.4087,0,6,6,32,1,33,image/33.jpg,R_7dS7fGcto4aBF0E,2,2024-04-01_20h39.36.389,face trait task,2021.2.3,Win32,60.24096386,,,,,,,
,,,,,,5,0.537,0,7,7,35,1,36,image/36.jpg,R_7dS7fGcto4aBF0E,2,2024-04-01_20h39.36.389,face trait task,2021.2.3,Win32,60.24096386,,,,,,,
,,,,,,6,0.588,0,8,8,49,1,50,image/50.jpg,R_7dS7fGcto4aBF0E,2,2024-04-01_20h39.36.389,face trait task,2021.2.3,Win32,60.24096386,,,,,,,
,,,,,,2,0.5498,0,9,9,48,1,49,image/49.jpg,R_7dS7fGcto4aBF0E,2,2024-04-01_20h39.36.389,face trait task,2021.2.3,Win32,60.24096386,,,,,,,
,,,,,,4,0.4428,0,10,10,5,1,6,image/6.jpg,R_7dS7fGcto4aBF0E,2,2024-04-01_20h39.36.389,face trait task,2021.2.3,Win32,60.24096386,,,,,,,
,,,,,,5,0.2884,0,11,11,3,1,4,image/4.jpg,R_7dS7fGcto4aBF0E,2,2024-04-01_20h39.36.389,face trait task,2021.2.3,Win32,60.24096386,,,,,,,
,,,,,,6,0.2359,0,12,12,22,1,23,image/23.jpg,R_7dS7fGcto4aBF0E,2,2024-04-01_20h39.36.389,face trait task,2021.2.3,Win32,60.24096386,,,,,,,
,,,,,,4,3.4163,0,13,13,40,1,41,image/41.jpg,R_7dS7fGcto4aBF0E,2,2024-04-01_20h39.36.389,face trait task,2021.2.3,Win32,60.24096386,,,,,,,
,,,,,,3,0.2866,0,14,14,38,1,39,image/39.jpg,R_7dS7fGcto4aBF0E,2,2024-04-01_20h39.36.389,face trait task,2021.2.3,Win32,60.24096386,,,,,,,
,,,,,,2,0.3787,0,15,15,19,1,20,image/20.jpg,R_7dS7fGcto4aBF0E,2,2024-04-01_20h39.36.389,face trait task,2021.2.3,Win32,60.24096386,,,,,,,
,,,,,,4,0.272,0,16,16,18,1,19,image/19.jpg,R_7dS7fGcto4aBF0E,2,2024-04-01_20h39.36.389,face trait task,2021.2.3,Win32,60.24096386,,,,,,,
,,,,,,5,0.8635,0,17,17,37,1,38,image/38.jpg,R_7dS7fGcto4aBF0E,2,2024-04-01_20h39.36.389,face trait task,2021.2.3,Win32,60.24096386,,,,,,,
,,,,,,3,0.4148,0,18,18,27,1,28,image/28.jpg,R_7dS7fGcto4aBF0E,2,2024-04-01_20h39.36.389,face trait task,2021.2.3,Win32,60.24096386,,,,,,,
,,,,,,2,0.4323,0,19,19,25,1,26,image/26.jpg,R_7dS7fGcto4aBF0E,2,2024-04-01_20h39.36.389,face trait task,2021.2.3,Win32,60.24096386,,,,,,,
,,,,,,1,0.5342,0,20,20,36,1,37,image/37.jpg,R_7dS7fGcto4aBF0E,2,2024-04-01_20h39.36.389,face trait task,2021.2.3,Win32,60.24096386,,,,,,,
,,,,,,2,0.3756,0,21,21,30,1,31,image/31.jpg,R_7dS7fGcto4aBF0E,2,2024-04-01_20h39.36.389,face trait task,2021.2.3,Win32,60.24096386,,,,,,,
,,,,,,3,0.283,0,22,22,33,1,34,image/34.jpg,R_7dS7fGcto4aBF0E,2,2024-04-01_20h39.36.389,face trait task,2021.2.3,Win32,60.24096386,,,,,,,
,,,,,,4,0.5492,0,23,23,7,1,8,image/8.jpg,R_7dS7fGcto4aBF0E,2,2024-04-01_20h39.36.389,face trait task,2021.2.3,Win32,60.24096386,,,,,,,
,,,,,,4,0.7181,0,24,24,46,1,47,image/47.jpg,R_7dS7fGcto4aBF0E,2,2024-04-01_20h39.36.389,face trait task,2021.2.3,Win32,60.24096386,,,,,,,
,,,,,,3,0.3334,0,25,25,31,1,32,image/32.jpg,R_7dS7fGcto4aBF0E,2,2024-04-01_20h39.36.389,face trait task,2021.2.3,Win32,60.24096386,,,,,,,
,,,,,,2,0.3315,0,26,26,26,1,27,image/27.jpg,R_7dS7fGcto4aBF0E,2,2024-04-01_20h39.36.389,face trait task,2021.2.3,Win32,60.24096386,,,,,,,
,,,,,,3,0.3128,0,27,27,4,1,5,image/5.jpg,R_7dS7fGcto4aBF0E,2,2024-04-01_20h39.36.389,face trait task,2021.2.3,Win32,60.24096386,,,,,,,
,,,,,,1,0.2919,0,28,28,12,1,13,image/13.jpg,R_7dS7fGcto4aBF0E,2,2024-04-01_20h39.36.389,face trait task,2021.2.3,Win32,60.24096386,,,,,,,
,,,,,,2,0.3226,0,29,29,41,1,42,image/42.jpg,R_7dS7fGcto4aBF0E,2,2024-04-01_20h39.36.389,face trait task,2021.2.3,Win32,60.24096386,,,,,,,
,,,,,,3,0.4876,0,30,30,47,1,48,image/48.jpg,R_7dS7fGcto4aBF0E,2,2024-04-01_20h39.36.389,face trait task,2021.2.3,Win32,60.24096386,,,,,,,
,,,,,,4,1.1679,0,31,31,39,1,40,image/40.jpg,R_7dS7fGcto4aBF0E,2,2024-04-01_20h39.36.389,face trait task,2021.2.3,Win32,60.24096386,,,,,,,
,,,,,,4,0.9187,0,32,32,34,1,35,image/35.jpg,R_7dS7fGcto4aBF0E,2,2024-04-01_20h39.36.389,face trait task,2021.2.3,Win32,60.24096386,,,,,,,
,,,,,,3,30.5849,0,33,33,0,1,1,image/1.jpg,R_7dS7fGcto4aBF0E,2,2024-04-01_20h39.36.389,face trait task,2021.2.3,Win32,60.24096386,,,,,,,
,,,,,,5,0.5645,0,34,34,14,1,15,image/15.jpg,R_7dS7fGcto4aBF0E,2,2024-04-01_20h39.36.389,face trait task,2021.2.3,Win32,60.24096386,,,,,,,
,,,,,,4,0.2403,0,35,35,45,1,46,image/46.jpg,R_7dS7fGcto4aBF0E,2,2024-04-01_20h39.36.389,face trait task,2021.2.3,Win32,60.24096386,,,,,,,
,,,,,,3,0.8153,0,36,36,23,1,24,image/24.jpg,R_7dS7fGcto4aBF0E,2,2024-04-01_20h39.36.389,face trait task,2021.2.3,Win32,60.24096386,,,,,,,
,,,,,,5,1.8999,0,37,37,8,1,9,image/9.jpg,R_7dS7fGcto4aBF0E,2,2024-04-01_20h39.36.389,face trait task,2021.2.3,Win32,60.24096386,,,,,,,
,,,,,,5,0.6264,0,38,38,28,1,29,image/29.jpg,R_7dS7fGcto4aBF0E,2,2024-04-01_20h39.36.389,face trait task,2021.2.3,Win32,60.24096386,,,,,,,
,,,,,,6,0.8842,0,39,39,10,1,11,image/11.jpg,R_7dS7fGcto4aBF0E,2,2024-04-01_20h39.36.389,face trait task,2021.2.3,Win32,60.24096386,,,,,,,
,,,,,,4,0.7842,0,40,40,29,1,30,image/30.jpg,R_7dS7fGcto4aBF0E,2,2024-04-01_20h39.36.389,face trait task,2021.2.3,Win32,60.24096386,,,,,,,
,,,,,,3,0.517,0,41,41,17,1,18,image/18.jpg,R_7dS7fGcto4aBF0E,2,2024-04-01_20h39.36.389,face trait task,2021.2.3,Win32,60.24096386,,,,,,,
,,,,,,2,0.5014,0,42,42,20,1,21,image/21.jpg,R_7dS7fGcto4aBF0E,2,2024-04-01_20h39.36.389,face trait task,2021.2.3,Win32,60.24096386,,,,,,,
,,,,,,3,0.4067,0,43,43,43,1,44,image/44.jpg,R_7dS7fGcto4aBF0E,2,2024-04-01_20h39.36.389,face trait task,2021.2.3,Win32,60.24096386,,,,,,,
,,,,,,5,0.3162,0,44,44,13,1,14,image/14.jpg,R_7dS7fGcto4aBF0E,2,2024-04-01_20h39.36.389,face trait task,2021.2.3,Win32,60.24096386,,,,,,,
,,,,,,4,0.509,0,45,45,21,1,22,image/22.jpg,R_7dS7fGcto4aBF0E,2,2024-04-01_20h39.36.389,face trait task,2021.2.3,Win32,60.24096386,,,,,,,
,,,,,,6,0.7502,0,46,46,6,1,7,image/7.jpg,R_7dS7fGcto4aBF0E,2,2024-04-01_20h39.36.389,face trait task,2021.2.3,Win32,60.24096386,,,,,,,
,,,,,,4,0.7307,0,47,47,11,1,12,image/12.jpg,R_7dS7fGcto4aBF0E,2,2024-04-01_20h39.36.389,face trait task,2021.2.3,Win32,60.24096386,,,,,,,
,,,,,,4,0.6156,0,48,48,9,1,10,image/10.jpg,R_7dS7fGcto4aBF0E,2,2024-04-01_20h39.36.389,face trait task,2021.2.3,Win32,60.24096386,,,,,,,
,,,,,,4,0.5661,0,49,49,16,1,17,image/17.jpg,R_7dS7fGcto4aBF0E,2,2024-04-01_20h39.36.389,face trait task,2021.2.3,Win32,60.24096386,,,,,,,
,,,,,,,,,,,,,,,R_7dS7fGcto4aBF0E,2,2024-04-01_20h39.36.389,face trait task,2021.2.3,Win32,60.24096386,0,2,2,3,1,3,friendly.png
,,,,,,3,1.1647,0,0,0,24,1,25,image/25.jpg,R_7dS7fGcto4aBF0E,2,2024-04-01_20h39.36.389,face trait task,2021.2.3,Win32,60.24096386,,,,,,,
,,,,,,3,2.6741,0,1,1,17,1,18,image/18.jpg,R_7dS7fGcto4aBF0E,2,2024-04-01_20h39.36.389,face trait task,2021.2.3,Win32,60.24096386,,,,,,,
,,,,,,3,1.0729,0,2,2,10,1,11,image/11.jpg,R_7dS7fGcto4aBF0E,2,2024-04-01_20h39.36.389,face trait task,2021.2.3,Win32,60.24096386,,,,,,,
,,,,,,5,0.8152,0,3,3,7,1,8,image/8.jpg,R_7dS7fGcto4aBF0E,2,2024-04-01_20h39.36.389,face trait task,2021.2.3,Win32,60.24096386,,,,,,,
,,,,,,5,5.6629,0,4,4,5,1,6,image/6.jpg,R_7dS7fGcto4aBF0E,2,2024-04-01_20h39.36.389,face trait task,2021.2.3,Win32,60.24096386,,,,,,,
,,,,,,4,0.5404,0,5,5,21,1,22,image/22.jpg,R_7dS7fGcto4aBF0E,2,2024-04-01_20h39.36.389,face trait task,2021.2.3,Win32,60.24096386,,,,,,,
,,,,,,3,0.2658,0,6,6,1,1,2,image/2.jpg,R_7dS7fGcto4aBF0E,2,2024-04-01_20h39.36.389,face trait task,2021.2.3,Win32,60.24096386,,,,,,,
,,,,,,2,0.6336,0,7,7,40,1,41,image/41.jpg,R_7dS7fGcto4aBF0E,2,2024-04-01_20h39.36.389,face trait task,2021.2.3,Win32,60.24096386,,,,,,,
,,,,,,5,0.3423,0,8,8,14,1,15,image/15.jpg,R_7dS7fGcto4aBF0E,2,2024-04-01_20h39.36.389,face trait task,2021.2.3,Win32,60.24096386,,,,,,,
,,,,,,6,0.818,0,9,9,15,1,16,image/16.jpg,R_7dS7fGcto4aBF0E,2,2024-04-01_20h39.36.389,face trait task,2021.2.3,Win32,60.24096386,,,,,,,
,,,,,,7,0.927,0,10,10,47,1,48,image/48.jpg,R_7dS7fGcto4aBF0E,2,2024-04-01_20h39.36.389,face trait task,2021.2.3,Win32,60.24096386,,,,,,,
,,,,,,6,0.7767,0,11,11,26,1,27,image/27.jpg,R_7dS7fGcto4aBF0E,2,2024-04-01_20h39.36.389,face trait task,2021.2.3,Win32,60.24096386,,,,,,,
,,,,,,4,0.3329,0,12,12,43,1,44,image/44.jpg,R_7dS7fGcto4aBF0E,2,2024-04-01_20h39.36.389,face trait task,2021.2.3,Win32,60.24096386,,,,,,,
,,,,,,4,1.6109,0,13,13,2,1,3,image/3.jpg,R_7dS7fGcto4aBF0E,2,2024-04-01_20h39.36.389,face trait task,2021.2.3,Win32,60.24096386,,,,,,,
,,,,,,3,1.0367,0,14,14,30,1,31,image/31.jpg,R_7dS7fGcto4aBF0E,2,2024-04-01_20h39.36.389,face trait task,2021.2.3,Win32,60.24096386,,,,,,,
,,,,,,5,2.0844,0,15,15,34,1,35,image/35.jpg,R_7dS7fGcto4aBF0E,2,2024-04-01_20h39.36.389,face trait task,2021.2.3,Win32,60.24096386,,,,,,,
,,,,,,4,2.4775,0,16,16,36,1,37,image/37.jpg,R_7dS7fGcto4aBF0E,2,2024-04-01_20h39.36.389,face trait task,2021.2.3,Win32,60.24096386,,,,,,,
,,,,,,4,0.9157,0,17,17,25,1,26,image/26.jpg,R_7dS7fGcto4aBF0E,2,2024-04-01_20h39.36.389,face trait task,2021.2.3,Win32,60.24096386,,,,,,,
,,,,,,5,0.29,0,18,18,35,1,36,image/36.jpg,R_7dS7fGcto4aBF0E,2,2024-04-01_20h39.36.389,face trait task,2021.2.3,Win32,60.24096386,,,,,,,
,,,,,,5,9.9251,0,19,19,46,1,47,image/47.jpg,R_7dS7fGcto4aBF0E,2,2024-04-01_20h39.36.389,face trait task,2021.2.3,Win32,60.24096386,,,,,,,
,,,,,,4,0.6913,0,20,20,32,1,33,image/33.jpg,R_7dS7fGcto4aBF0E,2,2024-04-01_20h39.36.389,face trait task,2021.2.3,Win32,60.24096386,,,,,,,
,,,,,,5,0.742,0,21,21,39,1,40,image/40.jpg,R_7dS7fGcto4aBF0E,2,2024-04-01_20h39.36.389,face trait task,2021.2.3,Win32,60.24096386,,,,,,,
,,,,,,3,0.5211,0,22,22,33,1,34,image/34.jpg,R_7dS7fGcto4aBF0E,2,2024-04-01_20h39.36.389,face trait task,2021.2.3,Win32,60.24096386,,,,,,,
,,,,,,5,0.4387,0,23,23,42,1,43,image/43.jpg,R_7dS7fGcto4aBF0E,2,2024-04-01_20h39.36.389,face trait task,2021.2.3,Win32,60.24096386,,,,,,,
,,,,,,4,0.395,0,24,24,28,1,29,image/29.jpg,R_7dS7fGcto4aBF0E,2,2024-04-01_20h39.36.389,face trait task,2021.2.3,Win32,60.24096386,,,,,,,
,,,,,,3,0.3625,0,25,25,13,1,14,image/14.jpg,R_7dS7fGcto4aBF0E,2,2024-04-01_20h39.36.389,face trait task,2021.2.3,Win32,60.24096386,,,,,,,
,,,,,,3,0.5505,0,26,26,27,1,28,image/28.jpg,R_7dS7fGcto4aBF0E,2,2024-04-01_20h39.36.389,face trait task,2021.2.3,Win32,60.24096386,,,,,,,
,,,,,,5,0.4896,0,27,27,20,1,21,image/21.jpg,R_7dS7fGcto4aBF0E,2,2024-04-01_20h39.36.389,face trait task,2021.2.3,Win32,60.24096386,,,,,,,
,,,,,,5,0.6221,0,28,28,29,1,30,image/30.jpg,R_7dS7fGcto4aBF0E,2,2024-04-01_20h39.36.389,face trait task,2021.2.3,Win32,60.24096386,,,,,,,
,,,,,,5,4.4912,0,29,29,6,1,7,image/7.jpg,R_7dS7fGcto4aBF0E,2,2024-04-01_20h39.36.389,face trait task,2021.2.3,Win32,60.24096386,,,,,,,
,,,,,,3,0.9364,0,30,30,22,1,23,image/23.jpg,R_7dS7fGcto4aBF0E,2,2024-04-01_20h39.36.389,face trait task,2021.2.3,Win32,60.24096386,,,,,,,
,,,,,,4,0.3557,0,31,31,18,1,19,image/19.jpg,R_7dS7fGcto4aBF0E,2,2024-04-01_20h39.36.389,face trait task,2021.2.3,Win32,60.24096386,,,,,,,
,,,,,,3,0.8347,0,32,32,12,1,13,image/13.jpg,R_7dS7fGcto4aBF0E,2,2024-04-01_20h39.36.389,face trait task,2021.2.3,Win32,60.24096386,,,,,,,
,,,,,,3,0.3255,0,33,33,41,1,42,image/42.jpg,R_7dS7fGcto4aBF0E,2,2024-04-01_20h39.36.389,face trait task,2021.2.3,Win32,60.24096386,,,,,,,
,,,,,,5,0.2836,0,34,34,9,1,10,image/10.jpg,R_7dS7fGcto4aBF0E,2,2024-04-01_20h39.36.389,face trait task,2021.2.3,Win32,60.24096386,,,,,,,
,,,,,,4,0.3206,0,35,35,23,1,24,image/24.jpg,R_7dS7fGcto4aBF0E,2,2024-04-01_20h39.36.389,face trait task,2021.2.3,Win32,60.24096386,,,,,,,
,,,,,,3,0.4119,0,36,36,3,1,4,image/4.jpg,R_7dS7fGcto4aBF0E,2,2024-04-01_20h39.36.389,face trait task,2021.2.3,Win32,60.24096386,,,,,,,
,,,,,,2,0.3522,0,37,37,37,1,38,image/38.jpg,R_7dS7fGcto4aBF0E,2,2024-04-01_20h39.36.389,face trait task,2021.2.3,Win32,60.24096386,,,,,,,
,,,,,,5,0.3046,0,38,38,0,1,1,image/1.jpg,R_7dS7fGcto4aBF0E,2,2024-04-01_20h39.36.389,face trait task,2021.2.3,Win32,60.24096386,,,,,,,
,,,,,,6,0.3992,0,39,39,31,1,32,image/32.jpg,R_7dS7fGcto4aBF0E,2,2024-04-01_20h39.36.389,face trait task,2021.2.3,Win32,60.24096386,,,,,,,
,,,,,,4,0.2512,0,40,40,8,1,9,image/9.jpg,R_7dS7fGcto4aBF0E,2,2024-04-01_20h39.36.389,face trait task,2021.2.3,Win32,60.24096386,,,,,,,
,,,,,,3,0.2885,0,41,41,44,1,45,image/45.jpg,R_7dS7fGcto4aBF0E,2,2024-04-01_20h39.36.389,face trait task,2021.2.3,Win32,60.24096386,,,,,,,
,,,,,,2,0.3017,0,42,42,45,1,46,image/46.jpg,R_7dS7fGcto4aBF0E,2,2024-04-01_20h39.36.389,face trait task,2021.2.3,Win32,60.24096386,,,,,,,
,,,,,,5,0.4825,0,43,43,16,1,17,image/17.jpg,R_7dS7fGcto4aBF0E,2,2024-04-01_20h39.36.389,face trait task,2021.2.3,Win32,60.24096386,,,,,,,
,,,,,,5,0.7332,0,44,44,38,1,39,image/39.jpg,R_7dS7fGcto4aBF0E,2,2024-04-01_20h39.36.389,face trait task,2021.2.3,Win32,60.24096386,,,,,,,
,,,,,,3,0.3838,0,45,45,11,1,12,image/12.jpg,R_7dS7fGcto4aBF0E,2,2024-04-01_20h39.36.389,face trait task,2021.2.3,Win32,60.24096386,,,,,,,
,,,,,,3,0.1114,0,46,46,4,1,5,image/5.jpg,R_7dS7fGcto4aBF0E,2,2024-04-01_20h39.36.389,face trait task,2021.2.3,Win32,60.24096386,,,,,,,
,,,,,,3,0.8932,0,47,47,19,1,20,image/20.jpg,R_7dS7fGcto4aBF0E,2,2024-04-01_20h39.36.389,face trait task,2021.2.3,Win32,60.24096386,,,,,,,
,,,,,,2,1.2837,0,48,48,49,1,50,image/50.jpg,R_7dS7fGcto4aBF0E,2,2024-04-01_20h39.36.389,face trait task,2021.2.3,Win32,60.24096386,,,,,,,
,,,,,,5,0.5821,0,49,49,48,1,49,image/49.jpg,R_7dS7fGcto4aBF0E,2,2024-04-01_20h39.36.389,face trait task,2021.2.3,Win32,60.24096386,,,,,,,
,,,,,,,,,,,,,,,R_7dS7fGcto4aBF0E,2,2024-04-01_20h39.36.389,face trait task,2021.2.3,Win32,60.24096386,0,3,3,0,1,0,critical.png
