chooserow,ParID,pre_instru_resp_2.keys,pre_instru_resp_2.rt,pre_instru_resp_3.keys,pre_instru_resp_3.rt,pre_instru_resp_9.keys,pre_instru_resp_9.rt,pre_instru_resp_8.keys,pre_instru_resp_8.rt,pre_instru_resp_4.keys,pre_instru_resp_4.rt,pre_instru_resp_5.keys,pre_instru_resp_5.rt,pre_instru_resp_6.keys,pre_instru_resp_6.rt,key_resp_3.keys,key_resp_3.rt,key_resp_4.keys,key_resp_4.rt,key_resp_5.keys,key_resp_5.rt,key_resp_6.keys,key_resp_6.rt,key_resp_7.keys,key_resp_7.rt,trials_2.thisRepN,trials_2.thisTrialN,trials_2.thisN,trials_2.thisIndex,trials_2.ran,participant,session,date,expName,psychopyVersion,OS,frameRate,pre_instru_resp.keys,pre_instru_resp.rt,clicked,judge_2.x,judge_2.y,judge_2.leftButton,judge_2.midButton,judge_2.rightButton,judge_2.clicked_name,trials.thisRepN,trials.thisTrialN,trials.thisN,trials.thisIndex,trials.ran,prac_answer,prac_dot_sti,dotlefttext,dotrighttext,prac_acc,judge.x,judge.y,judge.leftButton,judge.midButton,judge.rightButton,judge.clicked_name,clicked_guilt,slider_guilt.response,slider_guilt.rt,key_guilt.keys,share_slider.response,share_slider.rt,key_share.keys,slider_apology.response,slider_apology.rt,key_apology.keys,slider_hide.response,slider_hide.rt,slider_forgiveness.response,slider_forgiveness.rt,key_forgiveness.keys,slider_mad.response,slider_mad.rt,trialseq.thisRepN,trialseq.thisTrialN,trialseq.thisN,trialseq.thisIndex,trialseq.ran,type_trial,stipic,DV,picture,answer,number,incompleteTrials,key_guilt.rt,key_forgiveness.rt,key_apology.rt,key_share.rt,trials_redo.thisRepN,trials_redo.thisTrialN,trials_redo.thisN,trials_redo.thisIndex,trials_redo.ran
"[1,7,4,15,12,22,25,31,32,43,40,39,52,56,59,60,64,70,78,76,75,94,88,93,106,104,102,118,109,115,125,121,131,139,143,137,151,155,146,163,165,167,178,175,174,180,184,183,192,199]",R_7dS7fGcto4aBF0E,space,1.7891,space,12.4477,space,41.9395,space,11.1369,space,14.6876,space,5.3667,space,10.3432,3,8.1383,1,16.5998,3,9.3926,2,16.9592,2,3.6989,0,0,0,0,1,R_7dS7fGcto4aBF0E,1,2024-04-01_18h51.43.993,interaction task,2021.2.3,Win32,60.24096386,,,,,,,,,,,,,,,,,,,,,,,,,,,,,,,,,,,,,,,,,,,,,,,,,,,,,,,,,,,,,,,
,,,,,,,,,,,,,,,,,,,,,,,,,,,,,,,R_7dS7fGcto4aBF0E,1,2024-04-01_18h51.43.993,interaction task,2021.2.3,Win32,60.24096386,space,6.9462,"[""LeftButton_2""]",-0.285416667,-0.259259259,1,0,0,LeftButton_2,0,0,0,1,1,LeftButton_2,9dot2.png,Smaller,Greater,,,,,,,,,,,,,,,,,,,,,,,,,,,,,,,,,,,,,,,,,,,,,
,,,,,,,,,,,,,,,,,,,,,,,,,,,,,,,R_7dS7fGcto4aBF0E,1,2024-04-01_18h51.43.993,interaction task,2021.2.3,Win32,60.24096386,,,"[""RightButton_2""]",0.307291667,-0.331481481,1,0,0,RightButton_2,0,1,1,0,1,RightButton_2,11dot2.png,Smaller,Greater,,,,,,,,,,,,,,,,,,,,,,,,,,,,,,,,,,,,,,,,,,,,,
,,,,,,,,,,,,,,,,,,,,,,,,,,,,,,,R_7dS7fGcto4aBF0E,1,2024-04-01_18h51.43.993,interaction task,2021.2.3,Win32,60.24096386,,,"[""RightButton_2""]",0.294791667,-0.337037037,1,0,0,RightButton_2,0,2,2,2,1,RightButton_2,11dot2.png,Smaller,Greater,,,,,,,,,,,,,,,,,,,,,,,,,,,,,,,,,,,,,,,,,,,,,
,,,,,,,,,,,,,,,,,,,,,,,,,,,,,,,R_7dS7fGcto4aBF0E,1,2024-04-01_18h51.43.993,interaction task,2021.2.3,Win32,60.24096386,,,,,,,,,,,,,,,,,Smaller,Greater,0.6,0.3375,-0.52037037,1,0,0,RightButton,"[""RightButton""]",,,,,,,,,,,,,,,,,0,0,0,9,1,0,both_right.png,3,RandomDot3.png,No answer,21,,,,,,,,,,
,,,,,,,,,,,,,,,,,,,,,,,,,,,,,,,R_7dS7fGcto4aBF0E,1,2024-04-01_18h51.43.993,interaction task,2021.2.3,Win32,60.24096386,,,,,,,,,,,,,,,,,Greater,Smaller,,-0.232291667,-0.525925926,1,0,0,LeftButton,"[""LeftButton""]",,,,,,,,,,,,,,,,,0,1,1,0,1,0,both_right.png,0,RandomDot36.png,No answer,21,,,,,,,,,,
,,,,,,,,,,,,,,,,,,,,,,,,,,,,,,,R_7dS7fGcto4aBF0E,1,2024-04-01_18h51.43.993,interaction task,2021.2.3,Win32,60.24096386,,,,,,,,,,,,,,,,,Smaller,Greater,,0.285416667,-0.511111111,1,0,0,RightButton,"[""RightButton""]",,,,,,,,,,,,,,,,,0,2,2,8,1,0,both_right.png,2,RandomDot29.png,No answer,20,,,,,,,,,,
,,,,,,,,,,,,,,,,,,,,,,,,,,,,,,,R_7dS7fGcto4aBF0E,1,2024-04-01_18h51.43.993,interaction task,2021.2.3,Win32,60.24096386,,,,,,,,,,,,,,,,,Greater,Smaller,,0.285416667,-0.511111111,0,0,0,,[],,,,,,,,,,,,,,,,,0,3,3,6,1,0,both_right.png,2,RandomDot39.png,No answer,20,15,,,,,,,,,
,,,,,,,,,,,,,,,,,,,,,,,,,,,,,,,R_7dS7fGcto4aBF0E,1,2024-04-01_18h51.43.993,interaction task,2021.2.3,Win32,60.24096386,,,,,,,,,,,,,,,,,Greater,Smaller,,0.334375,-0.968518519,0,0,0,,[],,,,,,,,,,,,,,,,,0,4,4,35,1,2,only_sub_right.png,3,RandomDot23.png,No answer,20,12,,,,,,,,,
,,,,,,,,,,,,,,,,,,,,,,,,,,,,,,,R_7dS7fGcto4aBF0E,1,2024-04-01_18h51.43.993,interaction task,2021.2.3,Win32,60.24096386,,,,,,,,,,,,,,,,,Smaller,Greater,,0.334375,-0.968518519,0,0,0,,[],,,,,,,,,,,,,,,,,0,5,5,42,1,3,only_sub_wrong.png,2,RandomDot22.png,No answer,19,22,,,,,,,,,
,,,,,,,,,,,,,,,,,,,,,,,,,,,,,,,R_7dS7fGcto4aBF0E,1,2024-04-01_18h51.43.993,interaction task,2021.2.3,Win32,60.24096386,,,,,,,,,,,,,,,,,Greater,Smaller,,0.334375,-0.968518519,0,0,0,,[],,,,,,,,,,,,,,,,,0,6,6,45,1,3,only_sub_wrong.png,3,RandomDot20.png,No answer,19,25,,,,,,,,,
,,,,,,,,,,,,,,,,,,,,,,,,,,,,,,,R_7dS7fGcto4aBF0E,1,2024-04-01_18h51.43.993,interaction task,2021.2.3,Win32,60.24096386,,,,,,,,,,,,,,,,,Greater,Smaller,,0.334375,-0.968518519,0,0,0,,[],,,,,,,,,,,,,,,,,0,7,7,2,1,0,both_right.png,0,RandomDot20.png,No answer,19,31,,,,,,,,,
,,,,,,,,,,,,,,,,,,,,,,,,,,,,,,,R_7dS7fGcto4aBF0E,1,2024-04-01_18h51.43.993,interaction task,2021.2.3,Win32,60.24096386,,,,,,,,,,,,,,,,,Smaller,Greater,,0.334375,-0.968518519,0,0,0,,[],,,,,,,,,,,,,,,,,0,8,8,1,1,0,both_right.png,0,RandomDot27.png,No answer,19,32,,,,,,,,,
,,,,,,,,,,,,,,,,,,,,,,,,,,,,,,,R_7dS7fGcto4aBF0E,1,2024-04-01_18h51.43.993,interaction task,2021.2.3,Win32,60.24096386,,,,,,,,,,,,,,,,,Greater,Smaller,,-0.3125,-0.494444444,1,0,0,LeftButton,"[""LeftButton""]",53,4.2236,space,,,,,,,,,,,,,,0,9,9,38,1,3,only_sub_wrong.png,0,RandomDot38.png,No answer,21,,2.0529,,,,,,,,
,,,,,,,,,,,,,,,,,,,,,,,,,,,,,,,R_7dS7fGcto4aBF0E,1,2024-04-01_18h51.43.993,interaction task,2021.2.3,Win32,60.24096386,,,,,,,,,,,,,,,,,Smaller,Greater,,-0.35,-0.516666667,1,0,0,LeftButton,"[""LeftButton""]",,,,,,,,,,,,93.03451178,10.4012,space,9.175084175,13.7954,0,10,10,33,1,2,only_sub_right.png,3,RandomDot30.png,No answer,20,,,9.4746,,,,,,,
,,,,,,,,,,,,,,,,,,,,,,,,,,,,,,,R_7dS7fGcto4aBF0E,1,2024-04-01_18h51.43.993,interaction task,2021.2.3,Win32,60.24096386,,,,,,,,,,,,,,,,,Smaller,Greater,,0.295833333,-0.475925926,1,0,0,RightButton,"[""RightButton""]",,,,,,,10,7.8303,space,8,11.4434,,,,,,0,11,11,32,1,2,only_sub_right.png,2,RandomDot5.png,No answer,21,,,,1.4525,,,,,,
,,,,,,,,,,,,,,,,,,,,,,,,,,,,,,,R_7dS7fGcto4aBF0E,1,2024-04-01_18h51.43.993,interaction task,2021.2.3,Win32,60.24096386,,,,,,,,,,,,,,,,,Greater,Smaller,,-0.295833333,-0.537037037,1,0,0,LeftButton,"[""LeftButton""]",,,,,,,,,,,,,,,,,0,12,12,3,1,0,both_right.png,1,RandomDot35.png,No answer,21,,,,,,,,,,
,,,,,,,,,,,,,,,,,,,,,,,,,,,,,,,R_7dS7fGcto4aBF0E,1,2024-04-01_18h51.43.993,interaction task,2021.2.3,Win32,60.24096386,,,,,,,,,,,,,,,,,Smaller,Greater,,-0.247916667,-0.544444444,1,0,0,LeftButton,"[""LeftButton""]",,,,,,,6,1.4636,space,8,3.8864,,,,,,0,13,13,18,1,1,both_wrong.png,2,RandomDot19.png,No answer,19,,,,1.8224,,,,,,
,,,,,,,,,,,,,,,,,,,,,,,,,,,,,,,R_7dS7fGcto4aBF0E,1,2024-04-01_18h51.43.993,interaction task,2021.2.3,Win32,60.24096386,,,,,,,,,,,,,,,,,Smaller,Greater,,-0.295833333,-0.538888889,1,0,0,LeftButton,"[""LeftButton""]",,,,,,,,,,,,,,,,,0,14,14,5,1,0,both_right.png,1,RandomDot21.png,No answer,20,,,,,,,,,,
,,,,,,,,,,,,,,,,,,,,,,,,,,,,,,,R_7dS7fGcto4aBF0E,1,2024-04-01_18h51.43.993,interaction task,2021.2.3,Win32,60.24096386,,,,,,,,,,,,,,,,,Greater,Smaller,,-0.307291667,-0.507407407,1,0,0,LeftButton,"[""LeftButton""]",,,,,,,,,,,,9.911616162,4.3104,space,84.72222222,6.3798,0,15,15,46,1,3,only_sub_wrong.png,3,RandomDot20.png,No answer,20,,,1.7886,,,,,,,
,,,,,,,,,,,,,,,,,,,,,,,,,,,,,,,R_7dS7fGcto4aBF0E,1,2024-04-01_18h51.43.993,interaction task,2021.2.3,Win32,60.24096386,,,,,,,,,,,,,,,,,Smaller,Greater,,-0.291666667,-0.514814815,1,0,0,LeftButton,"[""LeftButton""]",,,,,,,,,,,,,,,,,0,16,16,7,1,0,both_right.png,2,RandomDot2.png,No answer,20,,,,,,,,,,
,,,,,,,,,,,,,,,,,,,,,,,,,,,,,,,R_7dS7fGcto4aBF0E,1,2024-04-01_18h51.43.993,interaction task,2021.2.3,Win32,60.24096386,,,,,,,,,,,,,,,,,Greater,Smaller,,-0.240625,-0.935185185,0,0,0,,[],,,,,,,,,,,,,,,,,0,17,17,10,1,0,both_right.png,3,RandomDot36.png,No answer,20,70,,,,,,,,,
,,,,,,,,,,,,,,,,,,,,,,,,,,,,,,,R_7dS7fGcto4aBF0E,1,2024-04-01_18h51.43.993,interaction task,2021.2.3,Win32,60.24096386,,,,,,,,,,,,,,,,,Smaller,Greater,,0.320833333,-0.538888889,1,0,0,RightButton,"[""RightButton""]",21,4.3863,space,,,,,,,,,,,,,,0,18,18,26,1,2,only_sub_right.png,0,RandomDot16.png,No answer,21,,1.3728,,,,,,,,
,,,,,,,,,,,,,,,,,,,,,,,,,,,,,,,R_7dS7fGcto4aBF0E,1,2024-04-01_18h51.43.993,interaction task,2021.2.3,Win32,60.24096386,,,,,,,,,,,,,,,,,Smaller,Greater,,-0.357291667,-0.494444444,1,0,0,LeftButton,"[""LeftButton""]",,,,,,,,,,,,87.45791246,2.8592,space,23.37962963,1.7598,0,19,19,21,1,1,both_wrong.png,3,RandomDot25.png,No answer,21,,,3.8454,,,,,,,
,,,,,,,,,,,,,,,,,,,,,,,,,,,,,,,R_7dS7fGcto4aBF0E,1,2024-04-01_18h51.43.993,interaction task,2021.2.3,Win32,60.24096386,,,,,,,,,,,,,,,,,Smaller,Greater,,-0.365625,-0.47037037,1,0,0,LeftButton,"[""LeftButton""]",46,2.3329,space,,,,,,,,,,,,,,0,20,20,37,1,3,only_sub_wrong.png,0,RandomDot2.png,No answer,20,,6.9572,,,,,,,,
,,,,,,,,,,,,,,,,,,,,,,,,,,,,,,,R_7dS7fGcto4aBF0E,1,2024-04-01_18h51.43.993,interaction task,2021.2.3,Win32,60.24096386,,,,,,,,,,,,,,,,,Smaller,Greater,,-0.313541667,-0.501851852,1,0,0,LeftButton,"[""LeftButton""]",,,,,,,,,,,,19.38131313,5.103,space,82.30218855,5.722,0,21,21,34,1,2,only_sub_right.png,3,RandomDot31.png,No answer,19,,,1.8774,,,,,,,
,,,,,,,,,,,,,,,,,,,,,,,,,,,,,,,R_7dS7fGcto4aBF0E,1,2024-04-01_18h51.43.993,interaction task,2021.2.3,Win32,60.24096386,,,,,,,,,,,,,,,,,Smaller,Greater,,0.3,-0.514814815,1,0,0,RightButton,"[""RightButton""]",,,,1.4375,5.5095,space,,,,,,,,,,,0,22,22,29,1,2,only_sub_right.png,1,RandomDot14.png,No answer,20,,,,,1.525,,,,,
,,,,,,,,,,,,,,,,,,,,,,,,,,,,,,,R_7dS7fGcto4aBF0E,1,2024-04-01_18h51.43.993,interaction task,2021.2.3,Win32,60.24096386,,,,,,,,,,,,,,,,,Smaller,Greater,,-0.283333333,-0.531481481,1,0,0,LeftButton,"[""LeftButton""]",,,,2.96875,1.8759,space,,,,,,,,,,,0,23,23,17,1,1,both_wrong.png,1,RandomDot29.png,No answer,19,,,,,2.2457,,,,,
,,,,,,,,,,,,,,,,,,,,,,,,,,,,,,,R_7dS7fGcto4aBF0E,1,2024-04-01_18h51.43.993,interaction task,2021.2.3,Win32,60.24096386,,,,,,,,,,,,,,,,,Smaller,Greater,,0.302083333,-0.52037037,1,0,0,RightButton,"[""RightButton""]",,,,2.015625,1.256,space,,,,,,,,,,,0,24,24,27,1,2,only_sub_right.png,1,RandomDot34.png,No answer,19,,,,,6.6512,,,,,
,,,,,,,,,,,,,,,,,,,,,,,,,,,,,,,R_7dS7fGcto4aBF0E,1,2024-04-01_18h51.43.993,interaction task,2021.2.3,Win32,60.24096386,,,,,,,,,,,,,,,,,Greater,Smaller,,0.198958333,-0.918518519,0,0,0,,[],,,,,,,,,,,,,,,,,0,25,25,22,1,1,both_wrong.png,3,RandomDot30.png,No answer,20,104,,,,,,,,,
,,,,,,,,,,,,,,,,,,,,,,,,,,,,,,,R_7dS7fGcto4aBF0E,1,2024-04-01_18h51.43.993,interaction task,2021.2.3,Win32,60.24096386,,,,,,,,,,,,,,,,,Smaller,Greater,,0.35625,-0.525925926,0,0,0,,[],,,,,,,,,,,,,,,,,0,26,26,44,1,3,only_sub_wrong.png,2,RandomDot15.png,No answer,21,102,,,,,,,,,
,,,,,,,,,,,,,,,,,,,,,,,,,,,,,,,R_7dS7fGcto4aBF0E,1,2024-04-01_18h51.43.993,interaction task,2021.2.3,Win32,60.24096386,,,,,,,,,,,,,,,,,Greater,Smaller,,0.323958333,-0.490740741,1,0,0,RightButton,"[""RightButton""]",,,,,,,,,,,,31.69191919,3.3895,space,75.77861953,4.163,0,27,27,47,1,3,only_sub_wrong.png,3,RandomDot17.png,No answer,19,,,1.6377,,,,,,,
,,,,,,,,,,,,,,,,,,,,,,,,,,,,,,,R_7dS7fGcto4aBF0E,1,2024-04-01_18h51.43.993,interaction task,2021.2.3,Win32,60.24096386,,,,,,,,,,,,,,,,,Greater,Smaller,,0.304166667,-0.531481481,1,0,0,RightButton,"[""RightButton""]",,,,1.979166667,4.666,space,,,,,,,,,,,0,28,28,15,1,1,both_wrong.png,1,RandomDot13.png,No answer,19,,,,,7.3381,,,,,
,,,,,,,,,,,,,,,,,,,,,,,,,,,,,,,R_7dS7fGcto4aBF0E,1,2024-04-01_18h51.43.993,interaction task,2021.2.3,Win32,60.24096386,,,,,,,,,,,,,,,,,Greater,Smaller,,0.248958333,-0.905555556,0,0,0,,[],,,,,,,,,,,,,,,,,0,29,29,30,1,2,only_sub_right.png,2,RandomDot36.png,No answer,21,115,,,,,,,,,
,,,,,,,,,,,,,,,,,,,,,,,,,,,,,,,R_7dS7fGcto4aBF0E,1,2024-04-01_18h51.43.993,interaction task,2021.2.3,Win32,60.24096386,,,,,,,,,,,,,,,,,Smaller,Greater,,0.013541667,-0.738888889,0,0,0,,[],,,,,,,,,,,,,,,,,0,30,30,40,1,3,only_sub_wrong.png,1,RandomDot6.png,No answer,21,125,,,,,,,,,
,,,,,,,,,,,,,,,,,,,,,,,,,,,,,,,R_7dS7fGcto4aBF0E,1,2024-04-01_18h51.43.993,interaction task,2021.2.3,Win32,60.24096386,,,,,,,,,,,,,,,,,Smaller,Greater,,0.308333333,-0.481481481,1,0,0,RightButton,"[""RightButton""]",77,4.7519,space,,,,,,,,,,,,,,0,31,31,36,1,3,only_sub_wrong.png,0,RandomDot26.png,No answer,19,,0.9584,,,,,,,,
,,,,,,,,,,,,,,,,,,,,,,,,,,,,,,,R_7dS7fGcto4aBF0E,1,2024-04-01_18h51.43.993,interaction task,2021.2.3,Win32,60.24096386,,,,,,,,,,,,,,,,,Smaller,Greater,,0.316666667,-0.507407407,1,0,0,RightButton,"[""RightButton""]",71,4.2062,space,,,,,,,,,,,,,,0,32,32,13,1,1,both_wrong.png,0,RandomDot39.png,No answer,21,,1.0376,,,,,,,,
,,,,,,,,,,,,,,,,,,,,,,,,,,,,,,,R_7dS7fGcto4aBF0E,1,2024-04-01_18h51.43.993,interaction task,2021.2.3,Win32,60.24096386,,,,,,,,,,,,,,,,,Smaller,Greater,,-0.319791667,-0.531481481,1,0,0,LeftButton,"[""LeftButton""]",,,,3.776041667,2.4393,space,,,,,,,,,,,0,33,33,41,1,3,only_sub_wrong.png,1,RandomDot22.png,No answer,20,,,,,1.767,,,,,
,,,,,,,,,,,,,,,,,,,,,,,,,,,,,,,R_7dS7fGcto4aBF0E,1,2024-04-01_18h51.43.993,interaction task,2021.2.3,Win32,60.24096386,,,,,,,,,,,,,,,,,Greater,Smaller,,0.354166667,-0.496296296,1,0,0,RightButton,"[""RightButton""]",,,,,,,,,,,,,,,,,0,34,34,48,1,4,both_right.png,10,RandomDot41.png,LeftButton,5,,,,,,,,,,
,,,,,,,,,,,,,,,,,,,,,,,,,,,,,,,R_7dS7fGcto4aBF0E,1,2024-04-01_18h51.43.993,interaction task,2021.2.3,Win32,60.24096386,,,,,,,,,,,,,,,,,Smaller,Greater,,0.313541667,-0.527777778,1,0,0,RightButton,"[""RightButton""]",,,,,,,76,1.7211,space,69,0.9915,,,,,,0,35,35,43,1,3,only_sub_wrong.png,2,RandomDot17.png,No answer,19,,,,1.2792,,,,,,
,,,,,,,,,,,,,,,,,,,,,,,,,,,,,,,R_7dS7fGcto4aBF0E,1,2024-04-01_18h51.43.993,interaction task,2021.2.3,Win32,60.24096386,,,,,,,,,,,,,,,,,Greater,Smaller,,0.257291667,0.440740741,0,0,0,,[],,,,,,,,,,,,,,,,,0,36,36,16,1,1,both_wrong.png,1,RandomDot6.png,No answer,20,151,,,,,,,,,
,,,,,,,,,,,,,,,,,,,,,,,,,,,,,,,R_7dS7fGcto4aBF0E,1,2024-04-01_18h51.43.993,interaction task,2021.2.3,Win32,60.24096386,,,,,,,,,,,,,,,,,Smaller,Greater,,-0.297916667,-0.516666667,1,0,0,LeftButton,"[""LeftButton""]",37,4.6635,space,,,,,,,,,,,,,,0,37,37,24,1,2,only_sub_right.png,0,RandomDot39.png,No answer,19,,1.0247,,,,,,,,
,,,,,,,,,,,,,,,,,,,,,,,,,,,,,,,R_7dS7fGcto4aBF0E,1,2024-04-01_18h51.43.993,interaction task,2021.2.3,Win32,60.24096386,,,,,,,,,,,,,,,,,Smaller,Greater,,0.295833333,-0.527777778,1,0,0,RightButton,"[""RightButton""]",65,4.6196,space,,,,,,,,,,,,,,0,38,38,14,1,1,both_wrong.png,0,RandomDot14.png,No answer,21,,1.0356,,,,,,,,
,,,,,,,,,,,,,,,,,,,,,,,,,,,,,,,R_7dS7fGcto4aBF0E,1,2024-04-01_18h51.43.993,interaction task,2021.2.3,Win32,60.24096386,,,,,,,,,,,,,,,,,Greater,Smaller,,0.198958333,0.196296296,0,0,0,,[],,,,,,,,,,,,,,,,,0,39,39,49,1,5,both_right.png,10,RandomDot42.png,RightButton,19,163,,,,,,,,,
,,,,,,,,,,,,,,,,,,,,,,,,,,,,,,,R_7dS7fGcto4aBF0E,1,2024-04-01_18h51.43.993,interaction task,2021.2.3,Win32,60.24096386,,,,,,,,,,,,,,,,,Greater,Smaller,,0.357291667,-0.494444444,1,0,0,RightButton,"[""RightButton""]",,,,3.901041667,3.7759,space,,,,,,,,,,,0,40,40,28,1,2,only_sub_right.png,1,RandomDot3.png,No answer,19,,,,,10.9813,,,,,
,,,,,,,,,,,,,,,,,,,,,,,,,,,,,,,R_7dS7fGcto4aBF0E,1,2024-04-01_18h51.43.993,interaction task,2021.2.3,Win32,60.24096386,,,,,,,,,,,,,,,,,Greater,Smaller,,0.279166667,-0.509259259,1,0,0,RightButton,"[""RightButton""]",,,,,,,60,2.0595,space,66,1.4834,,,,,,0,41,41,20,1,1,both_wrong.png,2,RandomDot10.png,No answer,20,,,,0.7871,,,,,,
,,,,,,,,,,,,,,,,,,,,,,,,,,,,,,,R_7dS7fGcto4aBF0E,1,2024-04-01_18h51.43.993,interaction task,2021.2.3,Win32,60.24096386,,,,,,,,,,,,,,,,,Greater,Smaller,,0.301041667,-0.531481481,1,0,0,RightButton,"[""RightButton""]",96,1.5157,space,,,,,,,,,,,,,,0,42,42,12,1,1,both_wrong.png,0,RandomDot10.png,No answer,20,,0.9626,,,,,,,,
,,,,,,,,,,,,,,,,,,,,,,,,,,,,,,,R_7dS7fGcto4aBF0E,1,2024-04-01_18h51.43.993,interaction task,2021.2.3,Win32,60.24096386,,,,,,,,,,,,,,,,,Greater,Smaller,,0.490625,0.188888889,0,0,0,,[],,,,,,,,,,,,,,,,,0,43,43,4,1,0,both_right.png,1,RandomDot30.png,No answer,20,175,,,,,,,,,
,,,,,,,,,,,,,,,,,,,,,,,,,,,,,,,R_7dS7fGcto4aBF0E,1,2024-04-01_18h51.43.993,interaction task,2021.2.3,Win32,60.24096386,,,,,,,,,,,,,,,,,Greater,Smaller,,0.323958333,-0.496296296,1,0,0,RightButton,"[""RightButton""]",,,,,,,,,,,,,,,,,0,44,44,11,1,0,both_right.png,3,RandomDot17.png,No answer,21,,,,,,,,,,
,,,,,,,,,,,,,,,,,,,,,,,,,,,,,,,R_7dS7fGcto4aBF0E,1,2024-04-01_18h51.43.993,interaction task,2021.2.3,Win32,60.24096386,,,,,,,,,,,,,,,,,Greater,Smaller,,0.058333333,-0.468518519,0,0,0,,[],,,,,,,,,,,,,,,,,0,45,45,19,1,1,both_wrong.png,2,RandomDot9.png,No answer,21,180,,,,,,,,,
,,,,,,,,,,,,,,,,,,,,,,,,,,,,,,,R_7dS7fGcto4aBF0E,1,2024-04-01_18h51.43.993,interaction task,2021.2.3,Win32,60.24096386,,,,,,,,,,,,,,,,,Smaller,Greater,,0.35,-0.511111111,1,0,0,RightButton,"[""RightButton""]",74,1.622,space,,,,,,,,,,,,,,0,46,46,25,1,2,only_sub_right.png,0,RandomDot29.png,No answer,20,,1.3603,,,,,,,,
,,,,,,,,,,,,,,,,,,,,,,,,,,,,,,,R_7dS7fGcto4aBF0E,1,2024-04-01_18h51.43.993,interaction task,2021.2.3,Win32,60.24096386,,,,,,,,,,,,,,,,,Smaller,Greater,,0.284375,0.194444444,0,0,0,,[],,,,,,,,,,,,,,,,,0,47,47,39,1,3,only_sub_wrong.png,1,RandomDot6.png,No answer,20,183,,,,,,,,,
,,,,,,,,,,,,,,,,,,,,,,,,,,,,,,,R_7dS7fGcto4aBF0E,1,2024-04-01_18h51.43.993,interaction task,2021.2.3,Win32,60.24096386,,,,,,,,,,,,,,,,,Greater,Smaller,,0.348958333,-0.503703704,1,0,0,RightButton,"[""RightButton""]",,,,,,,99,2.1761,space,84,1.3248,,,,,,0,48,48,31,1,2,only_sub_right.png,2,RandomDot18.png,No answer,19,,,,0.9269,,,,,,
,,,,,,,,,,,,,,,,,,,,,,,,,,,,,,,R_7dS7fGcto4aBF0E,1,2024-04-01_18h51.43.993,interaction task,2021.2.3,Win32,60.24096386,,,,,,,,,,,,,,,,,Smaller,Greater,,0.480208333,0.37962963,0,0,0,,[],,,,,,,,,,,,,,,,,0,49,49,23,1,1,both_wrong.png,3,RandomDot12.png,No answer,21,199,,,,,,,,,
,,,,,,,,,,,,,,,,,,,,,,,,,,,,,,,R_7dS7fGcto4aBF0E,1,2024-04-01_18h51.43.993,interaction task,2021.2.3,Win32,60.24096386,,,,,,,,,,,,,,,,,Greater,Smaller,,0.265625,-0.514814815,1,0,0,RightButton,"[""RightButton""]",,,,,,,,,,,,54.10353535,2.7855,space,73.88468013,2.1717,,,,,,3,only_sub_wrong.png,3,RandomDot20.png,No answer,19,,,1.2218,,,0,0,0,14,1
,,,,,,,,,,,,,,,,,,,,,,,,,,,,,,,R_7dS7fGcto4aBF0E,1,2024-04-01_18h51.43.993,interaction task,2021.2.3,Win32,60.24096386,,,,,,,,,,,,,,,,,Smaller,Greater,,0.247916667,-0.531481481,1,0,0,RightButton,"[""RightButton""]",47,4.8971,space,,,,,,,,,,,,,,,,,,,2,only_sub_right.png,0,RandomDot29.png,No answer,20,,0.9995,,,,0,1,1,7,1
,,,,,,,,,,,,,,,,,,,,,,,,,,,,,,,R_7dS7fGcto4aBF0E,1,2024-04-01_18h51.43.993,interaction task,2021.2.3,Win32,60.24096386,,,,,,,,,,,,,,,,,Smaller,Greater,,-0.284375,-0.52037037,1,0,0,LeftButton,"[""LeftButton""]",,,,,,,,,,,,,,,,,,,,,,0,both_right.png,1,RandomDot21.png,No answer,20,,,,,,0,2,2,2,1
,,,,,,,,,,,,,,,,,,,,,,,,,,,,,,,R_7dS7fGcto4aBF0E,1,2024-04-01_18h51.43.993,interaction task,2021.2.3,Win32,60.24096386,,,,,,,,,,,,,,,,,Greater,Smaller,,-0.341666667,-0.507407407,1,0,0,LeftButton,"[""LeftButton""]",,,,,,,,,,,,33.58585859,1.7619,space,21.8013468,0.9921,,,,,,3,only_sub_wrong.png,3,RandomDot17.png,No answer,19,,,1.0881,,,0,3,3,15,1
,,,,,,,,,,,,,,,,,,,,,,,,,,,,,,,R_7dS7fGcto4aBF0E,1,2024-04-01_18h51.43.993,interaction task,2021.2.3,Win32,60.24096386,,,,,,,,,,,,,,,,,Smaller,Greater,,0.335416667,-0.488888889,1,0,0,RightButton,"[""RightButton""]",,,,,,,,,,,,,,,,,,,,,,0,both_right.png,2,RandomDot2.png,No answer,20,,,,,,0,4,4,4,1
,,,,,,,,,,,,,,,,,,,,,,,,,,,,,,,R_7dS7fGcto4aBF0E,1,2024-04-01_18h51.43.993,interaction task,2021.2.3,Win32,60.24096386,,,,,,,,,,,,,,,,,Smaller,Greater,,0.252083333,-0.483333333,1,0,0,RightButton,"[""RightButton""]",,,,,,,,,,,,,,,,,,,,,,0,both_right.png,2,RandomDot29.png,No answer,20,,,,,,0,5,5,5,1
,,,,,,,,,,,,,,,,,,,,,,,,,,,,,,,R_7dS7fGcto4aBF0E,1,2024-04-01_18h51.43.993,interaction task,2021.2.3,Win32,60.24096386,,,,,,,,,,,,,,,,,Greater,Smaller,,0.270833333,-0.483333333,1,0,0,RightButton,"[""RightButton""]",,,,,,,,,,,,,,,,,,,,,,0,both_right.png,2,RandomDot39.png,No answer,20,,,,,,0,6,6,3,1
,,,,,,,,,,,,,,,,,,,,,,,,,,,,,,,R_7dS7fGcto4aBF0E,1,2024-04-01_18h51.43.993,interaction task,2021.2.3,Win32,60.24096386,,,,,,,,,,,,,,,,,Smaller,Greater,,0.270833333,-0.483333333,1,0,0,RightButton,"[""RightButton""]",76,2.6523,space,,,,,,,,,,,,,,,,,,,3,only_sub_wrong.png,0,RandomDot26.png,No answer,19,,0.8897,,,,0,7,7,11,1
,,,,,,,,,,,,,,,,,,,,,,,,,,,,,,,R_7dS7fGcto4aBF0E,1,2024-04-01_18h51.43.993,interaction task,2021.2.3,Win32,60.24096386,,,,,,,,,,,,,,,,,Smaller,Greater,,0.301041667,-0.533333333,1,0,0,RightButton,"[""RightButton""]",64,1.6616,space,,,,,,,,,,,,,,,,,,,2,only_sub_right.png,0,RandomDot16.png,No answer,21,,0.826,,,,0,8,8,8,1
,,,,,,,,,,,,,,,,,,,,,,,,,,,,,,,R_7dS7fGcto4aBF0E,1,2024-04-01_18h51.43.993,interaction task,2021.2.3,Win32,60.24096386,,,,,,,,,,,,,,,,,Smaller,Greater,,0.290625,-0.472222222,1,0,0,RightButton,"[""RightButton""]",,,,,,,80,8.9461,space,81,9.5314,,,,,,,,,,,3,only_sub_wrong.png,2,RandomDot17.png,No answer,19,,,,0.8013,,0,9,9,13,1
,,,,,,,,,,,,,,,,,,,,,,,,,,,,,,,R_7dS7fGcto4aBF0E,1,2024-04-01_18h51.43.993,interaction task,2021.2.3,Win32,60.24096386,,,,,,,,,,,,,,,,,Greater,Smaller,,0.146875,-0.662962963,0,0,0,,[],,,,,,,,,,,,,,,,,,,,,,2,only_sub_right.png,2,RandomDot36.png,No answer,21,199,,,,,0,10,10,10,1
,,,,,,,,,,,,,,,,,,,,,,,,,,,,,,,R_7dS7fGcto4aBF0E,1,2024-04-01_18h51.43.993,interaction task,2021.2.3,Win32,60.24096386,,,,,,,,,,,,,,,,,Smaller,Greater,,0.146875,-0.662962963,0,0,0,,[],,,,,,,,,,,,,,,,,,,,,,3,only_sub_wrong.png,1,RandomDot6.png,No answer,20,199,,,,,0,11,11,12,1
,,,,,,,,,,,,,,,,,,,,,,,,,,,,,,,R_7dS7fGcto4aBF0E,1,2024-04-01_18h51.43.993,interaction task,2021.2.3,Win32,60.24096386,,,,,,,,,,,,,,,,,Smaller,Greater,,0.146875,-0.662962963,0,0,0,,[],,,,,,,,,,,,,,,,,,,,,,2,only_sub_right.png,1,RandomDot14.png,No answer,20,199,,,,,0,12,12,9,1
,,,,,,,,,,,,,,,,,,,,,,,,,,,,,,,R_7dS7fGcto4aBF0E,1,2024-04-01_18h51.43.993,interaction task,2021.2.3,Win32,60.24096386,,,,,,,,,,,,,,,,,Greater,Smaller,,0.146875,-0.662962963,0,0,0,,[],,,,,,,,,,,,,,,,,,,,,,0,both_right.png,1,RandomDot30.png,No answer,20,199,,,,,0,13,13,1,1
,,,,,,,,,,,,,,,,,,,,,,,,,,,,,,,R_7dS7fGcto4aBF0E,1,2024-04-01_18h51.43.993,interaction task,2021.2.3,Win32,60.24096386,,,,,,,,,,,,,,,,,Smaller,Greater,,0.146875,-0.662962963,0,0,0,,[],,,,,,,,,,,,,,,,,,,,,,1,both_wrong.png,1,RandomDot29.png,No answer,19,199,,,,,0,14,14,6,1
,,,,,,,,,,,,,,,,,,,,,,,,,,,,,,,R_7dS7fGcto4aBF0E,1,2024-04-01_18h51.43.993,interaction task,2021.2.3,Win32,60.24096386,,,,,,,,,,,,,,,,,Greater,Smaller,,0.146875,-0.662962963,0,0,0,,[],,,,,,,,,,,,,,,,,,,,,,0,both_right.png,1,RandomDot35.png,No answer,21,199,,,,,0,15,15,0,1
,,,,,,,,,,,,,,,,,,,,,,,,,,,,,,,R_7dS7fGcto4aBF0E,1,2024-04-01_18h51.43.993,interaction task,2021.2.3,Win32,60.24096386,,,,,,,,,,,,,,,,,Greater,Smaller,,0.146875,-0.662962963,0,0,0,,[],,,,,,,,,,,,,,,,,,,,,,5,both_right.png,10,RandomDot42.png,RightButton,19,199,,,,,0,16,16,16,1
