chooserow,ParID,pre_instru_resp_2.keys,pre_instru_resp_2.rt,pre_instru_resp_3.keys,pre_instru_resp_3.rt,pre_instru_resp_9.keys,pre_instru_resp_9.rt,pre_instru_resp_8.keys,pre_instru_resp_8.rt,pre_instru_resp_4.keys,pre_instru_resp_4.rt,pre_instru_resp_5.keys,pre_instru_resp_5.rt,pre_instru_resp_6.keys,pre_instru_resp_6.rt,key_resp_3.keys,key_resp_3.rt,key_resp_4.keys,key_resp_4.rt,key_resp_5.keys,key_resp_5.rt,key_resp_6.keys,key_resp_6.rt,key_resp_7.keys,key_resp_7.rt,trials_2.thisRepN,trials_2.thisTrialN,trials_2.thisN,trials_2.thisIndex,trials_2.ran,participant,session,date,expName,psychopyVersion,OS,frameRate,SONAid,pre_instru_resp.keys,pre_instru_resp.rt,clicked,judge_2.x,judge_2.y,judge_2.leftButton,judge_2.midButton,judge_2.rightButton,judge_2.clicked_name,trials.thisRepN,trials.thisTrialN,trials.thisN,trials.thisIndex,trials.ran,prac_answer,prac_dot_sti,dotlefttext,dotrighttext,prac_acc,judge.x,judge.y,judge.leftButton,judge.midButton,judge.rightButton,judge.clicked_name,clicked_guilt,slider_guilt.response,slider_guilt.rt,key_guilt.keys,share_slider.response,share_slider.rt,key_share.keys,slider_apology.response,slider_apology.rt,key_apology.keys,slider_hide.response,slider_hide.rt,slider_forgiveness.response,slider_forgiveness.rt,key_forgiveness.keys,slider_mad.response,slider_mad.rt,trialseq.thisRepN,trialseq.thisTrialN,trialseq.thisN,trialseq.thisIndex,trialseq.ran,type_trial,stipic,DV,picture,answer,number,key_forgiveness.rt,key_apology.rt,key_share.rt,key_guilt.rt
"[201,143,170,194,160,180,63,168,106,189,178,56,158,118,188,8,95,45,130,119,112,93,148,49,140,128,131,85,99,104,75,60,134,33,74,14,51,62,150,149,167,83]",R_7eap0FQxb1TrCnY,space,0.817,space,0.87,space,0.669,space,0.643,space,0.748,space,4.499,space,1.127,2,8.392,1,6.711,3,11.398,1,8.233,3,5.788,0,0,0,0,1,R_7eap0FQxb1TrCnY,1,2024-05-04_09h19.11.331,interaction task,2021.2.3,MacIntel,62.5,120456,,,,,,,,,,,,,,,,,,,,,,,,,,,,,,,,,,,,,,,,,,,,,,,,,,,,,,,,,
,,,,space,4.46,space,11.956,space,15.767,space,8.859,space,2.233,space,1.249,2,4.866,1,4.149,1,5.81,1,11.361,3,6.996,1,0,1,0,1,R_7eap0FQxb1TrCnY,1,2024-05-04_09h19.11.331,interaction task,2021.2.3,MacIntel,62.5,120456,,,,,,,,,,,,,,,,,,,,,,,,,,,,,,,,,,,,,,,,,,,,,,,,,,,,,,,,,
,,,,space,0.445,space,0.138,space,0.139,space,0.139,space,2.723,space,0.39,1,4.555,1,3.272,3,2.653,2,2.352,1,1.211,2,0,2,0,1,R_7eap0FQxb1TrCnY,1,2024-05-04_09h19.11.331,interaction task,2021.2.3,MacIntel,62.5,120456,,,,,,,,,,,,,,,,,,,,,,,,,,,,,,,,,,,,,,,,,,,,,,,,,,,,,,,,,
,,,,space,0.301,space,0.152,space,0.138,space,0.159,space,0.335,space,0.321,3,2.568,1,2.351,3,1.17,3,6.46,2,3.352,3,0,3,0,1,R_7eap0FQxb1TrCnY,1,2024-05-04_09h19.11.331,interaction task,2021.2.3,MacIntel,62.5,120456,,,,,,,,,,,,,,,,,,,,,,,,,,,,,,,,,,,,,,,,,,,,,,,,,,,,,,,,,
,,,,space,0.053,space,0.303,space,0.176,space,0.135,space,0.218,space,0.173,3,1.951,1,1.586,3,1.54,2,2.217,2,2.618,4,0,4,0,1,R_7eap0FQxb1TrCnY,1,2024-05-04_09h19.11.331,interaction task,2021.2.3,MacIntel,62.5,120456,,,,,,,,,,,,,,,,,,,,,,,,,,,,,,,,,,,,,,,,,,,,,,,,,,,,,,,,,
,,,,,,,,,,,,,,,,,,,,,,,,,,,,,,,R_7eap0FQxb1TrCnY,1,2024-05-04_09h19.11.331,interaction task,2021.2.3,MacIntel,62.5,120456,space,1.426,"[""LeftButton_2""]",-0.381944444,-0.297777778,1,0,0,LeftButton_2,0,0,0,2,1,LeftButton_2,11dot2.png,Greater,Smaller,,,,,,,,,,,,,,,,,,,,,,,,,,,,,,,,,,,,,,,
,,,,,,,,,,,,,,,,,,,,,,,,,,,,,,,R_7eap0FQxb1TrCnY,1,2024-05-04_09h19.11.331,interaction task,2021.2.3,MacIntel,62.5,120456,,,"[""RightButton_2""]",0.345833333,-0.282222222,1,0,0,RightButton_2,0,1,1,1,1,RightButton_2,11dot2.png,Smaller,Greater,,,,,,,,,,,,,,,,,,,,,,,,,,,,,,,,,,,,,,,
,,,,,,,,,,,,,,,,,,,,,,,,,,,,,,,R_7eap0FQxb1TrCnY,1,2024-05-04_09h19.11.331,interaction task,2021.2.3,MacIntel,62.5,120456,,,"[""RightButton_2""]",0.211111111,-0.282222222,1,0,0,RightButton_2,0,2,2,0,1,RightButton_2,11dot1.png,Smaller,Greater,,,,,,,,,,,,,,,,,,,,,,,,,,,,,,,,,,,,,,,
,,,,,,,,,,,,,,,,,,,,,,,,,,,,,,,R_7eap0FQxb1TrCnY,1,2024-05-04_09h19.11.331,interaction task,2021.2.3,MacIntel,62.5,120456,,,,,,,,,,,,,,,,,Smaller,Greater,0.6,-0.280555556,-0.506666667,1,0,0,LeftButton,"[""LeftButton""]",,,,,,,,,,,,,,,,,0,0,0,0,1,5,both_right.png,10,RandomDot42.png,LeftButton,19,,,,
,,,,,,,,,,,,,,,,,,,,,,,,,,,,,,,R_7eap0FQxb1TrCnY,1,2024-05-04_09h19.11.331,interaction task,2021.2.3,MacIntel,62.5,120456,,,,,,,,,,,,,,,,,Smaller,Greater,,0.222222222,-0.497777778,1,0,0,RightButton,"[""RightButton""]",,,,,,,,,,,,70.90347924,5.228,space,19.27609428,8.431,0,1,1,1,1,2,only_sub_right.png,3,RandomDot31.png,No answer,19,1.043,,,
,,,,,,,,,,,,,,,,,,,,,,,,,,,,,,,R_7eap0FQxb1TrCnY,1,2024-05-04_09h19.11.331,interaction task,2021.2.3,MacIntel,62.5,120456,,,,,,,,,,,,,,,,,Greater,Smaller,,0.273611111,-0.537777778,1,0,0,RightButton,"[""RightButton""]",,,,,,,30,6.064,space,20,3.297,,,,,,0,2,2,2,1,3,only_sub_wrong.png,2,RandomDot39.png,No answer,20,,1.134,,
,,,,,,,,,,,,,,,,,,,,,,,,,,,,,,,R_7eap0FQxb1TrCnY,1,2024-05-04_09h19.11.331,interaction task,2021.2.3,MacIntel,62.5,120456,,,,,,,,,,,,,,,,,Greater,Smaller,,-0.286111111,-0.491111111,1,0,0,LeftButton,"[""LeftButton""]",,,,,,,,,,,,,,,,,0,3,3,3,1,4,both_right.png,10,RandomDot41.png,LeftButton,5,,,,
,,,,,,,,,,,,,,,,,,,,,,,,,,,,,,,R_7eap0FQxb1TrCnY,1,2024-05-04_09h19.11.331,interaction task,2021.2.3,MacIntel,62.5,120456,,,,,,,,,,,,,,,,,Greater,Smaller,,0.216666667,-0.504444444,1,0,0,RightButton,"[""RightButton""]",,,,2.534722222,8.618,space,,,,,,,,,,,0,4,4,4,1,3,only_sub_wrong.png,1,RandomDot22.png,No answer,19,,,1.567,
,,,,,,,,,,,,,,,,,,,,,,,,,,,,,,,R_7eap0FQxb1TrCnY,1,2024-05-04_09h19.11.331,interaction task,2021.2.3,MacIntel,62.5,120456,,,,,,,,,,,,,,,,,Greater,Smaller,,-0.319444444,-0.506666667,1,0,0,LeftButton,"[""LeftButton""]",,,,,,,,,,,,57.996633,3.612,space,44.94949495,5.498,0,5,5,5,1,3,only_sub_wrong.png,3,RandomDot20.png,No answer,19,0.735,,,
,,,,,,,,,,,,,,,,,,,,,,,,,,,,,,,R_7eap0FQxb1TrCnY,1,2024-05-04_09h19.11.331,interaction task,2021.2.3,MacIntel,62.5,120456,,,,,,,,,,,,,,,,,Greater,Smaller,,-0.240277778,-0.482222222,1,0,0,LeftButton,"[""LeftButton""]",,,,2.368055556,3.234,space,,,,,,,,,,,0,6,6,6,1,1,both_wrong.png,1,RandomDot27.png,No answer,19,,,0.753,
,,,,,,,,,,,,,,,,,,,,,,,,,,,,,,,R_7eap0FQxb1TrCnY,1,2024-05-04_09h19.11.331,interaction task,2021.2.3,MacIntel,62.5,120456,,,,,,,,,,,,,,,,,Greater,Smaller,,0.227777778,-0.537777778,1,0,0,RightButton,"[""RightButton""]",,,,,,,31,2.251,space,24,3.247,,,,,,0,7,7,7,1,3,only_sub_wrong.png,2,RandomDot13.png,No answer,21,,0.382,,
,,,,,,,,,,,,,,,,,,,,,,,,,,,,,,,R_7eap0FQxb1TrCnY,1,2024-05-04_09h19.11.331,interaction task,2021.2.3,MacIntel,62.5,120456,,,,,,,,,,,,,,,,,Smaller,Greater,,0.272222222,-0.544444444,1,0,0,RightButton,"[""RightButton""]",19,2.54,space,,,,,,,,,,,,,,0,8,8,8,1,2,only_sub_right.png,0,RandomDot39.png,No answer,19,,,,0.558
,,,,,,,,,,,,,,,,,,,,,,,,,,,,,,,R_7eap0FQxb1TrCnY,1,2024-05-04_09h19.11.331,interaction task,2021.2.3,MacIntel,62.5,120456,,,,,,,,,,,,,,,,,Smaller,Greater,,-0.277777778,-0.477777778,1,0,0,LeftButton,"[""LeftButton""]",,,,,,,,,,,,53.22671156,2.712,space,40.46015713,4.728,0,9,9,9,1,3,only_sub_wrong.png,3,RandomDot38.png,No answer,20,0.133,,,
,,,,,,,,,,,,,,,,,,,,,,,,,,,,,,,R_7eap0FQxb1TrCnY,1,2024-05-04_09h19.11.331,interaction task,2021.2.3,MacIntel,62.5,120456,,,,,,,,,,,,,,,,,Smaller,Greater,,0.306944444,-0.528888889,1,0,0,RightButton,"[""RightButton""]",,,,,,,22,1.483,space,20,3.1,,,,,,0,10,10,10,1,3,only_sub_wrong.png,2,RandomDot22.png,No answer,19,,1.107,,
,,,,,,,,,,,,,,,,,,,,,,,,,,,,,,,R_7eap0FQxb1TrCnY,1,2024-05-04_09h19.11.331,interaction task,2021.2.3,MacIntel,62.5,120456,,,,,,,,,,,,,,,,,Smaller,Greater,,0.352777778,-0.517777778,1,0,0,RightButton,"[""RightButton""]",31,2.273,space,,,,,,,,,,,,,,0,11,11,11,1,1,both_wrong.png,0,RandomDot39.png,No answer,21,,,,1.069
,,,,,,,,,,,,,,,,,,,,,,,,,,,,,,,R_7eap0FQxb1TrCnY,1,2024-05-04_09h19.11.331,interaction task,2021.2.3,MacIntel,62.5,120456,,,,,,,,,,,,,,,,,Greater,Smaller,,-0.304166667,-0.504444444,1,0,0,LeftButton,"[""LeftButton""]",,,,2.458333333,2.23,space,,,,,,,,,,,0,12,12,12,1,3,only_sub_wrong.png,1,RandomDot1.png,No answer,19,,,0.11,
,,,,,,,,,,,,,,,,,,,,,,,,,,,,,,,R_7eap0FQxb1TrCnY,1,2024-05-04_09h19.11.331,interaction task,2021.2.3,MacIntel,62.5,120456,,,,,,,,,,,,,,,,,Smaller,Greater,,0.275,-0.515555556,1,0,0,RightButton,"[""RightButton""]",,,,2.375,2.137,space,,,,,,,,,,,0,13,13,13,1,2,only_sub_right.png,1,RandomDot34.png,No answer,19,,,0.216,
,,,,,,,,,,,,,,,,,,,,,,,,,,,,,,,R_7eap0FQxb1TrCnY,1,2024-05-04_09h19.11.331,interaction task,2021.2.3,MacIntel,62.5,120456,,,,,,,,,,,,,,,,,Smaller,Greater,,-0.301388889,-0.513333333,1,0,0,LeftButton,"[""LeftButton""]",,,,,,,,,,,,44.24803591,4.549,space,34.14702581,5.75,0,14,14,14,1,3,only_sub_wrong.png,3,RandomDot22.png,No answer,21,0.166,,,
,,,,,,,,,,,,,,,,,,,,,,,,,,,,,,,R_7eap0FQxb1TrCnY,1,2024-05-04_09h19.11.331,interaction task,2021.2.3,MacIntel,62.5,120456,,,,,,,,,,,,,,,,,Smaller,Greater,,-0.333333333,-0.522222222,1,0,0,LeftButton,"[""LeftButton""]",,,,,,,,,,,,,,,,,0,15,15,15,1,0,both_right.png,0,RandomDot15.png,No answer,21,,,,
,,,,,,,,,,,,,,,,,,,,,,,,,,,,,,,R_7eap0FQxb1TrCnY,1,2024-05-04_09h19.11.331,interaction task,2021.2.3,MacIntel,62.5,120456,,,,,,,,,,,,,,,,,Smaller,Greater,,-0.301388889,-0.493333333,1,0,0,LeftButton,"[""LeftButton""]",,,,,,,,,,,,47.05387205,1.648,space,27.97418631,2.6,0,16,16,16,1,1,both_wrong.png,3,RandomDot12.png,No answer,19,0.907,,,
,,,,,,,,,,,,,,,,,,,,,,,,,,,,,,,R_7eap0FQxb1TrCnY,1,2024-05-04_09h19.11.331,interaction task,2021.2.3,MacIntel,62.5,120456,,,,,,,,,,,,,,,,,Smaller,Greater,,-0.295833333,-0.515555556,1,0,0,LeftButton,"[""LeftButton""]",,,,,,,,,,,,,,,,,0,17,17,17,1,0,both_right.png,3,RandomDot13.png,No answer,20,,,,
,,,,,,,,,,,,,,,,,,,,,,,,,,,,,,,R_7eap0FQxb1TrCnY,1,2024-05-04_09h19.11.331,interaction task,2021.2.3,MacIntel,62.5,120456,,,,,,,,,,,,,,,,,Smaller,Greater,,0.283333333,-0.491111111,1,0,0,RightButton,"[""RightButton""]",,,,,,,30,1.952,space,18,4.035,,,,,,0,18,18,18,1,2,only_sub_right.png,2,RandomDot8.png,No answer,21,,0.267,,
,,,,,,,,,,,,,,,,,,,,,,,,,,,,,,,R_7eap0FQxb1TrCnY,1,2024-05-04_09h19.11.331,interaction task,2021.2.3,MacIntel,62.5,120456,,,,,,,,,,,,,,,,,Smaller,Greater,,0.293055556,-0.531111111,1,0,0,RightButton,"[""RightButton""]",,,,2.472222222,1.503,space,,,,,,,,,,,0,19,19,19,1,2,only_sub_right.png,1,RandomDot38.png,No answer,19,,,0.121,
,,,,,,,,,,,,,,,,,,,,,,,,,,,,,,,R_7eap0FQxb1TrCnY,1,2024-05-04_09h19.11.331,interaction task,2021.2.3,MacIntel,62.5,120456,,,,,,,,,,,,,,,,,Greater,Smaller,,0.352777778,-0.491111111,1,0,0,RightButton,"[""RightButton""]",,,,2.520833333,1.402,space,,,,,,,,,,,0,20,20,20,1,2,only_sub_right.png,1,RandomDot32.png,No answer,19,,,0.569,
,,,,,,,,,,,,,,,,,,,,,,,,,,,,,,,R_7eap0FQxb1TrCnY,1,2024-05-04_09h19.11.331,interaction task,2021.2.3,MacIntel,62.5,120456,,,,,,,,,,,,,,,,,Smaller,Greater,,-0.227777778,-0.477777778,1,0,0,LeftButton,"[""LeftButton""]",,,,,,,,,,,,44.80920314,5.163,space,24.74747475,2.177,0,21,21,21,1,1,both_wrong.png,3,RandomDot12.png,No answer,21,2.001,,,
,,,,,,,,,,,,,,,,,,,,,,,,,,,,,,,R_7eap0FQxb1TrCnY,1,2024-05-04_09h19.11.331,interaction task,2021.2.3,MacIntel,62.5,120456,,,,,,,,,,,,,,,,,Greater,Smaller,,0.243055556,-0.52,1,0,0,RightButton,"[""RightButton""]",41,1.471,space,,,,,,,,,,,,,,0,22,22,22,1,3,only_sub_wrong.png,0,RandomDot12.png,No answer,20,,,,0.224
,,,,,,,,,,,,,,,,,,,,,,,,,,,,,,,R_7eap0FQxb1TrCnY,1,2024-05-04_09h19.11.331,interaction task,2021.2.3,MacIntel,62.5,120456,,,,,,,,,,,,,,,,,Greater,Smaller,,-0.322222222,-0.528888889,1,0,0,LeftButton,"[""LeftButton""]",49,1.839,space,,,,,,,,,,,,,,0,23,23,23,1,1,both_wrong.png,0,RandomDot16.png,No answer,19,,,,0.202
,,,,,,,,,,,,,,,,,,,,,,,,,,,,,,,R_7eap0FQxb1TrCnY,1,2024-05-04_09h19.11.331,interaction task,2021.2.3,MacIntel,62.5,120456,,,,,,,,,,,,,,,,,Smaller,Greater,,-0.306944444,-0.488888889,1,0,0,LeftButton,"[""LeftButton""]",,,,,,,,,,,,46.91358025,2.145,space,14.36588103,3.247,0,24,24,24,1,2,only_sub_right.png,3,RandomDot8.png,No answer,19,0.477,,,
,,,,,,,,,,,,,,,,,,,,,,,,,,,,,,,R_7eap0FQxb1TrCnY,1,2024-05-04_09h19.11.331,interaction task,2021.2.3,MacIntel,62.5,120456,,,,,,,,,,,,,,,,,Smaller,Greater,,-0.258333333,-0.517777778,1,0,0,LeftButton,"[""LeftButton""]",,,,,,,12,4.117,space,13,1.918,,,,,,0,25,25,25,1,2,only_sub_right.png,2,RandomDot22.png,No answer,20,,0.134,,
,,,,,,,,,,,,,,,,,,,,,,,,,,,,,,,R_7eap0FQxb1TrCnY,1,2024-05-04_09h19.11.331,interaction task,2021.2.3,MacIntel,62.5,120456,,,,,,,,,,,,,,,,,Smaller,Greater,,0.301388889,-0.515555556,1,0,0,RightButton,"[""RightButton""]",,,,,,,7,1.815,space,7,3.697,,,,,,0,26,26,26,1,2,only_sub_right.png,2,RandomDot5.png,No answer,21,,0.285,,
,,,,,,,,,,,,,,,,,,,,,,,,,,,,,,,R_7eap0FQxb1TrCnY,1,2024-05-04_09h19.11.331,interaction task,2021.2.3,MacIntel,62.5,120456,,,,,,,,,,,,,,,,,Greater,Smaller,,-0.306944444,-0.488888889,1,0,0,LeftButton,"[""LeftButton""]",,,,,,,,,,,,57.43546577,2.393,space,19.6969697,3.574,0,27,27,27,1,1,both_wrong.png,3,RandomDot40.png,No answer,21,0.187,,,
,,,,,,,,,,,,,,,,,,,,,,,,,,,,,,,R_7eap0FQxb1TrCnY,1,2024-05-04_09h19.11.331,interaction task,2021.2.3,MacIntel,62.5,120456,,,,,,,,,,,,,,,,,Greater,Smaller,,-0.251388889,-0.515555556,1,0,0,LeftButton,"[""LeftButton""]",19,2.401,space,,,,,,,,,,,,,,0,28,28,28,1,2,only_sub_right.png,0,RandomDot21.png,No answer,19,,,,0.367
,,,,,,,,,,,,,,,,,,,,,,,,,,,,,,,R_7eap0FQxb1TrCnY,1,2024-05-04_09h19.11.331,interaction task,2021.2.3,MacIntel,62.5,120456,,,,,,,,,,,,,,,,,Smaller,Greater,,0.322222222,-0.528888889,1,0,0,RightButton,"[""RightButton""]",12,1.706,space,,,,,,,,,,,,,,0,29,29,29,1,2,only_sub_right.png,0,RandomDot29.png,No answer,20,,,,0.217
,,,,,,,,,,,,,,,,,,,,,,,,,,,,,,,R_7eap0FQxb1TrCnY,1,2024-05-04_09h19.11.331,interaction task,2021.2.3,MacIntel,62.5,120456,,,,,,,,,,,,,,,,,Greater,Smaller,,0.308333333,-0.484444444,1,0,0,RightButton,"[""RightButton""]",,,,,,,17,2.981,space,9,1.717,,,,,,0,30,30,30,1,1,both_wrong.png,2,RandomDot10.png,No answer,20,,0.134,,
,,,,,,,,,,,,,,,,,,,,,,,,,,,,,,,R_7eap0FQxb1TrCnY,1,2024-05-04_09h19.11.331,interaction task,2021.2.3,MacIntel,62.5,120456,,,,,,,,,,,,,,,,,Greater,Smaller,,0.297222222,-0.502222222,1,0,0,RightButton,"[""RightButton""]",,,,2.458333333,2.386,space,,,,,,,,,,,0,31,31,31,1,1,both_wrong.png,1,RandomDot13.png,No answer,19,,,0.334,
,,,,,,,,,,,,,,,,,,,,,,,,,,,,,,,R_7eap0FQxb1TrCnY,1,2024-05-04_09h19.11.331,interaction task,2021.2.3,MacIntel,62.5,120456,,,,,,,,,,,,,,,,,Greater,Smaller,,-0.311111111,-0.508888889,1,0,0,LeftButton,"[""LeftButton""]",,,,,,,,,,,,85.21324355,5.946,space,14.36588103,1.78,0,32,32,32,1,2,only_sub_right.png,3,RandomDot22.png,No answer,20,0.084,,,
,,,,,,,,,,,,,,,,,,,,,,,,,,,,,,,R_7eap0FQxb1TrCnY,1,2024-05-04_09h19.11.331,interaction task,2021.2.3,MacIntel,62.5,120456,,,,,,,,,,,,,,,,,Smaller,Greater,,0.305555556,-0.526666667,1,0,0,RightButton,"[""RightButton""]",,,,,,,,,,,,,,,,,0,33,33,33,1,0,both_right.png,2,RandomDot25.png,No answer,20,,,,
,,,,,,,,,,,,,,,,,,,,,,,,,,,,,,,R_7eap0FQxb1TrCnY,1,2024-05-04_09h19.11.331,interaction task,2021.2.3,MacIntel,62.5,120456,,,,,,,,,,,,,,,,,Greater,Smaller,,-0.351388889,-0.508888889,1,0,0,LeftButton,"[""LeftButton""]",,,,,,,13,2.683,space,8,1.751,,,,,,0,34,34,34,1,1,both_wrong.png,2,RandomDot16.png,No answer,20,,0.367,,
,,,,,,,,,,,,,,,,,,,,,,,,,,,,,,,R_7eap0FQxb1TrCnY,1,2024-05-04_09h19.11.331,interaction task,2021.2.3,MacIntel,62.5,120456,,,,,,,,,,,,,,,,,Greater,Smaller,,-0.319444444,-0.484444444,1,0,0,LeftButton,"[""LeftButton""]",,,,,,,,,,,,,,,,,0,35,35,35,1,0,both_right.png,1,RandomDot29.png,No answer,21,,,,
,,,,,,,,,,,,,,,,,,,,,,,,,,,,,,,R_7eap0FQxb1TrCnY,1,2024-05-04_09h19.11.331,interaction task,2021.2.3,MacIntel,62.5,120456,,,,,,,,,,,,,,,,,Greater,Smaller,,-0.348611111,-0.515555556,1,0,0,LeftButton,"[""LeftButton""]",35,2.221,space,,,,,,,,,,,,,,0,36,36,36,1,1,both_wrong.png,0,RandomDot14.png,No answer,19,,,,0.42
,,,,,,,,,,,,,,,,,,,,,,,,,,,,,,,R_7eap0FQxb1TrCnY,1,2024-05-04_09h19.11.331,interaction task,2021.2.3,MacIntel,62.5,120456,,,,,,,,,,,,,,,,,Greater,Smaller,,0.268055556,-0.48,1,0,0,RightButton,"[""RightButton""]",,,,2.465277778,0.848,space,,,,,,,,,,,0,37,37,37,1,1,both_wrong.png,1,RandomDot28.png,No answer,21,,,0.166,
,,,,,,,,,,,,,,,,,,,,,,,,,,,,,,,R_7eap0FQxb1TrCnY,1,2024-05-04_09h19.11.331,interaction task,2021.2.3,MacIntel,62.5,120456,,,,,,,,,,,,,,,,,Smaller,Greater,,0.240277778,-0.535555556,1,0,0,RightButton,"[""RightButton""]",35,1.836,space,,,,,,,,,,,,,,0,38,38,38,1,3,only_sub_wrong.png,0,RandomDot16.png,No answer,21,,,,0.117
,,,,,,,,,,,,,,,,,,,,,,,,,,,,,,,R_7eap0FQxb1TrCnY,1,2024-05-04_09h19.11.331,interaction task,2021.2.3,MacIntel,62.5,120456,,,,,,,,,,,,,,,,,Greater,Smaller,,-0.319444444,-0.542222222,1,0,0,LeftButton,"[""LeftButton""]",40,1.87,space,,,,,,,,,,,,,,0,39,39,39,1,3,only_sub_wrong.png,0,RandomDot24.png,No answer,20,,,,0.214
,,,,,,,,,,,,,,,,,,,,,,,,,,,,,,,R_7eap0FQxb1TrCnY,1,2024-05-04_09h19.11.331,interaction task,2021.2.3,MacIntel,62.5,120456,,,,,,,,,,,,,,,,,Smaller,Greater,,-0.273611111,-0.522222222,1,0,0,LeftButton,"[""LeftButton""]",,,,2.430555556,1.702,space,,,,,,,,,,,0,40,40,40,1,3,only_sub_wrong.png,1,RandomDot22.png,No answer,20,,,0.135,
,,,,,,,,,,,,,,,,,,,,,,,,,,,,,,,R_7eap0FQxb1TrCnY,1,2024-05-04_09h19.11.331,interaction task,2021.2.3,MacIntel,62.5,120456,,,,,,,,,,,,,,,,,Smaller,Greater,,-0.329166667,-0.491111111,1,0,0,LeftButton,"[""LeftButton""]",,,,,,,13,2.016,space,4,3.567,,,,,,0,41,41,41,1,1,both_wrong.png,2,RandomDot8.png,No answer,20,,0.161,,
