chooserow,ParID,pre_instru_resp_2.keys,pre_instru_resp_2.rt,pre_instru_resp_3.keys,pre_instru_resp_3.rt,pre_instru_resp_9.keys,pre_instru_resp_9.rt,pre_instru_resp_8.keys,pre_instru_resp_8.rt,pre_instru_resp_4.keys,pre_instru_resp_4.rt,pre_instru_resp_5.keys,pre_instru_resp_5.rt,pre_instru_resp_6.keys,pre_instru_resp_6.rt,key_resp_3.keys,key_resp_3.rt,key_resp_4.keys,key_resp_4.rt,key_resp_5.keys,key_resp_5.rt,key_resp_6.keys,key_resp_6.rt,key_resp_7.keys,key_resp_7.rt,trials_2.thisRepN,trials_2.thisTrialN,trials_2.thisN,trials_2.thisIndex,trials_2.ran,participant,session,date,expName,psychopyVersion,OS,frameRate,SONAid,pre_instru_resp.keys,pre_instru_resp.rt,clicked,judge_2.x,judge_2.y,judge_2.leftButton,judge_2.midButton,judge_2.rightButton,judge_2.clicked_name,trials.thisRepN,trials.thisTrialN,trials.thisN,trials.thisIndex,trials.ran,prac_answer,prac_dot_sti,dotlefttext,dotrighttext,prac_acc,judge.x,judge.y,judge.leftButton,judge.midButton,judge.rightButton,judge.clicked_name,clicked_guilt,slider_guilt.response,slider_guilt.rt,key_guilt.keys,share_slider.response,share_slider.rt,key_share.keys,slider_apology.response,slider_apology.rt,key_apology.keys,key_apology.rt,slider_hide.response,slider_hide.rt,slider_forgiveness.response,slider_forgiveness.rt,key_forgiveness.keys,slider_mad.response,slider_mad.rt,trialseq.thisRepN,trialseq.thisTrialN,trialseq.thisN,trialseq.thisIndex,trialseq.ran,type_trial,stipic,DV,picture,answer,number,key_forgiveness.rt,key_share.rt,key_guilt.rt,incompleteTrials,trials_redo.thisRepN,trials_redo.thisTrialN,trials_redo.thisN,trials_redo.thisIndex,trials_redo.ran
"[79,182,112,179,42,193,177,148,56,127,141,136,169,66,100,191,116,20,147,48,118,55,158,162,96,139,181,125,93,164,90,145,202,124,32,91,6,71,77,78,62,107]",R_7LzE0pjYtdObtSm,space,0.9,space,0.227,space,0.29,space,0.18,space,0.094,space,0.703,space,0.418,3,1.899,1,5.701,2,2.956,2,1.925,2,3.966,0,0,0,0,1,R_7LzE0pjYtdObtSm,1,2024-05-14_19h29.45.084,interaction task,2021.2.3,MacIntel,30.3030303,121574,,,,,,,,,,,,,,,,,,,,,,,,,,,,,,,,,,,,,,,,,,,,,,,,,,,,,,,,,,,,,,,
,,,,space,1.983,space,0.367,space,0.328,space,0.52,space,0.387,space,0.306,3,1.186,1,1.075,3,3.218,2,0.854,2,0.319,1,0,1,0,1,R_7LzE0pjYtdObtSm,1,2024-05-14_19h29.45.084,interaction task,2021.2.3,MacIntel,30.3030303,121574,,,,,,,,,,,,,,,,,,,,,,,,,,,,,,,,,,,,,,,,,,,,,,,,,,,,,,,,,,,,,,,
,,,,,,,,,,,,,,,,,,,,,,,,,,,,,,,R_7LzE0pjYtdObtSm,1,2024-05-14_19h29.45.084,interaction task,2021.2.3,MacIntel,30.3030303,121574,space,1.286,"[""LeftButton_2""]",-0.300680272,-0.323913043,1,0,0,LeftButton_2,0,0,0,0,1,RightButton_2,11dot2.png,Smaller,Greater,,,,,,,,,,,,,,,,,,,,,,,,,,,,,,,,,,,,,,,,,,,,,
,,,,,,,,,,,,,,,,,,,,,,,,,,,,,,,R_7LzE0pjYtdObtSm,1,2024-05-14_19h29.45.084,interaction task,2021.2.3,MacIntel,30.3030303,121574,,,"[""RightButton_2""]",0.266666667,-0.326086957,1,0,0,RightButton_2,0,1,1,1,1,RightButton_2,11dot1.png,Smaller,Greater,,,,,,,,,,,,,,,,,,,,,,,,,,,,,,,,,,,,,,,,,,,,,
,,,,,,,,,,,,,,,,,,,,,,,,,,,,,,,R_7LzE0pjYtdObtSm,1,2024-05-14_19h29.45.084,interaction task,2021.2.3,MacIntel,30.3030303,121574,,,"[""RightButton_2""]",0.265306122,-0.306521739,1,0,0,RightButton_2,0,2,2,2,1,RightButton_2,11dot1.png,Smaller,Greater,,,,,,,,,,,,,,,,,,,,,,,,,,,,,,,,,,,,,,,,,,,,,
,,,,,,,,,,,,,,,,,,,,,,,,,,,,,,,R_7LzE0pjYtdObtSm,1,2024-05-14_19h29.45.084,interaction task,2021.2.3,MacIntel,30.3030303,121574,,,,,,,,,,,,,,,,,Smaller,Greater,0.4,0.276190476,-0.497826087,1,0,0,RightButton,"[""RightButton""]",,,,,,,3,2.095,space,0.321,6,2.924,,,,,,0,0,0,0,1,1,both_wrong.png,2,RandomDot24.png,No answer,21,,,,,,,,,
,,,,,,,,,,,,,,,,,,,,,,,,,,,,,,,R_7LzE0pjYtdObtSm,1,2024-05-14_19h29.45.084,interaction task,2021.2.3,MacIntel,30.3030303,121574,,,,,,,,,,,,,,,,,Greater,Smaller,,0.297959184,-0.497826087,1,0,0,RightButton,"[""RightButton""]",,,,,,,,,,,,,2.587095444,2.94,space,1.487665773,4.108,0,1,1,1,1,3,only_sub_wrong.png,3,RandomDot8.png,No answer,21,0.31,,,,,,,,
,,,,,,,,,,,,,,,,,,,,,,,,,,,,,,,R_7LzE0pjYtdObtSm,1,2024-05-14_19h29.45.084,interaction task,2021.2.3,MacIntel,30.3030303,121574,,,,,,,,,,,,,,,,,Greater,Smaller,,-0.299319728,-0.510869565,1,0,0,LeftButton,"[""LeftButton""]",,,,2.608843537,2.941,space,,,,,,,,,,,,0,2,2,2,1,2,only_sub_right.png,1,RandomDot32.png,No answer,19,,0.799,,,,,,,
,,,,,,,,,,,,,,,,,,,,,,,,,,,,,,,R_7LzE0pjYtdObtSm,1,2024-05-14_19h29.45.084,interaction task,2021.2.3,MacIntel,30.3030303,121574,,,,,,,,,,,,,,,,,Smaller,Greater,,0.306122449,-0.513043478,1,0,0,RightButton,"[""RightButton""]",,,,,,,1,2.603,space,0.422,1,3.823,,,,,,0,3,3,3,1,3,only_sub_wrong.png,2,RandomDot15.png,No answer,20,,,,,,,,,
,,,,,,,,,,,,,,,,,,,,,,,,,,,,,,,R_7LzE0pjYtdObtSm,1,2024-05-14_19h29.45.084,interaction task,2021.2.3,MacIntel,30.3030303,121574,,,,,,,,,,,,,,,,,Smaller,Greater,,-0.330612245,-0.539130435,1,0,0,LeftButton,"[""LeftButton""]",,,,,,,,,,,,,,,,,,0,4,4,4,1,0,both_right.png,3,RandomDot11.png,No answer,20,,,,,,,,,
,,,,,,,,,,,,,,,,,,,,,,,,,,,,,,,R_7LzE0pjYtdObtSm,1,2024-05-14_19h29.45.084,interaction task,2021.2.3,MacIntel,30.3030303,121574,,,,,,,,,,,,,,,,,Greater,Smaller,,-0.288435374,-0.517391304,1,0,0,LeftButton,"[""LeftButton""]",,,,,,,,,,,,,,,,,,0,5,5,5,1,4,both_right.png,10,RandomDot41.png,LeftButton,5,,,,,,,,,
,,,,,,,,,,,,,,,,,,,,,,,,,,,,,,,R_7LzE0pjYtdObtSm,1,2024-05-14_19h29.45.084,interaction task,2021.2.3,MacIntel,30.3030303,121574,,,,,,,,,,,,,,,,,Smaller,Greater,,-0.303401361,-0.519565217,1,0,0,LeftButton,"[""LeftButton""]",,,,,,,4,2.946,space,0.895,2,1.951,,,,,,0,6,6,6,1,3,only_sub_wrong.png,2,RandomDot31.png,No answer,19,,,,,,,,,
,,,,,,,,,,,,,,,,,,,,,,,,,,,,,,,R_7LzE0pjYtdObtSm,1,2024-05-14_19h29.45.084,interaction task,2021.2.3,MacIntel,30.3030303,121574,,,,,,,,,,,,,,,,,Greater,Smaller,,-0.280272109,-0.493478261,1,0,0,LeftButton,"[""LeftButton""]",5,1.721,space,,,,,,,,,,,,,,,0,7,7,7,1,3,only_sub_wrong.png,0,RandomDot12.png,No answer,20,,,0.488,,,,,,
,,,,,,,,,,,,,,,,,,,,,,,,,,,,,,,R_7LzE0pjYtdObtSm,1,2024-05-14_19h29.45.084,interaction task,2021.2.3,MacIntel,30.3030303,121574,,,,,,,,,,,,,,,,,Smaller,Greater,,-0.314285714,-0.473913043,1,0,0,LeftButton,"[""LeftButton""]",5,2.529,space,,,,,,,,,,,,,,,0,8,8,8,1,1,both_wrong.png,0,RandomDot39.png,No answer,21,,,0.443,,,,,,
,,,,,,,,,,,,,,,,,,,,,,,,,,,,,,,R_7LzE0pjYtdObtSm,1,2024-05-14_19h29.45.084,interaction task,2021.2.3,MacIntel,30.3030303,121574,,,,,,,,,,,,,,,,,Smaller,Greater,,0.247619048,-0.543478261,1,0,0,RightButton,"[""RightButton""]",,,,,,,4,1.75,space,0.265,2,2.748,,,,,,0,9,9,9,1,2,only_sub_right.png,2,RandomDot22.png,No answer,19,,,,,,,,,
,,,,,,,,,,,,,,,,,,,,,,,,,,,,,,,R_7LzE0pjYtdObtSm,1,2024-05-14_19h29.45.084,interaction task,2021.2.3,MacIntel,30.3030303,121574,,,,,,,,,,,,,,,,,Smaller,Greater,,-0.387755102,-0.510869565,1,0,0,LeftButton,"[""LeftButton""]",,,,,,,,,,,,,2.449666735,1.732,space,2.587095444,2.948,0,10,10,10,1,2,only_sub_right.png,3,RandomDot7.png,No answer,20,0.534,,,,,,,,
,,,,,,,,,,,,,,,,,,,,,,,,,,,,,,,R_7LzE0pjYtdObtSm,1,2024-05-14_19h29.45.084,interaction task,2021.2.3,MacIntel,30.3030303,121574,,,,,,,,,,,,,,,,,Greater,Smaller,,-0.259863946,-0.534782609,1,0,0,LeftButton,"[""LeftButton""]",,,,,,,,,,,,,95.76376005,7.661,space,1.350237065,3.458,0,11,11,11,1,2,only_sub_right.png,3,RandomDot10.png,No answer,19,5.7,,,,,,,,
,,,,,,,,,,,,,,,,,,,,,,,,,,,,,,,R_7LzE0pjYtdObtSm,1,2024-05-14_19h29.45.084,interaction task,2021.2.3,MacIntel,30.3030303,121574,,,,,,,,,,,,,,,,,Greater,Smaller,,0.300680272,-0.52173913,1,0,0,RightButton,"[""RightButton""]",,,,,,,2,4.278,space,0.896,5,7.247,,,,,,0,12,12,12,1,3,only_sub_wrong.png,2,RandomDot1.png,No answer,20,,,,,,,,,
,,,,,,,,,,,,,,,,,,,,,,,,,,,,,,,R_7LzE0pjYtdObtSm,1,2024-05-14_19h29.45.084,interaction task,2021.2.3,MacIntel,30.3030303,121574,,,,,,,,,,,,,,,,,Smaller,Greater,,-0.302040816,-0.473913043,1,0,0,LeftButton,"[""LeftButton""]",,,,2.921768707,1.942,space,,,,,,,,,,,,0,13,13,13,1,1,both_wrong.png,1,RandomDot10.png,No answer,19,,1.01,,,,,,,
,,,,,,,,,,,,,,,,,,,,,,,,,,,,,,,R_7LzE0pjYtdObtSm,1,2024-05-14_19h29.45.084,interaction task,2021.2.3,MacIntel,30.3030303,121574,,,,,,,,,,,,,,,,,Greater,Smaller,,-0.289795918,-0.523913043,1,0,0,LeftButton,"[""LeftButton""]",0,2.266,space,,,,,,,,,,,,,,,0,14,14,14,1,2,only_sub_right.png,0,RandomDot33.png,No answer,21,,,0.255,,,,,,
,,,,,,,,,,,,,,,,,,,,,,,,,,,,,,,R_7LzE0pjYtdObtSm,1,2024-05-14_19h29.45.084,interaction task,2021.2.3,MacIntel,30.3030303,121574,,,,,,,,,,,,,,,,,Smaller,Greater,,-0.281632653,-0.467391304,1,0,0,LeftButton,"[""LeftButton""]",,,,,,,,,,,,,92.87775716,3.853,space,2.037380609,6.26,0,15,15,15,1,3,only_sub_wrong.png,3,RandomDot36.png,No answer,21,0.213,,,,,,,,
,,,,,,,,,,,,,,,,,,,,,,,,,,,,,,,R_7LzE0pjYtdObtSm,1,2024-05-14_19h29.45.084,interaction task,2021.2.3,MacIntel,30.3030303,121574,,,,,,,,,,,,,,,,,Smaller,Greater,,0.268027211,-0.508695652,1,0,0,RightButton,"[""RightButton""]",,,,3.071428571,1.851,space,,,,,,,,,,,,0,16,16,16,1,2,only_sub_right.png,1,RandomDot25.png,No answer,19,,0.468,,,,,,,
,,,,,,,,,,,,,,,,,,,,,,,,,,,,,,,R_7LzE0pjYtdObtSm,1,2024-05-14_19h29.45.084,interaction task,2021.2.3,MacIntel,30.3030303,121574,,,,,,,,,,,,,,,,,Smaller,Greater,,0.307482993,-0.517391304,1,0,0,RightButton,"[""RightButton""]",,,,,,,,,,,,,,,,,,0,17,17,17,1,0,both_right.png,1,RandomDot3.png,No answer,19,,,,,,,,,
,,,,,,,,,,,,,,,,,,,,,,,,,,,,,,,R_7LzE0pjYtdObtSm,1,2024-05-14_19h29.45.084,interaction task,2021.2.3,MacIntel,30.3030303,121574,,,,,,,,,,,,,,,,,Greater,Smaller,,0.221768707,-0.530434783,1,0,0,RightButton,"[""RightButton""]",3,2.957,space,,,,,,,,,,,,,,,0,18,18,18,1,3,only_sub_wrong.png,0,RandomDot5.png,No answer,20,,,0.266,,,,,,
,,,,,,,,,,,,,,,,,,,,,,,,,,,,,,,R_7LzE0pjYtdObtSm,1,2024-05-14_19h29.45.084,interaction task,2021.2.3,MacIntel,30.3030303,121574,,,,,,,,,,,,,,,,,Greater,Smaller,,0.31292517,-0.532608696,1,0,0,RightButton,"[""RightButton""]",1,1.818,space,,,,,,,,,,,,,,,0,19,19,19,1,1,both_wrong.png,0,RandomDot24.png,No answer,21,,,0.258,,,,,,
,,,,,,,,,,,,,,,,,,,,,,,,,,,,,,,R_7LzE0pjYtdObtSm,1,2024-05-14_19h29.45.084,interaction task,2021.2.3,MacIntel,30.3030303,121574,,,,,,,,,,,,,,,,,Smaller,Greater,,0.278911565,-0.515217391,1,0,0,RightButton,"[""RightButton""]",,,,2.119047619,1.475,space,,,,,,,,,,,,0,20,20,20,1,2,only_sub_right.png,1,RandomDot34.png,No answer,19,,0.645,,,,,,,
,,,,,,,,,,,,,,,,,,,,,,,,,,,,,,,R_7LzE0pjYtdObtSm,1,2024-05-14_19h29.45.084,interaction task,2021.2.3,MacIntel,30.3030303,121574,,,,,,,,,,,,,,,,,Smaller,Greater,,-0.07755102,0.015217391,0,0,0,,[],,,,,,,,,,,,,,,,,,0,21,21,21,1,1,both_wrong.png,0,RandomDot28.png,No answer,19,,,,55,,,,,
,,,,,,,,,,,,,,,,,,,,,,,,,,,,,,,R_7LzE0pjYtdObtSm,1,2024-05-14_19h29.45.084,interaction task,2021.2.3,MacIntel,30.3030303,121574,,,,,,,,,,,,,,,,,Greater,Smaller,,-0.246258503,-0.473913043,1,0,0,LeftButton,"[""LeftButton""]",,,,3.030612245,7.137,space,,,,,,,,,,,,0,22,22,22,1,3,only_sub_wrong.png,1,RandomDot1.png,No answer,19,,1.627,,,,,,,
,,,,,,,,,,,,,,,,,,,,,,,,,,,,,,,R_7LzE0pjYtdObtSm,1,2024-05-14_19h29.45.084,interaction task,2021.2.3,MacIntel,30.3030303,121574,,,,,,,,,,,,,,,,,Smaller,Greater,,0.250340136,-0.52826087,1,0,0,RightButton,"[""RightButton""]",,,,2.976190476,1.543,space,,,,,,,,,,,,0,23,23,23,1,3,only_sub_wrong.png,1,RandomDot15.png,No answer,21,,1.31,,,,,,,
,,,,,,,,,,,,,,,,,,,,,,,,,,,,,,,R_7LzE0pjYtdObtSm,1,2024-05-14_19h29.45.084,interaction task,2021.2.3,MacIntel,30.3030303,121574,,,,,,,,,,,,,,,,,Greater,Smaller,,0.244897959,-0.491304348,1,0,0,RightButton,"[""RightButton""]",0,3.967,space,,,,,,,,,,,,,,,0,24,24,24,1,2,only_sub_right.png,0,RandomDot26.png,No answer,19,,,0.545,,,,,,
,,,,,,,,,,,,,,,,,,,,,,,,,,,,,,,R_7LzE0pjYtdObtSm,1,2024-05-14_19h29.45.084,interaction task,2021.2.3,MacIntel,30.3030303,121574,,,,,,,,,,,,,,,,,Smaller,Greater,,-0.263945578,-0.534782609,1,0,0,LeftButton,"[""LeftButton""]",,,,,,,,,,,,,0.388236103,3.953,space,0.250807394,5.081,0,25,25,25,1,2,only_sub_right.png,3,RandomDot30.png,No answer,20,0.261,,,,,,,,
,,,,,,,,,,,,,,,,,,,,,,,,,,,,,,,R_7LzE0pjYtdObtSm,1,2024-05-14_19h29.45.084,interaction task,2021.2.3,MacIntel,30.3030303,121574,,,,,,,,,,,,,,,,,Greater,Smaller,,-0.284353741,-0.510869565,1,0,0,LeftButton,"[""LeftButton""]",,,,,,,,,,,,,0,1.381,space,0.388236103,2.682,0,26,26,26,1,3,only_sub_wrong.png,3,RandomDot3.png,No answer,19,0.275,,,,,,,,
,,,,,,,,,,,,,,,,,,,,,,,,,,,,,,,R_7LzE0pjYtdObtSm,1,2024-05-14_19h29.45.084,interaction task,2021.2.3,MacIntel,30.3030303,121574,,,,,,,,,,,,,,,,,Greater,Smaller,,-0.333333333,-0.497826087,1,0,0,LeftButton,"[""LeftButton""]",,,,,,,2,1.569,space,0.261,1,2.39,,,,,,0,27,27,27,1,2,only_sub_right.png,2,RandomDot36.png,No answer,21,,,,,,,,,
,,,,,,,,,,,,,,,,,,,,,,,,,,,,,,,R_7LzE0pjYtdObtSm,1,2024-05-14_19h29.45.084,interaction task,2021.2.3,MacIntel,30.3030303,121574,,,,,,,,,,,,,,,,,Smaller,Greater,,-0.485714286,-0.3,0,0,0,,[],,,,,,,,,,,,,,,,,,0,28,28,28,1,1,both_wrong.png,3,RandomDot12.png,No answer,21,,,,93,,,,,
,,,,,,,,,,,,,,,,,,,,,,,,,,,,,,,R_7LzE0pjYtdObtSm,1,2024-05-14_19h29.45.084,interaction task,2021.2.3,MacIntel,30.3030303,121574,,,,,,,,,,,,,,,,,Smaller,Greater,,-0.361904762,-0.508695652,1,0,0,LeftButton,"[""LeftButton""]",,,,3.003401361,12.419,space,,,,,,,,,,,,0,29,29,29,1,3,only_sub_wrong.png,1,RandomDot40.png,No answer,19,,6.421,,,,,,,
,,,,,,,,,,,,,,,,,,,,,,,,,,,,,,,R_7LzE0pjYtdObtSm,1,2024-05-14_19h29.45.084,interaction task,2021.2.3,MacIntel,30.3030303,121574,,,,,,,,,,,,,,,,,Smaller,Greater,,0.100680272,-0.013043478,0,0,0,,[],,,,,,,,,,,,,,,,,,0,30,30,30,1,1,both_wrong.png,3,RandomDot29.png,No answer,19,,,,90,,,,,
,,,,,,,,,,,,,,,,,,,,,,,,,,,,,,,R_7LzE0pjYtdObtSm,1,2024-05-14_19h29.45.084,interaction task,2021.2.3,MacIntel,30.3030303,121574,,,,,,,,,,,,,,,,,Greater,Smaller,,-0.26122449,-0.523913043,1,0,0,LeftButton,"[""LeftButton""]",0,2.307,space,,,,,,,,,,,,,,,0,31,31,31,1,3,only_sub_wrong.png,0,RandomDot15.png,No answer,20,,,0.144,,,,,,
,,,,,,,,,,,,,,,,,,,,,,,,,,,,,,,R_7LzE0pjYtdObtSm,1,2024-05-14_19h29.45.084,interaction task,2021.2.3,MacIntel,30.3030303,121574,,,,,,,,,,,,,,,,,Smaller,Greater,,-0.250340136,-0.508695652,1,0,0,LeftButton,"[""LeftButton""]",,,,,,,,,,,,,,,,,,0,32,32,32,1,5,both_right.png,10,RandomDot42.png,LeftButton,21,,,,,,,,,
,,,,,,,,,,,,,,,,,,,,,,,,,,,,,,,R_7LzE0pjYtdObtSm,1,2024-05-14_19h29.45.084,interaction task,2021.2.3,MacIntel,30.3030303,121574,,,,,,,,,,,,,,,,,Greater,Smaller,,0.234013605,-0.523913043,1,0,0,RightButton,"[""RightButton""]",,,,,,,2,3.187,space,0.486,2,4.066,,,,,,0,33,33,33,1,2,only_sub_right.png,2,RandomDot20.png,No answer,20,,,,,,,,,
,,,,,,,,,,,,,,,,,,,,,,,,,,,,,,,R_7LzE0pjYtdObtSm,1,2024-05-14_19h29.45.084,interaction task,2021.2.3,MacIntel,30.3030303,121574,,,,,,,,,,,,,,,,,Smaller,Greater,,0.265306122,-0.52173913,1,0,0,RightButton,"[""RightButton""]",,,,,,,,,,,,,,,,,,0,34,34,34,1,0,both_right.png,2,RandomDot29.png,No answer,20,,,,,,,,,
,,,,,,,,,,,,,,,,,,,,,,,,,,,,,,,R_7LzE0pjYtdObtSm,1,2024-05-14_19h29.45.084,interaction task,2021.2.3,MacIntel,30.3030303,121574,,,,,,,,,,,,,,,,,Smaller,Greater,,0.206802721,-0.530434783,1,0,0,RightButton,"[""RightButton""]",,,,,,,,,,,,,2.312238027,1.315,space,2.312238027,2.133,0,35,35,35,1,1,both_wrong.png,3,RandomDot23.png,No answer,20,0.643,,,,,,,,
,,,,,,,,,,,,,,,,,,,,,,,,,,,,,,,R_7LzE0pjYtdObtSm,1,2024-05-14_19h29.45.084,interaction task,2021.2.3,MacIntel,30.3030303,121574,,,,,,,,,,,,,,,,,Smaller,Greater,,-0.247619048,-0.52826087,1,0,0,LeftButton,"[""LeftButton""]",,,,,,,,,,,,,,,,,,0,36,36,36,1,0,both_right.png,0,RandomDot22.png,No answer,19,,,,,,,,,
,,,,,,,,,,,,,,,,,,,,,,,,,,,,,,,R_7LzE0pjYtdObtSm,1,2024-05-14_19h29.45.084,interaction task,2021.2.3,MacIntel,30.3030303,121574,,,,,,,,,,,,,,,,,Smaller,Greater,,-0.276190476,-0.5,1,0,0,LeftButton,"[""LeftButton""]",,,,3.057823129,1.361,space,,,,,,,,,,,,0,37,37,37,1,1,both_wrong.png,1,RandomDot14.png,No answer,20,,0.328,,,,,,,
,,,,,,,,,,,,,,,,,,,,,,,,,,,,,,,R_7LzE0pjYtdObtSm,1,2024-05-14_19h29.45.084,interaction task,2021.2.3,MacIntel,30.3030303,121574,,,,,,,,,,,,,,,,,Greater,Smaller,,-0.266666667,-0.493478261,1,0,0,LeftButton,"[""LeftButton""]",,,,,,,4,3.302,space,0.268,4,4.185,,,,,,0,38,38,38,1,1,both_wrong.png,2,RandomDot13.png,No answer,21,,,,,,,,,
,,,,,,,,,,,,,,,,,,,,,,,,,,,,,,,R_7LzE0pjYtdObtSm,1,2024-05-14_19h29.45.084,interaction task,2021.2.3,MacIntel,30.3030303,121574,,,,,,,,,,,,,,,,,Smaller,Greater,,0.273469388,-0.473913043,1,0,0,RightButton,"[""RightButton""]",,,,,,,3,2.411,space,0.277,5,3.302,,,,,,0,39,39,39,1,1,both_wrong.png,2,RandomDot19.png,No answer,19,,,,,,,,,
,,,,,,,,,,,,,,,,,,,,,,,,,,,,,,,R_7LzE0pjYtdObtSm,1,2024-05-14_19h29.45.084,interaction task,2021.2.3,MacIntel,30.3030303,121574,,,,,,,,,,,,,,,,,Greater,Smaller,,0.307482993,-0.489130435,1,0,0,RightButton,"[""RightButton""]",,,,2.942176871,1.536,space,,,,,,,,,,,,0,40,40,40,1,1,both_wrong.png,1,RandomDot28.png,No answer,21,,0.363,,,,,,,
,,,,,,,,,,,,,,,,,,,,,,,,,,,,,,,R_7LzE0pjYtdObtSm,1,2024-05-14_19h29.45.084,interaction task,2021.2.3,MacIntel,30.3030303,121574,,,,,,,,,,,,,,,,,Smaller,Greater,,0.219047619,-0.510869565,1,0,0,RightButton,"[""RightButton""]",0,1.304,space,,,,,,,,,,,,,,,0,41,41,41,1,2,only_sub_right.png,0,RandomDot37.png,No answer,21,,,0.143,,,,,,
,,,,,,,,,,,,,,,,,,,,,,,,,,,,,,,R_7LzE0pjYtdObtSm,1,2024-05-14_19h29.45.084,interaction task,2021.2.3,MacIntel,30.3030303,121574,,,,,,,,,,,,,,,,,Smaller,Greater,,-0.278911565,-0.480434783,1,0,0,LeftButton,"[""LeftButton""]",3,1.233,space,,,,,,,,,,,,,,,,,,,,1,both_wrong.png,0,RandomDot28.png,No answer,19,,,0.21,,0,0,0,0,1
,,,,,,,,,,,,,,,,,,,,,,,,,,,,,,,R_7LzE0pjYtdObtSm,1,2024-05-14_19h29.45.084,interaction task,2021.2.3,MacIntel,30.3030303,121574,,,,,,,,,,,,,,,,,Smaller,Greater,,-0.263945578,-0.495652174,1,0,0,LeftButton,"[""LeftButton""]",,,,,,,,,,,,,1.487665773,1.348,space,1.8999519,2.458,,,,,,1,both_wrong.png,3,RandomDot12.png,No answer,21,0.319,,,,0,1,1,1,1
,,,,,,,,,,,,,,,,,,,,,,,,,,,,,,,R_7LzE0pjYtdObtSm,1,2024-05-14_19h29.45.084,interaction task,2021.2.3,MacIntel,30.3030303,121574,,,,,,,,,,,,,,,,,Smaller,Greater,,0.292517007,-0.495652174,1,0,0,RightButton,"[""RightButton""]",,,,,,,,,,,,,1.075379647,1.416,space,0.800522229,2.505,,,,,,1,both_wrong.png,3,RandomDot29.png,No answer,19,0.254,,,,0,2,2,2,1
