choose_trial,key_resp.keys,key_resp.rt,key_resp_4.keys,key_resp_4.rt,session_trait,slider_face_judge.response,slider_face_judge.rt,key_resp_3.keys,key_resp_3.rt,face_loop.thisRepN,face_loop.thisTrialN,face_loop.thisN,face_loop.thisIndex,face_loop.ran,face_serial,image_name,isCheck,answer,check_question,participant,session,date,expName,psychopyVersion,OS,frameRate,SONAid,session.thisRepN,session.thisTrialN,session.thisN,session.thisIndex,session.ran,session_serial,slider_judge_img
"[0,1,2,3,4,5,6,7,8,9,10,11,12,13,14,15,16,17,18,19,20,21,22,23,24,25,26,27,28,29,30,31,32,33,34,35,36,37,38,39,40,41,42,43,44,45,46,47,48,49,56,56,59]",space,1.075,space,0.412,competent,5.043478261,3.515,space,0.65,0,0,0,5,1,6,image/6.jpg,0,0,,R_7LzE0pjYtdObtSm,2,2024-05-14_19h42.00.982,face trait task,2021.2.3,MacIntel,29.41176471,121574,,,,,,,
,,,,,,4.991304348,1.396,space,0.998,0,1,1,46,1,47,image/47.jpg,0,0,,R_7LzE0pjYtdObtSm,2,2024-05-14_19h42.00.982,face trait task,2021.2.3,MacIntel,29.41176471,121574,,,,,,,
,,,,,,5.989130435,3.944,space,0.313,0,2,2,27,1,28,image/28.jpg,0,0,,R_7LzE0pjYtdObtSm,2,2024-05-14_19h42.00.982,face trait task,2021.2.3,MacIntel,29.41176471,121574,,,,,,,
,,,,,,4.006521739,7.587,space,2.092,0,3,3,29,1,30,image/30.jpg,0,0,,R_7LzE0pjYtdObtSm,2,2024-05-14_19h42.00.982,face trait task,2021.2.3,MacIntel,29.41176471,121574,,,,,,,
,,,,,,6.973913043,4.82,space,0.588,0,4,4,51,1,57,image/fill_img.png,1,7,Please move the slider all the way to the RIGHT to show that you are paying attention.,R_7LzE0pjYtdObtSm,2,2024-05-14_19h42.00.982,face trait task,2021.2.3,MacIntel,29.41176471,121574,,,,,,,
,,,,,,6.941304348,11.454,space,0.634,0,5,5,9,1,10,image/10.jpg,0,0,,R_7LzE0pjYtdObtSm,2,2024-05-14_19h42.00.982,face trait task,2021.2.3,MacIntel,29.41176471,121574,,,,,,,
,,,,,,6.002173913,3.021,space,0.322,0,6,6,7,1,8,image/8.jpg,0,0,,R_7LzE0pjYtdObtSm,2,2024-05-14_19h42.00.982,face trait task,2021.2.3,MacIntel,29.41176471,121574,,,,,,,
,,,,,,3.034782609,1.655,space,0.442,0,7,7,2,1,3,image/3.jpg,0,0,,R_7LzE0pjYtdObtSm,2,2024-05-14_19h42.00.982,face trait task,2021.2.3,MacIntel,29.41176471,121574,,,,,,,
,,,,,,4.906521739,1.707,space,1.195,0,8,8,14,1,15,image/15.jpg,0,0,,R_7LzE0pjYtdObtSm,2,2024-05-14_19h42.00.982,face trait task,2021.2.3,MacIntel,29.41176471,121574,,,,,,,
,,,,,,6.973913043,3.404,space,0.578,0,9,9,50,1,57,image/fill_img.png,1,7,Please move the slider all the way to the RIGHT to show that you are paying attention.,R_7LzE0pjYtdObtSm,2,2024-05-14_19h42.00.982,face trait task,2021.2.3,MacIntel,29.41176471,121574,,,,,,,
,,,,,,4.019565217,1.665,space,0.335,0,10,10,38,1,39,image/39.jpg,0,0,,R_7LzE0pjYtdObtSm,2,2024-05-14_19h42.00.982,face trait task,2021.2.3,MacIntel,29.41176471,121574,,,,,,,
,,,,,,5.010869565,1.489,space,0.431,0,11,11,26,1,27,image/27.jpg,0,0,,R_7LzE0pjYtdObtSm,2,2024-05-14_19h42.00.982,face trait task,2021.2.3,MacIntel,29.41176471,121574,,,,,,,
,,,,,,5.010869565,3.193,space,0.41,0,12,12,31,1,32,image/32.jpg,0,0,,R_7LzE0pjYtdObtSm,2,2024-05-14_19h42.00.982,face trait task,2021.2.3,MacIntel,29.41176471,121574,,,,,,,
,,,,,,2.943478261,1.784,space,0.389,0,13,13,23,1,24,image/24.jpg,0,0,,R_7LzE0pjYtdObtSm,2,2024-05-14_19h42.00.982,face trait task,2021.2.3,MacIntel,29.41176471,121574,,,,,,,
,,,,,,5.043478261,2.378,space,0.309,0,14,14,25,1,26,image/26.jpg,0,0,,R_7LzE0pjYtdObtSm,2,2024-05-14_19h42.00.982,face trait task,2021.2.3,MacIntel,29.41176471,121574,,,,,,,
,,,,,,5.043478261,1.172,space,0.386,0,15,15,24,1,25,image/25.jpg,0,0,,R_7LzE0pjYtdObtSm,2,2024-05-14_19h42.00.982,face trait task,2021.2.3,MacIntel,29.41176471,121574,,,,,,,
,,,,,,5.010869565,1.45,space,0.389,0,16,16,6,1,7,image/7.jpg,0,0,,R_7LzE0pjYtdObtSm,2,2024-05-14_19h42.00.982,face trait task,2021.2.3,MacIntel,29.41176471,121574,,,,,,,
,,,,,,6.008695652,1.951,space,0.342,0,17,17,20,1,21,image/21.jpg,0,0,,R_7LzE0pjYtdObtSm,2,2024-05-14_19h42.00.982,face trait task,2021.2.3,MacIntel,29.41176471,121574,,,,,,,
,,,,,,5.056521739,1.919,space,0.43,0,18,18,3,1,4,image/4.jpg,0,0,,R_7LzE0pjYtdObtSm,2,2024-05-14_19h42.00.982,face trait task,2021.2.3,MacIntel,29.41176471,121574,,,,,,,
,,,,,,5.897826087,2.569,space,0.476,0,19,19,12,1,13,image/13.jpg,0,0,,R_7LzE0pjYtdObtSm,2,2024-05-14_19h42.00.982,face trait task,2021.2.3,MacIntel,29.41176471,121574,,,,,,,
,,,,,,2.95,1.606,space,0.31,0,20,20,37,1,38,image/38.jpg,0,0,,R_7LzE0pjYtdObtSm,2,2024-05-14_19h42.00.982,face trait task,2021.2.3,MacIntel,29.41176471,121574,,,,,,,
,,,,,,2.95,1.097,space,0.334,0,21,21,36,1,37,image/37.jpg,0,0,,R_7LzE0pjYtdObtSm,2,2024-05-14_19h42.00.982,face trait task,2021.2.3,MacIntel,29.41176471,121574,,,,,,,
,,,,,,3.941304348,1.325,space,0.311,0,22,22,21,1,22,image/22.jpg,0,0,,R_7LzE0pjYtdObtSm,2,2024-05-14_19h42.00.982,face trait task,2021.2.3,MacIntel,29.41176471,121574,,,,,,,
,,,,,,4.07173913,2.194,space,0.677,0,23,23,42,1,43,image/43.jpg,0,0,,R_7LzE0pjYtdObtSm,2,2024-05-14_19h42.00.982,face trait task,2021.2.3,MacIntel,29.41176471,121574,,,,,,,
,,,,,,6.993478261,4.068,space,0.521,0,24,24,52,1,60,image/fill_img.png,1,7,Please move the slider all the way to the RIGHT to show that you are paying attention.,R_7LzE0pjYtdObtSm,2,2024-05-14_19h42.00.982,face trait task,2021.2.3,MacIntel,29.41176471,121574,,,,,,,
,,,,,,2.936956522,1.763,space,0.413,0,25,25,32,1,33,image/33.jpg,0,0,,R_7LzE0pjYtdObtSm,2,2024-05-14_19h42.00.982,face trait task,2021.2.3,MacIntel,29.41176471,121574,,,,,,,
,,,,,,4.97173913,2.005,space,0.342,0,26,26,49,1,50,image/50.jpg,0,0,,R_7LzE0pjYtdObtSm,2,2024-05-14_19h42.00.982,face trait task,2021.2.3,MacIntel,29.41176471,121574,,,,,,,
,,,,,,4.019565217,1.888,space,0.254,0,27,27,43,1,44,image/44.jpg,0,0,,R_7LzE0pjYtdObtSm,2,2024-05-14_19h42.00.982,face trait task,2021.2.3,MacIntel,29.41176471,121574,,,,,,,
,,,,,,4.97826087,1.466,space,0.285,0,28,28,39,1,40,image/40.jpg,0,0,,R_7LzE0pjYtdObtSm,2,2024-05-14_19h42.00.982,face trait task,2021.2.3,MacIntel,29.41176471,121574,,,,,,,
,,,,,,2.95,1.678,space,0.331,0,29,29,1,1,2,image/2.jpg,0,0,,R_7LzE0pjYtdObtSm,2,2024-05-14_19h42.00.982,face trait task,2021.2.3,MacIntel,29.41176471,121574,,,,,,,
,,,,,,3.993478261,2.738,space,0.235,0,30,30,30,1,31,image/31.jpg,0,0,,R_7LzE0pjYtdObtSm,2,2024-05-14_19h42.00.982,face trait task,2021.2.3,MacIntel,29.41176471,121574,,,,,,,
,,,,,,3.002173913,1.637,space,0.254,0,31,31,47,1,48,image/48.jpg,0,0,,R_7LzE0pjYtdObtSm,2,2024-05-14_19h42.00.982,face trait task,2021.2.3,MacIntel,29.41176471,121574,,,,,,,
,,,,,,3.973913043,2.459,space,0.267,0,32,32,10,1,11,image/11.jpg,0,0,,R_7LzE0pjYtdObtSm,2,2024-05-14_19h42.00.982,face trait task,2021.2.3,MacIntel,29.41176471,121574,,,,,,,
,,,,,,2.956521739,1.697,space,0.399,0,33,33,22,1,23,image/23.jpg,0,0,,R_7LzE0pjYtdObtSm,2,2024-05-14_19h42.00.982,face trait task,2021.2.3,MacIntel,29.41176471,121574,,,,,,,
,,,,,,4.952173913,1.626,space,0.396,0,34,34,0,1,1,image/1.jpg,0,0,,R_7LzE0pjYtdObtSm,2,2024-05-14_19h42.00.982,face trait task,2021.2.3,MacIntel,29.41176471,121574,,,,,,,
,,,,,,4.952173913,1.75,space,0.465,0,35,35,11,1,12,image/12.jpg,0,0,,R_7LzE0pjYtdObtSm,2,2024-05-14_19h42.00.982,face trait task,2021.2.3,MacIntel,29.41176471,121574,,,,,,,
,,,,,,4.991304348,1.287,space,0.36,0,36,36,48,1,49,image/49.jpg,0,0,,R_7LzE0pjYtdObtSm,2,2024-05-14_19h42.00.982,face trait task,2021.2.3,MacIntel,29.41176471,121574,,,,,,,
,,,,,,4.013043478,1.568,space,0.264,0,37,37,45,1,46,image/46.jpg,0,0,,R_7LzE0pjYtdObtSm,2,2024-05-14_19h42.00.982,face trait task,2021.2.3,MacIntel,29.41176471,121574,,,,,,,
,,,,,,3.02826087,1.272,space,0.314,0,38,38,40,1,41,image/41.jpg,0,0,,R_7LzE0pjYtdObtSm,2,2024-05-14_19h42.00.982,face trait task,2021.2.3,MacIntel,29.41176471,121574,,,,,,,
,,,,,,2.989130435,1.006,space,0.69,0,39,39,28,1,29,image/29.jpg,0,0,,R_7LzE0pjYtdObtSm,2,2024-05-14_19h42.00.982,face trait task,2021.2.3,MacIntel,29.41176471,121574,,,,,,,
,,,,,,5.063043478,1.423,space,0.365,0,40,40,17,1,18,image/18.jpg,0,0,,R_7LzE0pjYtdObtSm,2,2024-05-14_19h42.00.982,face trait task,2021.2.3,MacIntel,29.41176471,121574,,,,,,,
,,,,,,4.984782609,1.453,space,0.297,0,41,41,16,1,17,image/17.jpg,0,0,,R_7LzE0pjYtdObtSm,2,2024-05-14_19h42.00.982,face trait task,2021.2.3,MacIntel,29.41176471,121574,,,,,,,
,,,,,,4.052173913,2.851,space,0.321,0,42,42,4,1,5,image/5.jpg,0,0,,R_7LzE0pjYtdObtSm,2,2024-05-14_19h42.00.982,face trait task,2021.2.3,MacIntel,29.41176471,121574,,,,,,,
,,,,,,5.017391304,1.262,space,0.301,0,43,43,13,1,14,image/14.jpg,0,0,,R_7LzE0pjYtdObtSm,2,2024-05-14_19h42.00.982,face trait task,2021.2.3,MacIntel,29.41176471,121574,,,,,,,
,,,,,,5.017391304,0.94,space,0.276,0,44,44,18,1,19,image/19.jpg,0,0,,R_7LzE0pjYtdObtSm,2,2024-05-14_19h42.00.982,face trait task,2021.2.3,MacIntel,29.41176471,121574,,,,,,,
,,,,,,3.973913043,1.832,space,0.25,0,45,45,33,1,34,image/34.jpg,0,0,,R_7LzE0pjYtdObtSm,2,2024-05-14_19h42.00.982,face trait task,2021.2.3,MacIntel,29.41176471,121574,,,,,,,
,,,,,,3.954347826,1.231,space,0.32,0,46,46,35,1,36,image/36.jpg,0,0,,R_7LzE0pjYtdObtSm,2,2024-05-14_19h42.00.982,face trait task,2021.2.3,MacIntel,29.41176471,121574,,,,,,,
,,,,,,5.05,1.439,space,0.335,0,47,47,19,1,20,image/20.jpg,0,0,,R_7LzE0pjYtdObtSm,2,2024-05-14_19h42.00.982,face trait task,2021.2.3,MacIntel,29.41176471,121574,,,,,,,
,,,,,,3.960869565,1.83,space,0.255,0,48,48,15,1,16,image/16.jpg,0,0,,R_7LzE0pjYtdObtSm,2,2024-05-14_19h42.00.982,face trait task,2021.2.3,MacIntel,29.41176471,121574,,,,,,,
,,,,,,3.034782609,2,space,0.373,0,49,49,34,1,35,image/35.jpg,0,0,,R_7LzE0pjYtdObtSm,2,2024-05-14_19h42.00.982,face trait task,2021.2.3,MacIntel,29.41176471,121574,,,,,,,
,,,,,,4.006521739,1.871,space,0.2,0,50,50,44,1,45,image/45.jpg,0,0,,R_7LzE0pjYtdObtSm,2,2024-05-14_19h42.00.982,face trait task,2021.2.3,MacIntel,29.41176471,121574,,,,,,,
,,,,,,5.017391304,2.393,space,0.275,0,51,51,8,1,9,image/9.jpg,0,0,,R_7LzE0pjYtdObtSm,2,2024-05-14_19h42.00.982,face trait task,2021.2.3,MacIntel,29.41176471,121574,,,,,,,
,,,,,,5.004347826,1.417,space,0.42,0,52,52,41,1,42,image/42.jpg,0,0,,R_7LzE0pjYtdObtSm,2,2024-05-14_19h42.00.982,face trait task,2021.2.3,MacIntel,29.41176471,121574,,,,,,,
,,,,,,,,,,,,,,,,,,,,R_7LzE0pjYtdObtSm,2,2024-05-14_19h42.00.982,face trait task,2021.2.3,MacIntel,29.41176471,121574,0,0,0,1,1,1,competent.png
,,,,,friendly,5.023913043,2.881,space,0.575,0,0,0,45,1,46,image/46.jpg,0,0,,R_7LzE0pjYtdObtSm,2,2024-05-14_19h42.00.982,face trait task,2021.2.3,MacIntel,29.41176471,121574,,,,,,,
,,,,,,3.993478261,1.854,space,0.327,0,1,1,33,1,34,image/34.jpg,0,0,,R_7LzE0pjYtdObtSm,2,2024-05-14_19h42.00.982,face trait task,2021.2.3,MacIntel,29.41176471,121574,,,,,,,
,,,,,,5.004347826,1.733,space,0.501,0,2,2,34,1,35,image/35.jpg,0,0,,R_7LzE0pjYtdObtSm,2,2024-05-14_19h42.00.982,face trait task,2021.2.3,MacIntel,29.41176471,121574,,,,,,,
,,,,,,3.993478261,2.019,space,0.277,0,3,3,20,1,21,image/21.jpg,0,0,,R_7LzE0pjYtdObtSm,2,2024-05-14_19h42.00.982,face trait task,2021.2.3,MacIntel,29.41176471,121574,,,,,,,
,,,,,,4.997826087,2.633,space,0.333,0,4,4,25,1,26,image/26.jpg,0,0,,R_7LzE0pjYtdObtSm,2,2024-05-14_19h42.00.982,face trait task,2021.2.3,MacIntel,29.41176471,121574,,,,,,,
,,,,,,3.02173913,1.876,space,0.353,0,5,5,12,1,13,image/13.jpg,0,0,,R_7LzE0pjYtdObtSm,2,2024-05-14_19h42.00.982,face trait task,2021.2.3,MacIntel,29.41176471,121574,,,,,,,
,,,,,,4.991304348,2.567,space,0.285,0,6,6,7,1,8,image/8.jpg,0,0,,R_7LzE0pjYtdObtSm,2,2024-05-14_19h42.00.982,face trait task,2021.2.3,MacIntel,29.41176471,121574,,,,,,,
,,,,,,2.995652174,1.688,space,0.309,0,7,7,15,1,16,image/16.jpg,0,0,,R_7LzE0pjYtdObtSm,2,2024-05-14_19h42.00.982,face trait task,2021.2.3,MacIntel,29.41176471,121574,,,,,,,
,,,,,,6.993478261,5.353,space,1.165,0,8,8,52,1,60,image/fill_img.png,1,7,Please move the slider all the way to the RIGHT to show that you are paying attention.,R_7LzE0pjYtdObtSm,2,2024-05-14_19h42.00.982,face trait task,2021.2.3,MacIntel,29.41176471,121574,,,,,,,
,,,,,,3.047826087,3.368,space,0.445,0,9,9,4,1,5,image/5.jpg,0,0,,R_7LzE0pjYtdObtSm,2,2024-05-14_19h42.00.982,face trait task,2021.2.3,MacIntel,29.41176471,121574,,,,,,,
,,,,,,6.002173913,2.578,space,1.207,0,10,10,48,1,49,image/49.jpg,0,0,,R_7LzE0pjYtdObtSm,2,2024-05-14_19h42.00.982,face trait task,2021.2.3,MacIntel,29.41176471,121574,,,,,,,
,,,,,,6.973913043,1.839,space,0.365,0,11,11,50,1,57,image/fill_img.png,1,7,Please move the slider all the way to the RIGHT to show that you are paying attention.,R_7LzE0pjYtdObtSm,2,2024-05-14_19h42.00.982,face trait task,2021.2.3,MacIntel,29.41176471,121574,,,,,,,
,,,,,,2.030434783,2.108,space,0.293,0,12,12,1,1,2,image/2.jpg,0,0,,R_7LzE0pjYtdObtSm,2,2024-05-14_19h42.00.982,face trait task,2021.2.3,MacIntel,29.41176471,121574,,,,,,,
,,,,,,5.095652174,1.761,space,0.541,0,13,13,43,1,44,image/44.jpg,0,0,,R_7LzE0pjYtdObtSm,2,2024-05-14_19h42.00.982,face trait task,2021.2.3,MacIntel,29.41176471,121574,,,,,,,
,,,,,,5.056521739,1.753,space,0.32,0,14,14,24,1,25,image/25.jpg,0,0,,R_7LzE0pjYtdObtSm,2,2024-05-14_19h42.00.982,face trait task,2021.2.3,MacIntel,29.41176471,121574,,,,,,,
,,,,,,5.017391304,3.485,space,2.287,0,15,15,2,1,3,image/3.jpg,0,0,,R_7LzE0pjYtdObtSm,2,2024-05-14_19h42.00.982,face trait task,2021.2.3,MacIntel,29.41176471,121574,,,,,,,
,,,,,,5.017391304,1.299,space,0.642,0,16,16,42,1,43,image/43.jpg,0,0,,R_7LzE0pjYtdObtSm,2,2024-05-14_19h42.00.982,face trait task,2021.2.3,MacIntel,29.41176471,121574,,,,,,,
,,,,,,5.010869565,1.301,space,0.335,0,17,17,9,1,10,image/10.jpg,0,0,,R_7LzE0pjYtdObtSm,2,2024-05-14_19h42.00.982,face trait task,2021.2.3,MacIntel,29.41176471,121574,,,,,,,
,,,,,,4.984782609,7.905,space,3.521,0,18,18,39,1,40,image/40.jpg,0,0,,R_7LzE0pjYtdObtSm,2,2024-05-14_19h42.00.982,face trait task,2021.2.3,MacIntel,29.41176471,121574,,,,,,,
,,,,,,5.565217391,3.325,space,1.599,0,19,19,5,1,6,image/6.jpg,0,0,,R_7LzE0pjYtdObtSm,2,2024-05-14_19h42.00.982,face trait task,2021.2.3,MacIntel,29.41176471,121574,,,,,,,
,,,,,,5.532608696,1.575,space,0.298,0,20,20,40,1,41,image/41.jpg,0,0,,R_7LzE0pjYtdObtSm,2,2024-05-14_19h42.00.982,face trait task,2021.2.3,MacIntel,29.41176471,121574,,,,,,,
,,,,,,6.967391304,1.572,space,0.42,0,21,21,51,1,57,image/fill_img.png,1,7,Please move the slider all the way to the RIGHT to show that you are paying attention.,R_7LzE0pjYtdObtSm,2,2024-05-14_19h42.00.982,face trait task,2021.2.3,MacIntel,29.41176471,121574,,,,,,,
,,,,,,4.97173913,1.712,space,0.28,0,22,22,11,1,12,image/12.jpg,0,0,,R_7LzE0pjYtdObtSm,2,2024-05-14_19h42.00.982,face trait task,2021.2.3,MacIntel,29.41176471,121574,,,,,,,
,,,,,,5.063043478,3.119,space,0.297,0,23,23,49,1,50,image/50.jpg,0,0,,R_7LzE0pjYtdObtSm,2,2024-05-14_19h42.00.982,face trait task,2021.2.3,MacIntel,29.41176471,121574,,,,,,,
,,,,,,4.991304348,4.888,space,1.029,0,24,24,13,1,14,image/14.jpg,0,0,,R_7LzE0pjYtdObtSm,2,2024-05-14_19h42.00.982,face trait task,2021.2.3,MacIntel,29.41176471,121574,,,,,,,
,,,,,,2.982608696,1.872,space,0.188,0,25,25,21,1,22,image/22.jpg,0,0,,R_7LzE0pjYtdObtSm,2,2024-05-14_19h42.00.982,face trait task,2021.2.3,MacIntel,29.41176471,121574,,,,,,,
,,,,,,5.004347826,1.459,space,0.327,0,26,26,44,1,45,image/45.jpg,0,0,,R_7LzE0pjYtdObtSm,2,2024-05-14_19h42.00.982,face trait task,2021.2.3,MacIntel,29.41176471,121574,,,,,,,
,,,,,,2.023913043,1.512,space,0.32,0,27,27,30,1,31,image/31.jpg,0,0,,R_7LzE0pjYtdObtSm,2,2024-05-14_19h42.00.982,face trait task,2021.2.3,MacIntel,29.41176471,121574,,,,,,,
,,,,,,3.041304348,2.3,space,0.484,0,28,28,28,1,29,image/29.jpg,0,0,,R_7LzE0pjYtdObtSm,2,2024-05-14_19h42.00.982,face trait task,2021.2.3,MacIntel,29.41176471,121574,,,,,,,
,,,,,,2.982608696,2.055,space,0.221,0,29,29,18,1,19,image/19.jpg,0,0,,R_7LzE0pjYtdObtSm,2,2024-05-14_19h42.00.982,face trait task,2021.2.3,MacIntel,29.41176471,121574,,,,,,,
,,,,,,4.991304348,1.795,space,0.245,0,30,30,14,1,15,image/15.jpg,0,0,,R_7LzE0pjYtdObtSm,2,2024-05-14_19h42.00.982,face trait task,2021.2.3,MacIntel,29.41176471,121574,,,,,,,
,,,,,,4.991304348,1.622,space,0.243,0,31,31,38,1,39,image/39.jpg,0,0,,R_7LzE0pjYtdObtSm,2,2024-05-14_19h42.00.982,face trait task,2021.2.3,MacIntel,29.41176471,121574,,,,,,,
,,,,,,5.363043478,1.835,space,0.22,0,32,32,8,1,9,image/9.jpg,0,0,,R_7LzE0pjYtdObtSm,2,2024-05-14_19h42.00.982,face trait task,2021.2.3,MacIntel,29.41176471,121574,,,,,,,
,,,,,,4.058695652,1.528,space,0.317,0,33,33,35,1,36,image/36.jpg,0,0,,R_7LzE0pjYtdObtSm,2,2024-05-14_19h42.00.982,face trait task,2021.2.3,MacIntel,29.41176471,121574,,,,,,,
,,,,,,5.27826087,3.62,space,0.232,0,34,34,41,1,42,image/42.jpg,0,0,,R_7LzE0pjYtdObtSm,2,2024-05-14_19h42.00.982,face trait task,2021.2.3,MacIntel,29.41176471,121574,,,,,,,
,,,,,,3.002173913,1.539,space,0.255,0,35,35,0,1,1,image/1.jpg,0,0,,R_7LzE0pjYtdObtSm,2,2024-05-14_19h42.00.982,face trait task,2021.2.3,MacIntel,29.41176471,121574,,,,,,,
,,,,,,3.973913043,2.551,space,0.22,0,36,36,26,1,27,image/27.jpg,0,0,,R_7LzE0pjYtdObtSm,2,2024-05-14_19h42.00.982,face trait task,2021.2.3,MacIntel,29.41176471,121574,,,,,,,
,,,,,,2.943478261,2.058,space,0.362,0,37,37,29,1,30,image/30.jpg,0,0,,R_7LzE0pjYtdObtSm,2,2024-05-14_19h42.00.982,face trait task,2021.2.3,MacIntel,29.41176471,121574,,,,,,,
,,,,,,3.993478261,2.78,space,1.458,0,38,38,19,1,20,image/20.jpg,0,0,,R_7LzE0pjYtdObtSm,2,2024-05-14_19h42.00.982,face trait task,2021.2.3,MacIntel,29.41176471,121574,,,,,,,
,,,,,,3.993478261,0.945,space,0.275,0,39,39,10,1,11,image/11.jpg,0,0,,R_7LzE0pjYtdObtSm,2,2024-05-14_19h42.00.982,face trait task,2021.2.3,MacIntel,29.41176471,121574,,,,,,,
,,,,,,2.956521739,1.866,space,0.287,0,40,40,16,1,17,image/17.jpg,0,0,,R_7LzE0pjYtdObtSm,2,2024-05-14_19h42.00.982,face trait task,2021.2.3,MacIntel,29.41176471,121574,,,,,,,
,,,,,,4.991304348,2.688,space,1.633,0,41,41,37,1,38,image/38.jpg,0,0,,R_7LzE0pjYtdObtSm,2,2024-05-14_19h42.00.982,face trait task,2021.2.3,MacIntel,29.41176471,121574,,,,,,,
,,,,,,2.076086957,2.027,space,0.397,0,42,42,27,1,28,image/28.jpg,0,0,,R_7LzE0pjYtdObtSm,2,2024-05-14_19h42.00.982,face trait task,2021.2.3,MacIntel,29.41176471,121574,,,,,,,
,,,,,,4,2.288,space,0.277,0,43,43,17,1,18,image/18.jpg,0,0,,R_7LzE0pjYtdObtSm,2,2024-05-14_19h42.00.982,face trait task,2021.2.3,MacIntel,29.41176471,121574,,,,,,,
,,,,,,5.102173913,1.927,space,0.552,0,44,44,22,1,23,image/23.jpg,0,0,,R_7LzE0pjYtdObtSm,2,2024-05-14_19h42.00.982,face trait task,2021.2.3,MacIntel,29.41176471,121574,,,,,,,
,,,,,,3.980434783,1.645,space,0.345,0,45,45,47,1,48,image/48.jpg,0,0,,R_7LzE0pjYtdObtSm,2,2024-05-14_19h42.00.982,face trait task,2021.2.3,MacIntel,29.41176471,121574,,,,,,,
,,,,,,1.97826087,2.423,space,0.463,0,46,46,32,1,33,image/33.jpg,0,0,,R_7LzE0pjYtdObtSm,2,2024-05-14_19h42.00.982,face trait task,2021.2.3,MacIntel,29.41176471,121574,,,,,,,
,,,,,,3.973913043,2.553,space,0.233,0,47,47,36,1,37,image/37.jpg,0,0,,R_7LzE0pjYtdObtSm,2,2024-05-14_19h42.00.982,face trait task,2021.2.3,MacIntel,29.41176471,121574,,,,,,,
,,,,,,4.939130435,2.572,space,0.256,0,48,48,6,1,7,image/7.jpg,0,0,,R_7LzE0pjYtdObtSm,2,2024-05-14_19h42.00.982,face trait task,2021.2.3,MacIntel,29.41176471,121574,,,,,,,
,,,,,,5.017391304,2.251,space,0.291,0,49,49,23,1,24,image/24.jpg,0,0,,R_7LzE0pjYtdObtSm,2,2024-05-14_19h42.00.982,face trait task,2021.2.3,MacIntel,29.41176471,121574,,,,,,,
,,,,,,5.010869565,3.045,space,0.275,0,50,50,46,1,47,image/47.jpg,0,0,,R_7LzE0pjYtdObtSm,2,2024-05-14_19h42.00.982,face trait task,2021.2.3,MacIntel,29.41176471,121574,,,,,,,
,,,,,,4.045652174,1.542,space,0.426,0,51,51,31,1,32,image/32.jpg,0,0,,R_7LzE0pjYtdObtSm,2,2024-05-14_19h42.00.982,face trait task,2021.2.3,MacIntel,29.41176471,121574,,,,,,,
,,,,,,5.010869565,1.724,space,0.46,0,52,52,3,1,4,image/4.jpg,0,0,,R_7LzE0pjYtdObtSm,2,2024-05-14_19h42.00.982,face trait task,2021.2.3,MacIntel,29.41176471,121574,,,,,,,
,,,,,,,,,,,,,,,,,,,,R_7LzE0pjYtdObtSm,2,2024-05-14_19h42.00.982,face trait task,2021.2.3,MacIntel,29.41176471,121574,0,1,1,3,1,3,friendly.png
,,,,,trustworthy,4,5.018,space,0.341,0,0,0,7,1,8,image/8.jpg,0,0,,R_7LzE0pjYtdObtSm,2,2024-05-14_19h42.00.982,face trait task,2021.2.3,MacIntel,29.41176471,121574,,,,,,,
,,,,,,4,2.128,space,0.309,0,1,1,24,1,25,image/25.jpg,0,0,,R_7LzE0pjYtdObtSm,2,2024-05-14_19h42.00.982,face trait task,2021.2.3,MacIntel,29.41176471,121574,,,,,,,
,,,,,,4,1.155,space,0.712,0,2,2,29,1,30,image/30.jpg,0,0,,R_7LzE0pjYtdObtSm,2,2024-05-14_19h42.00.982,face trait task,2021.2.3,MacIntel,29.41176471,121574,,,,,,,
,,,,,,4,1.11,space,0.479,0,3,3,41,1,42,image/42.jpg,0,0,,R_7LzE0pjYtdObtSm,2,2024-05-14_19h42.00.982,face trait task,2021.2.3,MacIntel,29.41176471,121574,,,,,,,
,,,,,,4.013043478,0.933,space,0.388,0,4,4,8,1,9,image/9.jpg,0,0,,R_7LzE0pjYtdObtSm,2,2024-05-14_19h42.00.982,face trait task,2021.2.3,MacIntel,29.41176471,121574,,,,,,,
,,,,,,4.006521739,0.973,space,0.459,0,5,5,48,1,49,image/49.jpg,0,0,,R_7LzE0pjYtdObtSm,2,2024-05-14_19h42.00.982,face trait task,2021.2.3,MacIntel,29.41176471,121574,,,,,,,
,,,,,,4.006521739,0.909,space,0.352,0,6,6,13,1,14,image/14.jpg,0,0,,R_7LzE0pjYtdObtSm,2,2024-05-14_19h42.00.982,face trait task,2021.2.3,MacIntel,29.41176471,121574,,,,,,,
,,,,,,4.006521739,1.15,space,0.456,0,7,7,17,1,18,image/18.jpg,0,0,,R_7LzE0pjYtdObtSm,2,2024-05-14_19h42.00.982,face trait task,2021.2.3,MacIntel,29.41176471,121574,,,,,,,
,,,,,,4.006521739,0.755,space,0.464,0,8,8,47,1,48,image/48.jpg,0,0,,R_7LzE0pjYtdObtSm,2,2024-05-14_19h42.00.982,face trait task,2021.2.3,MacIntel,29.41176471,121574,,,,,,,
,,,,,,4.006521739,0.941,space,0.42,0,9,9,30,1,31,image/31.jpg,0,0,,R_7LzE0pjYtdObtSm,2,2024-05-14_19h42.00.982,face trait task,2021.2.3,MacIntel,29.41176471,121574,,,,,,,
,,,,,,4.006521739,0.572,space,0.821,0,10,10,22,1,23,image/23.jpg,0,0,,R_7LzE0pjYtdObtSm,2,2024-05-14_19h42.00.982,face trait task,2021.2.3,MacIntel,29.41176471,121574,,,,,,,
,,,,,,6.960869565,2.087,space,0.521,0,11,11,51,1,57,image/fill_img.png,1,7,Please move the slider all the way to the RIGHT to show that you are paying attention.,R_7LzE0pjYtdObtSm,2,2024-05-14_19h42.00.982,face trait task,2021.2.3,MacIntel,29.41176471,121574,,,,,,,
,,,,,,3.986956522,1.338,space,0.218,0,12,12,38,1,39,image/39.jpg,0,0,,R_7LzE0pjYtdObtSm,2,2024-05-14_19h42.00.982,face trait task,2021.2.3,MacIntel,29.41176471,121574,,,,,,,
,,,,,,3.986956522,0.989,space,0.368,0,13,13,26,1,27,image/27.jpg,0,0,,R_7LzE0pjYtdObtSm,2,2024-05-14_19h42.00.982,face trait task,2021.2.3,MacIntel,29.41176471,121574,,,,,,,
,,,,,,3.986956522,0.933,space,0.441,0,14,14,40,1,41,image/41.jpg,0,0,,R_7LzE0pjYtdObtSm,2,2024-05-14_19h42.00.982,face trait task,2021.2.3,MacIntel,29.41176471,121574,,,,,,,
,,,,,,4.032608696,1.45,space,0.452,0,15,15,44,1,45,image/45.jpg,0,0,,R_7LzE0pjYtdObtSm,2,2024-05-14_19h42.00.982,face trait task,2021.2.3,MacIntel,29.41176471,121574,,,,,,,
,,,,,,4.032608696,1.055,space,1.061,0,16,16,16,1,17,image/17.jpg,0,0,,R_7LzE0pjYtdObtSm,2,2024-05-14_19h42.00.982,face trait task,2021.2.3,MacIntel,29.41176471,121574,,,,,,,
,,,,,,4.032608696,1.062,space,0.577,0,17,17,39,1,40,image/40.jpg,0,0,,R_7LzE0pjYtdObtSm,2,2024-05-14_19h42.00.982,face trait task,2021.2.3,MacIntel,29.41176471,121574,,,,,,,
,,,,,,4.006521739,1.383,space,0.535,0,18,18,18,1,19,image/19.jpg,0,0,,R_7LzE0pjYtdObtSm,2,2024-05-14_19h42.00.982,face trait task,2021.2.3,MacIntel,29.41176471,121574,,,,,,,
,,,,,,4.006521739,1.002,space,0.393,0,19,19,1,1,2,image/2.jpg,0,0,,R_7LzE0pjYtdObtSm,2,2024-05-14_19h42.00.982,face trait task,2021.2.3,MacIntel,29.41176471,121574,,,,,,,
,,,,,,4.006521739,0.884,space,0.343,0,20,20,10,1,11,image/11.jpg,0,0,,R_7LzE0pjYtdObtSm,2,2024-05-14_19h42.00.982,face trait task,2021.2.3,MacIntel,29.41176471,121574,,,,,,,
,,,,,,4.006521739,1.45,space,0.754,0,21,21,31,1,32,image/32.jpg,0,0,,R_7LzE0pjYtdObtSm,2,2024-05-14_19h42.00.982,face trait task,2021.2.3,MacIntel,29.41176471,121574,,,,,,,
,,,,,,4.026086957,1.887,space,0.308,0,22,22,21,1,22,image/22.jpg,0,0,,R_7LzE0pjYtdObtSm,2,2024-05-14_19h42.00.982,face trait task,2021.2.3,MacIntel,29.41176471,121574,,,,,,,
,,,,,,4,1.932,space,0.287,0,23,23,23,1,24,image/24.jpg,0,0,,R_7LzE0pjYtdObtSm,2,2024-05-14_19h42.00.982,face trait task,2021.2.3,MacIntel,29.41176471,121574,,,,,,,
,,,,,,4,1.003,space,0.319,0,24,24,20,1,21,image/21.jpg,0,0,,R_7LzE0pjYtdObtSm,2,2024-05-14_19h42.00.982,face trait task,2021.2.3,MacIntel,29.41176471,121574,,,,,,,
,,,,,,4.006521739,0.987,space,0.655,0,25,25,35,1,36,image/36.jpg,0,0,,R_7LzE0pjYtdObtSm,2,2024-05-14_19h42.00.982,face trait task,2021.2.3,MacIntel,29.41176471,121574,,,,,,,
,,,,,,4,1.121,space,0.357,0,26,26,46,1,47,image/47.jpg,0,0,,R_7LzE0pjYtdObtSm,2,2024-05-14_19h42.00.982,face trait task,2021.2.3,MacIntel,29.41176471,121574,,,,,,,
,,,,,,4.019565217,0.792,space,0.442,0,27,27,28,1,29,image/29.jpg,0,0,,R_7LzE0pjYtdObtSm,2,2024-05-14_19h42.00.982,face trait task,2021.2.3,MacIntel,29.41176471,121574,,,,,,,
,,,,,,4.019565217,0.967,space,0.307,0,28,28,27,1,28,image/28.jpg,0,0,,R_7LzE0pjYtdObtSm,2,2024-05-14_19h42.00.982,face trait task,2021.2.3,MacIntel,29.41176471,121574,,,,,,,
,,,,,,4.019565217,0.968,space,0.341,0,29,29,14,1,15,image/15.jpg,0,0,,R_7LzE0pjYtdObtSm,2,2024-05-14_19h42.00.982,face trait task,2021.2.3,MacIntel,29.41176471,121574,,,,,,,
,,,,,,4.019565217,0.979,space,0.299,0,30,30,42,1,43,image/43.jpg,0,0,,R_7LzE0pjYtdObtSm,2,2024-05-14_19h42.00.982,face trait task,2021.2.3,MacIntel,29.41176471,121574,,,,,,,
,,,,,,4.019565217,1.002,space,0.319,0,31,31,15,1,16,image/16.jpg,0,0,,R_7LzE0pjYtdObtSm,2,2024-05-14_19h42.00.982,face trait task,2021.2.3,MacIntel,29.41176471,121574,,,,,,,
,,,,,,4.019565217,0.9,space,0.292,0,32,32,9,1,10,image/10.jpg,0,0,,R_7LzE0pjYtdObtSm,2,2024-05-14_19h42.00.982,face trait task,2021.2.3,MacIntel,29.41176471,121574,,,,,,,
,,,,,,4.019565217,0.571,space,0.479,0,33,33,11,1,12,image/12.jpg,0,0,,R_7LzE0pjYtdObtSm,2,2024-05-14_19h42.00.982,face trait task,2021.2.3,MacIntel,29.41176471,121574,,,,,,,
,,,,,,4.006521739,1.125,space,0.431,0,34,34,0,1,1,image/1.jpg,0,0,,R_7LzE0pjYtdObtSm,2,2024-05-14_19h42.00.982,face trait task,2021.2.3,MacIntel,29.41176471,121574,,,,,,,
,,,,,,6.980434783,1.869,space,0.576,0,35,35,52,1,60,image/fill_img.png,1,7,Please move the slider all the way to the RIGHT to show that you are paying attention.,R_7LzE0pjYtdObtSm,2,2024-05-14_19h42.00.982,face trait task,2021.2.3,MacIntel,29.41176471,121574,,,,,,,
,,,,,,4.026086957,1.318,space,0.343,0,36,36,34,1,35,image/35.jpg,0,0,,R_7LzE0pjYtdObtSm,2,2024-05-14_19h42.00.982,face trait task,2021.2.3,MacIntel,29.41176471,121574,,,,,,,
,,,,,,4.026086957,1.175,space,0.343,0,37,37,25,1,26,image/26.jpg,0,0,,R_7LzE0pjYtdObtSm,2,2024-05-14_19h42.00.982,face trait task,2021.2.3,MacIntel,29.41176471,121574,,,,,,,
,,,,,,4.026086957,1.428,space,1.043,0,38,38,43,1,44,image/44.jpg,0,0,,R_7LzE0pjYtdObtSm,2,2024-05-14_19h42.00.982,face trait task,2021.2.3,MacIntel,29.41176471,121574,,,,,,,
,,,,,,4.026086957,1.103,space,0.619,0,39,39,4,1,5,image/5.jpg,0,0,,R_7LzE0pjYtdObtSm,2,2024-05-14_19h42.00.982,face trait task,2021.2.3,MacIntel,29.41176471,121574,,,,,,,
,,,,,,3.993478261,1.532,space,0.442,0,40,40,45,1,46,image/46.jpg,0,0,,R_7LzE0pjYtdObtSm,2,2024-05-14_19h42.00.982,face trait task,2021.2.3,MacIntel,29.41176471,121574,,,,,,,
,,,,,,3.993478261,0.872,space,0.644,0,41,41,12,1,13,image/13.jpg,0,0,,R_7LzE0pjYtdObtSm,2,2024-05-14_19h42.00.982,face trait task,2021.2.3,MacIntel,29.41176471,121574,,,,,,,
,,,,,,3.993478261,0.969,space,0.299,0,42,42,49,1,50,image/50.jpg,0,0,,R_7LzE0pjYtdObtSm,2,2024-05-14_19h42.00.982,face trait task,2021.2.3,MacIntel,29.41176471,121574,,,,,,,
,,,,,,3.993478261,1.122,space,0.295,0,43,43,5,1,6,image/6.jpg,0,0,,R_7LzE0pjYtdObtSm,2,2024-05-14_19h42.00.982,face trait task,2021.2.3,MacIntel,29.41176471,121574,,,,,,,
,,,,,,3.993478261,1.017,space,0.42,0,44,44,3,1,4,image/4.jpg,0,0,,R_7LzE0pjYtdObtSm,2,2024-05-14_19h42.00.982,face trait task,2021.2.3,MacIntel,29.41176471,121574,,,,,,,
,,,,,,3.993478261,0.918,space,0.287,0,45,45,36,1,37,image/37.jpg,0,0,,R_7LzE0pjYtdObtSm,2,2024-05-14_19h42.00.982,face trait task,2021.2.3,MacIntel,29.41176471,121574,,,,,,,
,,,,,,3.993478261,0.995,space,0.308,0,46,46,6,1,7,image/7.jpg,0,0,,R_7LzE0pjYtdObtSm,2,2024-05-14_19h42.00.982,face trait task,2021.2.3,MacIntel,29.41176471,121574,,,,,,,
,,,,,,4.117391304,1.528,space,0.288,0,47,47,37,1,38,image/38.jpg,0,0,,R_7LzE0pjYtdObtSm,2,2024-05-14_19h42.00.982,face trait task,2021.2.3,MacIntel,29.41176471,121574,,,,,,,
,,,,,,6.986956522,2.105,space,0.244,0,48,48,50,1,57,image/fill_img.png,1,7,Please move the slider all the way to the RIGHT to show that you are paying attention.,R_7LzE0pjYtdObtSm,2,2024-05-14_19h42.00.982,face trait task,2021.2.3,MacIntel,29.41176471,121574,,,,,,,
,,,,,,4.032608696,1.427,space,0.443,0,49,49,19,1,20,image/20.jpg,0,0,,R_7LzE0pjYtdObtSm,2,2024-05-14_19h42.00.982,face trait task,2021.2.3,MacIntel,29.41176471,121574,,,,,,,
,,,,,,4.032608696,0.859,space,0.369,0,50,50,2,1,3,image/3.jpg,0,0,,R_7LzE0pjYtdObtSm,2,2024-05-14_19h42.00.982,face trait task,2021.2.3,MacIntel,29.41176471,121574,,,,,,,
,,,,,,4.032608696,0.721,space,0.308,0,51,51,32,1,33,image/33.jpg,0,0,,R_7LzE0pjYtdObtSm,2,2024-05-14_19h42.00.982,face trait task,2021.2.3,MacIntel,29.41176471,121574,,,,,,,
,,,,,,4.032608696,0.796,space,0.408,0,52,52,33,1,34,image/34.jpg,0,0,,R_7LzE0pjYtdObtSm,2,2024-05-14_19h42.00.982,face trait task,2021.2.3,MacIntel,29.41176471,121574,,,,,,,
,,,,,,,,,,,,,,,,,,,,R_7LzE0pjYtdObtSm,2,2024-05-14_19h42.00.982,face trait task,2021.2.3,MacIntel,29.41176471,121574,0,2,2,2,1,2,trustworthy.png
,,,,,critical,5.989130435,3.111,space,0.289,0,0,0,25,1,26,image/26.jpg,0,0,,R_7LzE0pjYtdObtSm,2,2024-05-14_19h42.00.982,face trait task,2021.2.3,MacIntel,29.41176471,121574,,,,,,,
,,,,,,5.473913043,3.034,space,0.309,0,1,1,16,1,17,image/17.jpg,0,0,,R_7LzE0pjYtdObtSm,2,2024-05-14_19h42.00.982,face trait task,2021.2.3,MacIntel,29.41176471,121574,,,,,,,
,,,,,,6.993478261,1.795,space,0.351,0,2,2,52,1,60,image/fill_img.png,1,7,Please move the slider all the way to the RIGHT to show that you are paying attention.,R_7LzE0pjYtdObtSm,2,2024-05-14_19h42.00.982,face trait task,2021.2.3,MacIntel,29.41176471,121574,,,,,,,
,,,,,,4.945652174,2.772,space,0.511,0,3,3,3,1,4,image/4.jpg,0,0,,R_7LzE0pjYtdObtSm,2,2024-05-14_19h42.00.982,face trait task,2021.2.3,MacIntel,29.41176471,121574,,,,,,,
,,,,,,5.017391304,1.474,space,0.334,0,4,4,4,1,5,image/5.jpg,0,0,,R_7LzE0pjYtdObtSm,2,2024-05-14_19h42.00.982,face trait task,2021.2.3,MacIntel,29.41176471,121574,,,,,,,
,,,,,,3.986956522,1.473,space,0.327,0,5,5,37,1,38,image/38.jpg,0,0,,R_7LzE0pjYtdObtSm,2,2024-05-14_19h42.00.982,face trait task,2021.2.3,MacIntel,29.41176471,121574,,,,,,,
,,,,,,4.945652174,1.488,space,0.464,0,6,6,33,1,34,image/34.jpg,0,0,,R_7LzE0pjYtdObtSm,2,2024-05-14_19h42.00.982,face trait task,2021.2.3,MacIntel,29.41176471,121574,,,,,,,
,,,,,,4.945652174,4.555,space,0.453,0,7,7,12,1,13,image/13.jpg,0,0,,R_7LzE0pjYtdObtSm,2,2024-05-14_19h42.00.982,face trait task,2021.2.3,MacIntel,29.41176471,121574,,,,,,,
,,,,,,5.976086957,2.057,space,0.578,0,8,8,27,1,28,image/28.jpg,0,0,,R_7LzE0pjYtdObtSm,2,2024-05-14_19h42.00.982,face trait task,2021.2.3,MacIntel,29.41176471,121574,,,,,,,
,,,,,,5.976086957,1.918,space,0.654,0,9,9,46,1,47,image/47.jpg,0,0,,R_7LzE0pjYtdObtSm,2,2024-05-14_19h42.00.982,face trait task,2021.2.3,MacIntel,29.41176471,121574,,,,,,,
,,,,,,4.97826087,2.074,space,0.286,0,10,10,17,1,18,image/18.jpg,0,0,,R_7LzE0pjYtdObtSm,2,2024-05-14_19h42.00.982,face trait task,2021.2.3,MacIntel,29.41176471,121574,,,,,,,
,,,,,,4.97826087,0.821,space,1.044,0,11,11,28,1,29,image/29.jpg,0,0,,R_7LzE0pjYtdObtSm,2,2024-05-14_19h42.00.982,face trait task,2021.2.3,MacIntel,29.41176471,121574,,,,,,,
,,,,,,4.97826087,4.132,space,0.421,0,12,12,35,1,36,image/36.jpg,0,0,,R_7LzE0pjYtdObtSm,2,2024-05-14_19h42.00.982,face trait task,2021.2.3,MacIntel,29.41176471,121574,,,,,,,
,,,,,,4.97826087,2.504,space,1.069,0,13,13,1,1,2,image/2.jpg,0,0,,R_7LzE0pjYtdObtSm,2,2024-05-14_19h42.00.982,face trait task,2021.2.3,MacIntel,29.41176471,121574,,,,,,,
,,,,,,6.02826087,1.824,space,0.278,0,14,14,45,1,46,image/46.jpg,0,0,,R_7LzE0pjYtdObtSm,2,2024-05-14_19h42.00.982,face trait task,2021.2.3,MacIntel,29.41176471,121574,,,,,,,
,,,,,,3.054347826,3.393,space,0.442,0,15,15,39,1,40,image/40.jpg,0,0,,R_7LzE0pjYtdObtSm,2,2024-05-14_19h42.00.982,face trait task,2021.2.3,MacIntel,29.41176471,121574,,,,,,,
,,,,,,2.956521739,1.95,space,0.608,0,16,16,11,1,12,image/12.jpg,0,0,,R_7LzE0pjYtdObtSm,2,2024-05-14_19h42.00.982,face trait task,2021.2.3,MacIntel,29.41176471,121574,,,,,,,
,,,,,,3.993478261,1.488,space,0.668,0,17,17,47,1,48,image/48.jpg,0,0,,R_7LzE0pjYtdObtSm,2,2024-05-14_19h42.00.982,face trait task,2021.2.3,MacIntel,29.41176471,121574,,,,,,,
,,,,,,4.039130435,2.596,space,0.554,0,18,18,38,1,39,image/39.jpg,0,0,,R_7LzE0pjYtdObtSm,2,2024-05-14_19h42.00.982,face trait task,2021.2.3,MacIntel,29.41176471,121574,,,,,,,
,,,,,,4.997826087,4.433,space,0.485,0,19,19,26,1,27,image/27.jpg,0,0,,R_7LzE0pjYtdObtSm,2,2024-05-14_19h42.00.982,face trait task,2021.2.3,MacIntel,29.41176471,121574,,,,,,,
,,,,,,6.973913043,3.125,space,0.559,0,20,20,51,1,57,image/fill_img.png,1,7,Please move the slider all the way to the RIGHT to show that you are paying attention.,R_7LzE0pjYtdObtSm,2,2024-05-14_19h42.00.982,face trait task,2021.2.3,MacIntel,29.41176471,121574,,,,,,,
,,,,,,3.973913043,3.044,space,0.262,0,21,21,9,1,10,image/10.jpg,0,0,,R_7LzE0pjYtdObtSm,2,2024-05-14_19h42.00.982,face trait task,2021.2.3,MacIntel,29.41176471,121574,,,,,,,
,,,,,,3.054347826,1.95,space,0.743,0,22,22,5,1,6,image/6.jpg,0,0,,R_7LzE0pjYtdObtSm,2,2024-05-14_19h42.00.982,face trait task,2021.2.3,MacIntel,29.41176471,121574,,,,,,,
,,,,,,4.913043478,2.287,space,0.442,0,23,23,19,1,20,image/20.jpg,0,0,,R_7LzE0pjYtdObtSm,2,2024-05-14_19h42.00.982,face trait task,2021.2.3,MacIntel,29.41176471,121574,,,,,,,
,,,,,,4.932608696,1.553,space,0.341,0,24,24,31,1,32,image/32.jpg,0,0,,R_7LzE0pjYtdObtSm,2,2024-05-14_19h42.00.982,face trait task,2021.2.3,MacIntel,29.41176471,121574,,,,,,,
,,,,,,4.952173913,2.088,space,5.354,0,25,25,24,1,25,image/25.jpg,0,0,,R_7LzE0pjYtdObtSm,2,2024-05-14_19h42.00.982,face trait task,2021.2.3,MacIntel,29.41176471,121574,,,,,,,
,,,,,,5.989130435,2.158,space,0.588,0,26,26,14,1,15,image/15.jpg,0,0,,R_7LzE0pjYtdObtSm,2,2024-05-14_19h42.00.982,face trait task,2021.2.3,MacIntel,29.41176471,121574,,,,,,,
,,,,,,5.565217391,2.71,space,0.466,0,27,27,15,1,16,image/16.jpg,0,0,,R_7LzE0pjYtdObtSm,2,2024-05-14_19h42.00.982,face trait task,2021.2.3,MacIntel,29.41176471,121574,,,,,,,
,,,,,,3.693478261,2.989,space,0.242,0,28,28,40,1,41,image/41.jpg,0,0,,R_7LzE0pjYtdObtSm,2,2024-05-14_19h42.00.982,face trait task,2021.2.3,MacIntel,29.41176471,121574,,,,,,,
,,,,,,3.693478261,2.374,space,0.175,0,29,29,32,1,33,image/33.jpg,0,0,,R_7LzE0pjYtdObtSm,2,2024-05-14_19h42.00.982,face trait task,2021.2.3,MacIntel,29.41176471,121574,,,,,,,
,,,,,,4.736956522,1.291,space,0.584,0,30,30,43,1,44,image/44.jpg,0,0,,R_7LzE0pjYtdObtSm,2,2024-05-14_19h42.00.982,face trait task,2021.2.3,MacIntel,29.41176471,121574,,,,,,,
,,,,,,3.941304348,2.362,space,1.353,0,31,31,48,1,49,image/49.jpg,0,0,,R_7LzE0pjYtdObtSm,2,2024-05-14_19h42.00.982,face trait task,2021.2.3,MacIntel,29.41176471,121574,,,,,,,
,,,,,,4,2.655,space,0.442,0,32,32,36,1,37,image/37.jpg,0,0,,R_7LzE0pjYtdObtSm,2,2024-05-14_19h42.00.982,face trait task,2021.2.3,MacIntel,29.41176471,121574,,,,,,,
,,,,,,4.339130435,1.147,space,0.41,0,33,33,22,1,23,image/23.jpg,0,0,,R_7LzE0pjYtdObtSm,2,2024-05-14_19h42.00.982,face trait task,2021.2.3,MacIntel,29.41176471,121574,,,,,,,
,,,,,,3.497826087,2.587,space,0.31,0,34,34,41,1,42,image/42.jpg,0,0,,R_7LzE0pjYtdObtSm,2,2024-05-14_19h42.00.982,face trait task,2021.2.3,MacIntel,29.41176471,121574,,,,,,,
,,,,,,5.023913043,3.245,space,1.732,0,35,35,23,1,24,image/24.jpg,0,0,,R_7LzE0pjYtdObtSm,2,2024-05-14_19h42.00.982,face trait task,2021.2.3,MacIntel,29.41176471,121574,,,,,,,
,,,,,,5.023913043,0.794,space,0.552,0,36,36,18,1,19,image/19.jpg,0,0,,R_7LzE0pjYtdObtSm,2,2024-05-14_19h42.00.982,face trait task,2021.2.3,MacIntel,29.41176471,121574,,,,,,,
,,,,,,3.17173913,4.843,space,0.777,0,37,37,7,1,8,image/8.jpg,0,0,,R_7LzE0pjYtdObtSm,2,2024-05-14_19h42.00.982,face trait task,2021.2.3,MacIntel,29.41176471,121574,,,,,,,
,,,,,,2.976086957,3.7,space,0.625,0,38,38,44,1,45,image/45.jpg,0,0,,R_7LzE0pjYtdObtSm,2,2024-05-14_19h42.00.982,face trait task,2021.2.3,MacIntel,29.41176471,121574,,,,,,,
,,,,,,2.976086957,3.088,space,0.325,0,39,39,29,1,30,image/30.jpg,0,0,,R_7LzE0pjYtdObtSm,2,2024-05-14_19h42.00.982,face trait task,2021.2.3,MacIntel,29.41176471,121574,,,,,,,
,,,,,,3.015217391,1.886,space,0.255,0,40,40,2,1,3,image/3.jpg,0,0,,R_7LzE0pjYtdObtSm,2,2024-05-14_19h42.00.982,face trait task,2021.2.3,MacIntel,29.41176471,121574,,,,,,,
,,,,,,3.034782609,2.391,space,0.468,0,41,41,13,1,14,image/14.jpg,0,0,,R_7LzE0pjYtdObtSm,2,2024-05-14_19h42.00.982,face trait task,2021.2.3,MacIntel,29.41176471,121574,,,,,,,
,,,,,,3.986956522,7.605,space,0.621,0,42,42,34,1,35,image/35.jpg,0,0,,R_7LzE0pjYtdObtSm,2,2024-05-14_19h42.00.982,face trait task,2021.2.3,MacIntel,29.41176471,121574,,,,,,,
,,,,,,3.047826087,2.531,space,0.887,0,43,43,30,1,31,image/31.jpg,0,0,,R_7LzE0pjYtdObtSm,2,2024-05-14_19h42.00.982,face trait task,2021.2.3,MacIntel,29.41176471,121574,,,,,,,
,,,,,,4.997826087,3.754,space,0.509,0,44,44,0,1,1,image/1.jpg,0,0,,R_7LzE0pjYtdObtSm,2,2024-05-14_19h42.00.982,face trait task,2021.2.3,MacIntel,29.41176471,121574,,,,,,,
,,,,,,4.997826087,5.159,space,0.698,0,45,45,10,1,11,image/11.jpg,0,0,,R_7LzE0pjYtdObtSm,2,2024-05-14_19h42.00.982,face trait task,2021.2.3,MacIntel,29.41176471,121574,,,,,,,
,,,,,,4.997826087,1.309,space,0.618,0,46,46,42,1,43,image/43.jpg,0,0,,R_7LzE0pjYtdObtSm,2,2024-05-14_19h42.00.982,face trait task,2021.2.3,MacIntel,29.41176471,121574,,,,,,,
,,,,,,4.997826087,5.269,space,0.365,0,47,47,21,1,22,image/22.jpg,0,0,,R_7LzE0pjYtdObtSm,2,2024-05-14_19h42.00.982,face trait task,2021.2.3,MacIntel,29.41176471,121574,,,,,,,
,,,,,,5.010869565,2.442,space,1.724,0,48,48,20,1,21,image/21.jpg,0,0,,R_7LzE0pjYtdObtSm,2,2024-05-14_19h42.00.982,face trait task,2021.2.3,MacIntel,29.41176471,121574,,,,,,,
,,,,,,6.993478261,5.127,space,0.751,0,49,49,50,1,57,image/fill_img.png,1,7,Please move the slider all the way to the RIGHT to show that you are paying attention.,R_7LzE0pjYtdObtSm,2,2024-05-14_19h42.00.982,face trait task,2021.2.3,MacIntel,29.41176471,121574,,,,,,,
,,,,,,2.976086957,17.038,space,0.343,0,50,50,49,1,50,image/50.jpg,0,0,,R_7LzE0pjYtdObtSm,2,2024-05-14_19h42.00.982,face trait task,2021.2.3,MacIntel,29.41176471,121574,,,,,,,
,,,,,,2.976086957,1.631,space,0.4,0,51,51,6,1,7,image/7.jpg,0,0,,R_7LzE0pjYtdObtSm,2,2024-05-14_19h42.00.982,face trait task,2021.2.3,MacIntel,29.41176471,121574,,,,,,,
,,,,,,2.976086957,1.906,space,0.774,0,52,52,8,1,9,image/9.jpg,0,0,,R_7LzE0pjYtdObtSm,2,2024-05-14_19h42.00.982,face trait task,2021.2.3,MacIntel,29.41176471,121574,,,,,,,
,,,,,,,,,,,,,,,,,,,,R_7LzE0pjYtdObtSm,2,2024-05-14_19h42.00.982,face trait task,2021.2.3,MacIntel,29.41176471,121574,0,3,3,0,1,0,critical.png
