choose_trial,key_resp.keys,key_resp.rt,key_resp_4.keys,key_resp_4.rt,session_trait,slider_face_judge.response,slider_face_judge.rt,key_resp_3.keys,key_resp_3.rt,face_loop.thisRepN,face_loop.thisTrialN,face_loop.thisN,face_loop.thisIndex,face_loop.ran,face_serial,image_name,isCheck,answer,check_question,participant,session,date,expName,psychopyVersion,OS,frameRate,SONAid,session.thisRepN,session.thisTrialN,session.thisN,session.thisIndex,session.ran,session_serial,slider_judge_img
"[0,1,2,3,4,5,6,7,8,9,10,11,12,13,14,15,16,17,18,19,20,21,22,23,24,25,26,27,28,29,30,31,32,33,34,35,36,37,38,39,40,41,42,43,44,45,46,47,48,49,54,51,60]",space,57.9855,space,44.9844,competent,4.011241319,10.9612,space,3.3908,0,0,0,37,1,38,image/38.jpg,0,0,,R_7lxhI87CHabQjfc,2,2024-05-07_20h39.56.937,face trait task,2021.2.3,MacIntel,120.0048002,120766,,,,,,,
,,,,,,2.975086806,3.9641,space,3.9309,0,1,1,41,1,42,image/42.jpg,0,0,,R_7lxhI87CHabQjfc,2,2024-05-07_20h39.56.937,face trait task,2021.2.3,MacIntel,120.0048002,120766,,,,,,,
,,,,,,6.03125,3.3511,space,1.8842,0,2,2,42,1,43,image/43.jpg,0,0,,R_7lxhI87CHabQjfc,2,2024-05-07_20h39.56.937,face trait task,2021.2.3,MacIntel,120.0048002,120766,,,,,,,
,,,,,,4.496028646,3.8871,space,0.492,0,3,3,13,1,14,image/14.jpg,0,0,,R_7lxhI87CHabQjfc,2,2024-05-07_20h39.56.937,face trait task,2021.2.3,MacIntel,120.0048002,120766,,,,,,,
,,,,,,3.55234375,3.9987,space,0.3506,0,4,4,33,1,34,image/34.jpg,0,0,,R_7lxhI87CHabQjfc,2,2024-05-07_20h39.56.937,face trait task,2021.2.3,MacIntel,120.0048002,120766,,,,,,,
,,,,,,6.486805556,3.8242,space,0.3022,0,5,5,49,1,50,image/50.jpg,0,0,,R_7lxhI87CHabQjfc,2,2024-05-07_20h39.56.937,face trait task,2021.2.3,MacIntel,120.0048002,120766,,,,,,,
,,,,,,2.022916667,2.879,space,0.5588,0,6,6,2,1,3,image/3.jpg,0,0,,R_7lxhI87CHabQjfc,2,2024-05-07_20h39.56.937,face trait task,2021.2.3,MacIntel,120.0048002,120766,,,,,,,
,,,,,,2.03218316,2.0385,space,0.4012,0,7,7,14,1,15,image/15.jpg,0,0,,R_7lxhI87CHabQjfc,2,2024-05-07_20h39.56.937,face trait task,2021.2.3,MacIntel,120.0048002,120766,,,,,,,
,,,,,,3.013411458,2.8462,space,2.2943,0,8,8,38,1,39,image/39.jpg,0,0,,R_7lxhI87CHabQjfc,2,2024-05-07_20h39.56.937,face trait task,2021.2.3,MacIntel,120.0048002,120766,,,,,,,
,,,,,,4.091579861,2.8801,space,0.7213,0,9,9,32,1,33,image/33.jpg,0,0,,R_7lxhI87CHabQjfc,2,2024-05-07_20h39.56.937,face trait task,2021.2.3,MacIntel,120.0048002,120766,,,,,,,
,,,,,,1.38218316,2.8373,space,0.246,0,10,10,48,1,49,image/49.jpg,0,0,,R_7lxhI87CHabQjfc,2,2024-05-07_20h39.56.937,face trait task,2021.2.3,MacIntel,120.0048002,120766,,,,,,,
,,,,,,6.130078125,2.2976,space,0.2782,0,11,11,7,1,8,image/8.jpg,0,0,,R_7lxhI87CHabQjfc,2,2024-05-07_20h39.56.937,face trait task,2021.2.3,MacIntel,120.0048002,120766,,,,,,,
,,,,,,5.037022569,2.3003,space,0.3789,0,12,12,36,1,37,image/37.jpg,0,0,,R_7lxhI87CHabQjfc,2,2024-05-07_20h39.56.937,face trait task,2021.2.3,MacIntel,120.0048002,120766,,,,,,,
,,,,,,5.97593316,2.1555,space,0.2708,0,13,13,20,1,21,image/21.jpg,0,0,,R_7lxhI87CHabQjfc,2,2024-05-07_20h39.56.937,face trait task,2021.2.3,MacIntel,120.0048002,120766,,,,,,,
,,,,,,4.996896701,2.3377,space,0.315,0,14,14,23,1,24,image/24.jpg,0,0,,R_7lxhI87CHabQjfc,2,2024-05-07_20h39.56.937,face trait task,2021.2.3,MacIntel,120.0048002,120766,,,,,,,
,,,,,,4.338563368,3.4295,space,0.1612,0,15,15,27,1,28,image/28.jpg,0,0,,R_7lxhI87CHabQjfc,2,2024-05-07_20h39.56.937,face trait task,2021.2.3,MacIntel,120.0048002,120766,,,,,,,
,,,,,,2.470269097,4.5092,space,0.7692,0,16,16,28,1,29,image/29.jpg,0,0,,R_7lxhI87CHabQjfc,2,2024-05-07_20h39.56.937,face trait task,2021.2.3,MacIntel,120.0048002,120766,,,,,,,
,,,,,,5.490646701,2.5543,space,0.8867,0,17,17,34,1,35,image/35.jpg,0,0,,R_7lxhI87CHabQjfc,2,2024-05-07_20h39.56.937,face trait task,2021.2.3,MacIntel,120.0048002,120766,,,,,,,
,,,,,,5.009396701,2.9054,space,1.6027,0,18,18,45,1,46,image/46.jpg,0,0,,R_7lxhI87CHabQjfc,2,2024-05-07_20h39.56.937,face trait task,2021.2.3,MacIntel,120.0048002,120766,,,,,,,
,,,,,,4.571180556,4.9197,space,2.1804,0,19,19,39,1,40,image/40.jpg,0,0,,R_7lxhI87CHabQjfc,2,2024-05-07_20h39.56.937,face trait task,2021.2.3,MacIntel,120.0048002,120766,,,,,,,
,,,,,,6.789626736,5.7415,space,0.5655,0,20,20,35,1,36,image/36.jpg,0,0,,R_7lxhI87CHabQjfc,2,2024-05-07_20h39.56.937,face trait task,2021.2.3,MacIntel,120.0048002,120766,,,,,,,
,,,,,,4.959570313,2.1979,space,0.5443,0,21,21,25,1,26,image/26.jpg,0,0,,R_7lxhI87CHabQjfc,2,2024-05-07_20h39.56.937,face trait task,2021.2.3,MacIntel,120.0048002,120766,,,,,,,
,,,,,,3.005078125,2.8176,space,1.1952,0,22,22,10,1,11,image/11.jpg,0,0,,R_7lxhI87CHabQjfc,2,2024-05-07_20h39.56.937,face trait task,2021.2.3,MacIntel,120.0048002,120766,,,,,,,
,,,,,,1.995963542,2.9136,space,1.171,0,23,23,40,1,41,image/41.jpg,0,0,,R_7lxhI87CHabQjfc,2,2024-05-07_20h39.56.937,face trait task,2021.2.3,MacIntel,120.0048002,120766,,,,,,,
,,,,,,4.994704861,5.3456,space,0.7817,0,24,24,43,1,44,image/44.jpg,0,0,,R_7lxhI87CHabQjfc,2,2024-05-07_20h39.56.937,face trait task,2021.2.3,MacIntel,120.0048002,120766,,,,,,,
,,,,,,5.430967882,1.9632,space,2.2406,0,25,25,44,1,45,image/45.jpg,0,0,,R_7lxhI87CHabQjfc,2,2024-05-07_20h39.56.937,face trait task,2021.2.3,MacIntel,120.0048002,120766,,,,,,,
,,,,,,5.009657118,2.1548,space,2.357,0,26,26,16,1,17,image/17.jpg,0,0,,R_7lxhI87CHabQjfc,2,2024-05-07_20h39.56.937,face trait task,2021.2.3,MacIntel,120.0048002,120766,,,,,,,
,,,,,,5.007074653,3.3753,space,0.4716,0,27,27,0,1,1,image/1.jpg,0,0,,R_7lxhI87CHabQjfc,2,2024-05-07_20h39.56.937,face trait task,2021.2.3,MacIntel,120.0048002,120766,,,,,,,
,,,,,,1.019249132,4.5896,space,0.9087,0,28,28,50,1,55,image/fill_img.png,1,1,Please move the slider all the way to the LEFT to show that you are paying attention.,R_7lxhI87CHabQjfc,2,2024-05-07_20h39.56.937,face trait task,2021.2.3,MacIntel,120.0048002,120766,,,,,,,
,,,,,,4.505837674,4.4742,space,1.9469,0,29,29,3,1,4,image/4.jpg,0,0,,R_7lxhI87CHabQjfc,2,2024-05-07_20h39.56.937,face trait task,2021.2.3,MacIntel,120.0048002,120766,,,,,,,
,,,,,,2.98187934,4.2636,space,1.5729,0,30,30,5,1,6,image/6.jpg,0,0,,R_7lxhI87CHabQjfc,2,2024-05-07_20h39.56.937,face trait task,2021.2.3,MacIntel,120.0048002,120766,,,,,,,
,,,,,,4.513172743,3.6927,space,1.8794,0,31,31,12,1,13,image/13.jpg,0,0,,R_7lxhI87CHabQjfc,2,2024-05-07_20h39.56.937,face trait task,2021.2.3,MacIntel,120.0048002,120766,,,,,,,
,,,,,,3.464257813,4.7499,space,1.3142,0,32,32,46,1,47,image/47.jpg,0,0,,R_7lxhI87CHabQjfc,2,2024-05-07_20h39.56.937,face trait task,2021.2.3,MacIntel,120.0048002,120766,,,,,,,
,,,,,,2.453580729,5.7987,space,0.7589,0,33,33,47,1,48,image/48.jpg,0,0,,R_7lxhI87CHabQjfc,2,2024-05-07_20h39.56.937,face trait task,2021.2.3,MacIntel,120.0048002,120766,,,,,,,
,,,,,,1.443446181,3.6728,space,0.2866,0,34,34,29,1,30,image/30.jpg,0,0,,R_7lxhI87CHabQjfc,2,2024-05-07_20h39.56.937,face trait task,2021.2.3,MacIntel,120.0048002,120766,,,,,,,
,,,,,,4.726692708,2.9604,space,1.254,0,35,35,22,1,23,image/23.jpg,0,0,,R_7lxhI87CHabQjfc,2,2024-05-07_20h39.56.937,face trait task,2021.2.3,MacIntel,120.0048002,120766,,,,,,,
,,,,,,4.538932292,2.6088,space,1.6338,0,36,36,17,1,18,image/18.jpg,0,0,,R_7lxhI87CHabQjfc,2,2024-05-07_20h39.56.937,face trait task,2021.2.3,MacIntel,120.0048002,120766,,,,,,,
,,,,,,1.009092882,4.9728,space,0.7544,0,37,37,51,1,52,image/fill_img.png,1,1,Please move the slider all the way to the LEFT to show that you are paying attention.,R_7lxhI87CHabQjfc,2,2024-05-07_20h39.56.937,face trait task,2021.2.3,MacIntel,120.0048002,120766,,,,,,,
,,,,,,5.983181424,2.1052,space,1.6124,0,38,38,11,1,12,image/12.jpg,0,0,,R_7lxhI87CHabQjfc,2,2024-05-07_20h39.56.937,face trait task,2021.2.3,MacIntel,120.0048002,120766,,,,,,,
,,,,,,4.296679688,3.1266,space,1.3184,0,39,39,30,1,31,image/31.jpg,0,0,,R_7lxhI87CHabQjfc,2,2024-05-07_20h39.56.937,face trait task,2021.2.3,MacIntel,120.0048002,120766,,,,,,,
,,,,,,3.542925347,4.8531,space,4.9866,0,40,40,9,1,10,image/10.jpg,0,0,,R_7lxhI87CHabQjfc,2,2024-05-07_20h39.56.937,face trait task,2021.2.3,MacIntel,120.0048002,120766,,,,,,,
,,,,,,6.991861979,3.5984,space,0.3361,0,41,41,52,1,61,image/fill_img.png,1,7,Please move the slider all the way to the RIGHT to show that you are paying attention.,R_7lxhI87CHabQjfc,2,2024-05-07_20h39.56.937,face trait task,2021.2.3,MacIntel,120.0048002,120766,,,,,,,
,,,,,,4.369162326,7.7313,space,1.0763,0,42,42,21,1,22,image/22.jpg,0,0,,R_7lxhI87CHabQjfc,2,2024-05-07_20h39.56.937,face trait task,2021.2.3,MacIntel,120.0048002,120766,,,,,,,
,,,,,,1.996549479,5.5751,space,0.8645,0,43,43,8,1,9,image/9.jpg,0,0,,R_7lxhI87CHabQjfc,2,2024-05-07_20h39.56.937,face trait task,2021.2.3,MacIntel,120.0048002,120766,,,,,,,
,,,,,,2.991037326,3.5833,space,0.5831,0,44,44,24,1,25,image/25.jpg,0,0,,R_7lxhI87CHabQjfc,2,2024-05-07_20h39.56.937,face trait task,2021.2.3,MacIntel,120.0048002,120766,,,,,,,
,,,,,,5.987955729,4.0372,space,0.869,0,45,45,4,1,5,image/5.jpg,0,0,,R_7lxhI87CHabQjfc,2,2024-05-07_20h39.56.937,face trait task,2021.2.3,MacIntel,120.0048002,120766,,,,,,,
,,,,,,4.031922743,2.2553,space,0.8335,0,46,46,15,1,16,image/16.jpg,0,0,,R_7lxhI87CHabQjfc,2,2024-05-07_20h39.56.937,face trait task,2021.2.3,MacIntel,120.0048002,120766,,,,,,,
,,,,,,3.5234375,6.1067,space,0.434,0,47,47,26,1,27,image/27.jpg,0,0,,R_7lxhI87CHabQjfc,2,2024-05-07_20h39.56.937,face trait task,2021.2.3,MacIntel,120.0048002,120766,,,,,,,
,,,,,,3.5234375,1.594,space,1.6378,0,48,48,6,1,7,image/7.jpg,0,0,,R_7lxhI87CHabQjfc,2,2024-05-07_20h39.56.937,face trait task,2021.2.3,MacIntel,120.0048002,120766,,,,,,,
,,,,,,4.616037326,2.9243,space,1.2176,0,49,49,1,1,2,image/2.jpg,0,0,,R_7lxhI87CHabQjfc,2,2024-05-07_20h39.56.937,face trait task,2021.2.3,MacIntel,120.0048002,120766,,,,,,,
,,,,,,2.946332465,3.85,space,0.5435,0,50,50,31,1,32,image/32.jpg,0,0,,R_7lxhI87CHabQjfc,2,2024-05-07_20h39.56.937,face trait task,2021.2.3,MacIntel,120.0048002,120766,,,,,,,
,,,,,,3.470768229,19.9067,space,0.2671,0,51,51,18,1,19,image/19.jpg,0,0,,R_7lxhI87CHabQjfc,2,2024-05-07_20h39.56.937,face trait task,2021.2.3,MacIntel,120.0048002,120766,,,,,,,
,,,,,,2.429622396,5.4403,space,0.3161,0,52,52,19,1,20,image/20.jpg,0,0,,R_7lxhI87CHabQjfc,2,2024-05-07_20h39.56.937,face trait task,2021.2.3,MacIntel,120.0048002,120766,,,,,,,
,,,,,,,,,,,,,,,,,,,,R_7lxhI87CHabQjfc,2,2024-05-07_20h39.56.937,face trait task,2021.2.3,MacIntel,120.0048002,120766,0,0,0,1,1,1,competent.png
,,,,,critical,4.368858507,3.1413,space,0.8216,0,0,0,13,1,14,image/14.jpg,0,0,,R_7lxhI87CHabQjfc,2,2024-05-07_20h39.56.937,face trait task,2021.2.3,MacIntel,120.0048002,120766,,,,,,,
,,,,,,1.981445313,3.0132,space,0.807,0,1,1,23,1,24,image/24.jpg,0,0,,R_7lxhI87CHabQjfc,2,2024-05-07_20h39.56.937,face trait task,2021.2.3,MacIntel,120.0048002,120766,,,,,,,
,,,,,,6.003385417,2.655,space,0.7129,0,2,2,48,1,49,image/49.jpg,0,0,,R_7lxhI87CHabQjfc,2,2024-05-07_20h39.56.937,face trait task,2021.2.3,MacIntel,120.0048002,120766,,,,,,,
,,,,,,1.013845486,4.1582,space,0.6083,0,3,3,11,1,12,image/12.jpg,0,0,,R_7lxhI87CHabQjfc,2,2024-05-07_20h39.56.937,face trait task,2021.2.3,MacIntel,120.0048002,120766,,,,,,,
,,,,,,1.012673611,5.5589,space,0.6331,0,4,4,50,1,55,image/fill_img.png,1,1,Please move the slider all the way to the LEFT to show that you are paying attention.,R_7lxhI87CHabQjfc,2,2024-05-07_20h39.56.937,face trait task,2021.2.3,MacIntel,120.0048002,120766,,,,,,,
,,,,,,5.014735243,3.5113,space,0.3904,0,5,5,27,1,28,image/28.jpg,0,0,,R_7lxhI87CHabQjfc,2,2024-05-07_20h39.56.937,face trait task,2021.2.3,MacIntel,120.0048002,120766,,,,,,,
,,,,,,2.935264757,3.1856,space,1.5385,0,6,6,18,1,19,image/19.jpg,0,0,,R_7lxhI87CHabQjfc,2,2024-05-07_20h39.56.937,face trait task,2021.2.3,MacIntel,120.0048002,120766,,,,,,,
,,,,,,5.516688368,4.7875,space,1.3601,0,7,7,19,1,20,image/20.jpg,0,0,,R_7lxhI87CHabQjfc,2,2024-05-07_20h39.56.937,face trait task,2021.2.3,MacIntel,120.0048002,120766,,,,,,,
,,,,,,5.013151042,4.1423,space,0.2918,0,8,8,40,1,41,image/41.jpg,0,0,,R_7lxhI87CHabQjfc,2,2024-05-07_20h39.56.937,face trait task,2021.2.3,MacIntel,120.0048002,120766,,,,,,,
,,,,,,2.932096354,2.9035,space,2.2455,0,9,9,44,1,45,image/45.jpg,0,0,,R_7lxhI87CHabQjfc,2,2024-05-07_20h39.56.937,face trait task,2021.2.3,MacIntel,120.0048002,120766,,,,,,,
,,,,,,2.964431424,2.6752,space,0.5959,0,10,10,31,1,32,image/32.jpg,0,0,,R_7lxhI87CHabQjfc,2,2024-05-07_20h39.56.937,face trait task,2021.2.3,MacIntel,120.0048002,120766,,,,,,,
,,,,,,2.023611111,2.0515,space,0.34,0,11,11,0,1,1,image/1.jpg,0,0,,R_7lxhI87CHabQjfc,2,2024-05-07_20h39.56.937,face trait task,2021.2.3,MacIntel,120.0048002,120766,,,,,,,
,,,,,,4.996592882,6.3668,space,0.5833,0,12,12,21,1,22,image/22.jpg,0,0,,R_7lxhI87CHabQjfc,2,2024-05-07_20h39.56.937,face trait task,2021.2.3,MacIntel,120.0048002,120766,,,,,,,
,,,,,,5.021809896,2.7539,space,0.3344,0,13,13,16,1,17,image/17.jpg,0,0,,R_7lxhI87CHabQjfc,2,2024-05-07_20h39.56.937,face trait task,2021.2.3,MacIntel,120.0048002,120766,,,,,,,
,,,,,,3.994314236,3.9901,space,0.322,0,14,14,26,1,27,image/27.jpg,0,0,,R_7lxhI87CHabQjfc,2,2024-05-07_20h39.56.937,face trait task,2021.2.3,MacIntel,120.0048002,120766,,,,,,,
,,,,,,2.016276042,2.8463,space,1.0524,0,15,15,4,1,5,image/5.jpg,0,0,,R_7lxhI87CHabQjfc,2,2024-05-07_20h39.56.937,face trait task,2021.2.3,MacIntel,120.0048002,120766,,,,,,,
,,,,,,4.987261285,5.6078,space,0.8917,0,16,16,47,1,48,image/48.jpg,0,0,,R_7lxhI87CHabQjfc,2,2024-05-07_20h39.56.937,face trait task,2021.2.3,MacIntel,120.0048002,120766,,,,,,,
,,,,,,5.327213542,3.5327,space,0.4615,0,17,17,38,1,39,image/39.jpg,0,0,,R_7lxhI87CHabQjfc,2,2024-05-07_20h39.56.937,face trait task,2021.2.3,MacIntel,120.0048002,120766,,,,,,,
,,,,,,1.926909722,20.5599,space,0.7034,0,18,18,34,1,35,image/35.jpg,0,0,,R_7lxhI87CHabQjfc,2,2024-05-07_20h39.56.937,face trait task,2021.2.3,MacIntel,120.0048002,120766,,,,,,,
,,,,,,4.06108941,5.689,space,0.7646,0,19,19,6,1,7,image/7.jpg,0,0,,R_7lxhI87CHabQjfc,2,2024-05-07_20h39.56.937,face trait task,2021.2.3,MacIntel,120.0048002,120766,,,,,,,
,,,,,,5.985481771,3.4618,space,0.2774,0,20,20,15,1,16,image/16.jpg,0,0,,R_7lxhI87CHabQjfc,2,2024-05-07_20h39.56.937,face trait task,2021.2.3,MacIntel,120.0048002,120766,,,,,,,
,,,,,,2.990299479,2.7809,space,0.3361,0,21,21,39,1,40,image/40.jpg,0,0,,R_7lxhI87CHabQjfc,2,2024-05-07_20h39.56.937,face trait task,2021.2.3,MacIntel,120.0048002,120766,,,,,,,
,,,,,,4.999435764,2.4547,space,2.9355,0,22,22,43,1,44,image/44.jpg,0,0,,R_7lxhI87CHabQjfc,2,2024-05-07_20h39.56.937,face trait task,2021.2.3,MacIntel,120.0048002,120766,,,,,,,
,,,,,,4.532877604,5.8589,space,0.4749,0,23,23,5,1,6,image/6.jpg,0,0,,R_7lxhI87CHabQjfc,2,2024-05-07_20h39.56.937,face trait task,2021.2.3,MacIntel,120.0048002,120766,,,,,,,
,,,,,,2.014713542,6.7896,space,0.4483,0,24,24,9,1,10,image/10.jpg,0,0,,R_7lxhI87CHabQjfc,2,2024-05-07_20h39.56.937,face trait task,2021.2.3,MacIntel,120.0048002,120766,,,,,,,
,,,,,,1.971940104,12.4606,space,0.3583,0,25,25,32,1,33,image/33.jpg,0,0,,R_7lxhI87CHabQjfc,2,2024-05-07_20h39.56.937,face trait task,2021.2.3,MacIntel,120.0048002,120766,,,,,,,
,,,,,,1.977734375,5.4979,space,0.5986,0,26,26,24,1,25,image/25.jpg,0,0,,R_7lxhI87CHabQjfc,2,2024-05-07_20h39.56.937,face trait task,2021.2.3,MacIntel,120.0048002,120766,,,,,,,
,,,,,,5.977039931,3.3285,space,0.3558,0,27,27,45,1,46,image/46.jpg,0,0,,R_7lxhI87CHabQjfc,2,2024-05-07_20h39.56.937,face trait task,2021.2.3,MacIntel,120.0048002,120766,,,,,,,
,,,,,,4.437999132,3.5696,space,0.3525,0,28,28,8,1,9,image/9.jpg,0,0,,R_7lxhI87CHabQjfc,2,2024-05-07_20h39.56.937,face trait task,2021.2.3,MacIntel,120.0048002,120766,,,,,,,
,,,,,,2.93999566,4.3922,space,0.4633,0,29,29,17,1,18,image/18.jpg,0,0,,R_7lxhI87CHabQjfc,2,2024-05-07_20h39.56.937,face trait task,2021.2.3,MacIntel,120.0048002,120766,,,,,,,
,,,,,,6.741796875,3.829,space,0.2727,0,30,30,30,1,31,image/31.jpg,0,0,,R_7lxhI87CHabQjfc,2,2024-05-07_20h39.56.937,face trait task,2021.2.3,MacIntel,120.0048002,120766,,,,,,,
,,,,,,1.024978299,2.5058,space,0.4056,0,31,31,51,1,52,image/fill_img.png,1,1,Please move the slider all the way to the LEFT to show that you are paying attention.,R_7lxhI87CHabQjfc,2,2024-05-07_20h39.56.937,face trait task,2021.2.3,MacIntel,120.0048002,120766,,,,,,,
,,,,,,2.996983507,2.632,space,0.5492,0,32,32,12,1,13,image/13.jpg,0,0,,R_7lxhI87CHabQjfc,2,2024-05-07_20h39.56.937,face trait task,2021.2.3,MacIntel,120.0048002,120766,,,,,,,
,,,,,,3.034700521,3.4912,space,0.3371,0,33,33,7,1,8,image/8.jpg,0,0,,R_7lxhI87CHabQjfc,2,2024-05-07_20h39.56.937,face trait task,2021.2.3,MacIntel,120.0048002,120766,,,,,,,
,,,,,,5.012304688,3.7949,space,0.3869,0,34,34,37,1,38,image/38.jpg,0,0,,R_7lxhI87CHabQjfc,2,2024-05-07_20h39.56.937,face trait task,2021.2.3,MacIntel,120.0048002,120766,,,,,,,
,,,,,,6.985633681,3.1116,space,0.4036,0,35,35,52,1,61,image/fill_img.png,1,7,Please move the slider all the way to the RIGHT to show that you are paying attention.,R_7lxhI87CHabQjfc,2,2024-05-07_20h39.56.937,face trait task,2021.2.3,MacIntel,120.0048002,120766,,,,,,,
,,,,,,4.001193576,3.5183,space,0.4571,0,36,36,28,1,29,image/29.jpg,0,0,,R_7lxhI87CHabQjfc,2,2024-05-07_20h39.56.937,face trait task,2021.2.3,MacIntel,120.0048002,120766,,,,,,,
,,,,,,3.28765191,2.0018,space,0.2157,0,37,37,20,1,21,image/21.jpg,0,0,,R_7lxhI87CHabQjfc,2,2024-05-07_20h39.56.937,face trait task,2021.2.3,MacIntel,120.0048002,120766,,,,,,,
,,,,,,5.998502604,2.4794,space,0.1556,0,38,38,29,1,30,image/30.jpg,0,0,,R_7lxhI87CHabQjfc,2,2024-05-07_20h39.56.937,face trait task,2021.2.3,MacIntel,120.0048002,120766,,,,,,,
,,,,,,1.999826389,6.0858,space,0.8368,0,39,39,22,1,23,image/23.jpg,0,0,,R_7lxhI87CHabQjfc,2,2024-05-07_20h39.56.937,face trait task,2021.2.3,MacIntel,120.0048002,120766,,,,,,,
,,,,,,1.993142361,6.6004,space,1.3033,0,40,40,35,1,36,image/36.jpg,0,0,,R_7lxhI87CHabQjfc,2,2024-05-07_20h39.56.937,face trait task,2021.2.3,MacIntel,120.0048002,120766,,,,,,,
,,,,,,4.949674479,6.4296,space,0.3554,0,41,41,36,1,37,image/37.jpg,0,0,,R_7lxhI87CHabQjfc,2,2024-05-07_20h39.56.937,face trait task,2021.2.3,MacIntel,120.0048002,120766,,,,,,,
,,,,,,2.02797309,4.3001,space,1.1987,0,42,42,46,1,47,image/47.jpg,0,0,,R_7lxhI87CHabQjfc,2,2024-05-07_20h39.56.937,face trait task,2021.2.3,MacIntel,120.0048002,120766,,,,,,,
,,,,,,1.004361979,5.3255,space,1.2428,0,43,43,49,1,50,image/50.jpg,0,0,,R_7lxhI87CHabQjfc,2,2024-05-07_20h39.56.937,face trait task,2021.2.3,MacIntel,120.0048002,120766,,,,,,,
,,,,,,2.034006076,2.4797,space,0.6018,0,44,44,33,1,34,image/34.jpg,0,0,,R_7lxhI87CHabQjfc,2,2024-05-07_20h39.56.937,face trait task,2021.2.3,MacIntel,120.0048002,120766,,,,,,,
,,,,,,1.977539063,2.2029,space,0.5771,0,45,45,41,1,42,image/42.jpg,0,0,,R_7lxhI87CHabQjfc,2,2024-05-07_20h39.56.937,face trait task,2021.2.3,MacIntel,120.0048002,120766,,,,,,,
,,,,,,5.005013021,3.0055,space,1.8306,0,46,46,14,1,15,image/15.jpg,0,0,,R_7lxhI87CHabQjfc,2,2024-05-07_20h39.56.937,face trait task,2021.2.3,MacIntel,120.0048002,120766,,,,,,,
,,,,,,3.983767361,3.1227,space,1.0693,0,47,47,25,1,26,image/26.jpg,0,0,,R_7lxhI87CHabQjfc,2,2024-05-07_20h39.56.937,face trait task,2021.2.3,MacIntel,120.0048002,120766,,,,,,,
,,,,,,4.997851562,5.5159,space,4.8481,0,48,48,3,1,4,image/4.jpg,0,0,,R_7lxhI87CHabQjfc,2,2024-05-07_20h39.56.937,face trait task,2021.2.3,MacIntel,120.0048002,120766,,,,,,,
,,,,,,6.015082465,4.4883,space,1.979,0,49,49,2,1,3,image/3.jpg,0,0,,R_7lxhI87CHabQjfc,2,2024-05-07_20h39.56.937,face trait task,2021.2.3,MacIntel,120.0048002,120766,,,,,,,
,,,,,,2.022092014,2.9191,space,1.393,0,50,50,1,1,2,image/2.jpg,0,0,,R_7lxhI87CHabQjfc,2,2024-05-07_20h39.56.937,face trait task,2021.2.3,MacIntel,120.0048002,120766,,,,,,,
,,,,,,5.001584201,19.7193,space,0.2243,0,51,51,10,1,11,image/11.jpg,0,0,,R_7lxhI87CHabQjfc,2,2024-05-07_20h39.56.937,face trait task,2021.2.3,MacIntel,120.0048002,120766,,,,,,,
,,,,,,5.952756076,4.8671,space,0.5086,0,52,52,42,1,43,image/43.jpg,0,0,,R_7lxhI87CHabQjfc,2,2024-05-07_20h39.56.937,face trait task,2021.2.3,MacIntel,120.0048002,120766,,,,,,,
,,,,,,,,,,,,,,,,,,,,R_7lxhI87CHabQjfc,2,2024-05-07_20h39.56.937,face trait task,2021.2.3,MacIntel,120.0048002,120766,0,1,1,0,1,0,critical.png
,,,,,trustworthy,3.020486111,3.7993,space,1.1582,0,0,0,13,1,14,image/14.jpg,0,0,,R_7lxhI87CHabQjfc,2,2024-05-07_20h39.56.937,face trait task,2021.2.3,MacIntel,120.0048002,120766,,,,,,,
,,,,,,1.006966146,2.6538,space,0.4262,0,1,1,51,1,52,image/fill_img.png,1,1,Please move the slider all the way to the LEFT to show that you are paying attention.,R_7lxhI87CHabQjfc,2,2024-05-07_20h39.56.937,face trait task,2021.2.3,MacIntel,120.0048002,120766,,,,,,,
,,,,,,4.52358941,4.6158,space,0.7323,0,2,2,31,1,32,image/32.jpg,0,0,,R_7lxhI87CHabQjfc,2,2024-05-07_20h39.56.937,face trait task,2021.2.3,MacIntel,120.0048002,120766,,,,,,,
,,,,,,5.015863715,7.2245,space,3.8494,0,3,3,9,1,10,image/10.jpg,0,0,,R_7lxhI87CHabQjfc,2,2024-05-07_20h39.56.937,face trait task,2021.2.3,MacIntel,120.0048002,120766,,,,,,,
,,,,,,5.007899306,2.7392,space,0.3479,0,4,4,3,1,4,image/4.jpg,0,0,,R_7lxhI87CHabQjfc,2,2024-05-07_20h39.56.937,face trait task,2021.2.3,MacIntel,120.0048002,120766,,,,,,,
,,,,,,6.988324653,4.6249,space,0.5843,0,5,5,11,1,12,image/12.jpg,0,0,,R_7lxhI87CHabQjfc,2,2024-05-07_20h39.56.937,face trait task,2021.2.3,MacIntel,120.0048002,120766,,,,,,,
,,,,,,5.970876736,4.2331,space,0.309,0,6,6,27,1,28,image/28.jpg,0,0,,R_7lxhI87CHabQjfc,2,2024-05-07_20h39.56.937,face trait task,2021.2.3,MacIntel,120.0048002,120766,,,,,,,
,,,,,,3.989236111,6.2074,space,0.4586,0,7,7,10,1,11,image/11.jpg,0,0,,R_7lxhI87CHabQjfc,2,2024-05-07_20h39.56.937,face trait task,2021.2.3,MacIntel,120.0048002,120766,,,,,,,
,,,,,,5.971354167,2.9708,space,0.4021,0,8,8,23,1,24,image/24.jpg,0,0,,R_7lxhI87CHabQjfc,2,2024-05-07_20h39.56.937,face trait task,2021.2.3,MacIntel,120.0048002,120766,,,,,,,
,,,,,,2.055099826,6.39,space,0.5507,0,9,9,8,1,9,image/9.jpg,0,0,,R_7lxhI87CHabQjfc,2,2024-05-07_20h39.56.937,face trait task,2021.2.3,MacIntel,120.0048002,120766,,,,,,,
,,,,,,5.007269965,6.0733,space,0.7174,0,10,10,17,1,18,image/18.jpg,0,0,,R_7lxhI87CHabQjfc,2,2024-05-07_20h39.56.937,face trait task,2021.2.3,MacIntel,120.0048002,120766,,,,,,,
,,,,,,2.039605035,1.9465,space,0.4324,0,11,11,5,1,6,image/6.jpg,0,0,,R_7lxhI87CHabQjfc,2,2024-05-07_20h39.56.937,face trait task,2021.2.3,MacIntel,120.0048002,120766,,,,,,,
,,,,,,6.975585938,4.6125,space,0.3622,0,12,12,35,1,36,image/36.jpg,0,0,,R_7lxhI87CHabQjfc,2,2024-05-07_20h39.56.937,face trait task,2021.2.3,MacIntel,120.0048002,120766,,,,,,,
,,,,,,4.939583333,6.3408,space,4.2154,0,13,13,7,1,8,image/8.jpg,0,0,,R_7lxhI87CHabQjfc,2,2024-05-07_20h39.56.937,face trait task,2021.2.3,MacIntel,120.0048002,120766,,,,,,,
,,,,,,4.935698785,2.0119,space,0.568,0,14,14,46,1,47,image/47.jpg,0,0,,R_7lxhI87CHabQjfc,2,2024-05-07_20h39.56.937,face trait task,2021.2.3,MacIntel,120.0048002,120766,,,,,,,
,,,,,,3.057074653,2.2688,space,0.5221,0,15,15,41,1,42,image/42.jpg,0,0,,R_7lxhI87CHabQjfc,2,2024-05-07_20h39.56.937,face trait task,2021.2.3,MacIntel,120.0048002,120766,,,,,,,
,,,,,,2.010221354,7.3111,space,0.3944,0,16,16,43,1,44,image/44.jpg,0,0,,R_7lxhI87CHabQjfc,2,2024-05-07_20h39.56.937,face trait task,2021.2.3,MacIntel,120.0048002,120766,,,,,,,
,,,,,,1.005533854,3.1806,space,0.5178,0,17,17,50,1,55,image/fill_img.png,1,1,Please move the slider all the way to the LEFT to show that you are paying attention.,R_7lxhI87CHabQjfc,2,2024-05-07_20h39.56.937,face trait task,2021.2.3,MacIntel,120.0048002,120766,,,,,,,
,,,,,,1.994748264,2.7229,space,0.2888,0,18,18,36,1,37,image/37.jpg,0,0,,R_7lxhI87CHabQjfc,2,2024-05-07_20h39.56.937,face trait task,2021.2.3,MacIntel,120.0048002,120766,,,,,,,
,,,,,,1.985503472,3.3073,space,0.5471,0,19,19,34,1,35,image/35.jpg,0,0,,R_7lxhI87CHabQjfc,2,2024-05-07_20h39.56.937,face trait task,2021.2.3,MacIntel,120.0048002,120766,,,,,,,
,,,,,,4.030967882,2.796,space,0.2599,0,20,20,49,1,50,image/50.jpg,0,0,,R_7lxhI87CHabQjfc,2,2024-05-07_20h39.56.937,face trait task,2021.2.3,MacIntel,120.0048002,120766,,,,,,,
,,,,,,2.045876736,6.6085,space,0.4648,0,21,21,30,1,31,image/31.jpg,0,0,,R_7lxhI87CHabQjfc,2,2024-05-07_20h39.56.937,face trait task,2021.2.3,MacIntel,120.0048002,120766,,,,,,,
,,,,,,4.997916667,3.633,space,0.267,0,22,22,44,1,45,image/45.jpg,0,0,,R_7lxhI87CHabQjfc,2,2024-05-07_20h39.56.937,face trait task,2021.2.3,MacIntel,120.0048002,120766,,,,,,,
,,,,,,4.997309028,2.2186,space,1.4182,0,23,23,4,1,5,image/5.jpg,0,0,,R_7lxhI87CHabQjfc,2,2024-05-07_20h39.56.937,face trait task,2021.2.3,MacIntel,120.0048002,120766,,,,,,,
,,,,,,2.98422309,3.2087,space,1.5551,0,24,24,33,1,34,image/34.jpg,0,0,,R_7lxhI87CHabQjfc,2,2024-05-07_20h39.56.937,face trait task,2021.2.3,MacIntel,120.0048002,120766,,,,,,,
,,,,,,1.994618056,6.4421,space,1.1687,0,25,25,14,1,15,image/15.jpg,0,0,,R_7lxhI87CHabQjfc,2,2024-05-07_20h39.56.937,face trait task,2021.2.3,MacIntel,120.0048002,120766,,,,,,,
,,,,,,6.99233941,2.6287,space,0.9093,0,26,26,52,1,61,image/fill_img.png,1,7,Please move the slider all the way to the RIGHT to show that you are paying attention.,R_7lxhI87CHabQjfc,2,2024-05-07_20h39.56.937,face trait task,2021.2.3,MacIntel,120.0048002,120766,,,,,,,
,,,,,,4.979188368,7.8312,space,0.4359,0,27,27,21,1,22,image/22.jpg,0,0,,R_7lxhI87CHabQjfc,2,2024-05-07_20h39.56.937,face trait task,2021.2.3,MacIntel,120.0048002,120766,,,,,,,
,,,,,,1.996332465,3.8329,space,0.3421,0,28,28,24,1,25,image/25.jpg,0,0,,R_7lxhI87CHabQjfc,2,2024-05-07_20h39.56.937,face trait task,2021.2.3,MacIntel,120.0048002,120766,,,,,,,
,,,,,,2.997547743,3.3474,space,0.9716,0,29,29,18,1,19,image/19.jpg,0,0,,R_7lxhI87CHabQjfc,2,2024-05-07_20h39.56.937,face trait task,2021.2.3,MacIntel,120.0048002,120766,,,,,,,
,,,,,,2.992361111,1.4883,space,0.8956,0,30,30,1,1,2,image/2.jpg,0,0,,R_7lxhI87CHabQjfc,2,2024-05-07_20h39.56.937,face trait task,2021.2.3,MacIntel,120.0048002,120766,,,,,,,
,,,,,,3.933572049,2.6306,space,0.6769,0,31,31,32,1,33,image/33.jpg,0,0,,R_7lxhI87CHabQjfc,2,2024-05-07_20h39.56.937,face trait task,2021.2.3,MacIntel,120.0048002,120766,,,,,,,
,,,,,,3.002278646,3.7528,space,0.3232,0,32,32,0,1,1,image/1.jpg,0,0,,R_7lxhI87CHabQjfc,2,2024-05-07_20h39.56.937,face trait task,2021.2.3,MacIntel,120.0048002,120766,,,,,,,
,,,,,,5.024023438,5.3205,space,4.0519,0,33,33,26,1,27,image/27.jpg,0,0,,R_7lxhI87CHabQjfc,2,2024-05-07_20h39.56.937,face trait task,2021.2.3,MacIntel,120.0048002,120766,,,,,,,
,,,,,,1.006835938,3.0036,space,0.5211,0,34,34,40,1,41,image/41.jpg,0,0,,R_7lxhI87CHabQjfc,2,2024-05-07_20h39.56.937,face trait task,2021.2.3,MacIntel,120.0048002,120766,,,,,,,
,,,,,,4.001540799,3.038,space,2.0422,0,35,35,38,1,39,image/39.jpg,0,0,,R_7lxhI87CHabQjfc,2,2024-05-07_20h39.56.937,face trait task,2021.2.3,MacIntel,120.0048002,120766,,,,,,,
,,,,,,1.982161458,2.1734,space,1.1763,0,36,36,29,1,30,image/30.jpg,0,0,,R_7lxhI87CHabQjfc,2,2024-05-07_20h39.56.937,face trait task,2021.2.3,MacIntel,120.0048002,120766,,,,,,,
,,,,,,2.980772569,5.2756,space,0.6513,0,37,37,6,1,7,image/7.jpg,0,0,,R_7lxhI87CHabQjfc,2,2024-05-07_20h39.56.937,face trait task,2021.2.3,MacIntel,120.0048002,120766,,,,,,,
,,,,,,4.979448785,2.9875,space,0.5901,0,38,38,15,1,16,image/16.jpg,0,0,,R_7lxhI87CHabQjfc,2,2024-05-07_20h39.56.937,face trait task,2021.2.3,MacIntel,120.0048002,120766,,,,,,,
,,,,,,4.979448785,3.6957,space,0.4366,0,39,39,19,1,20,image/20.jpg,0,0,,R_7lxhI87CHabQjfc,2,2024-05-07_20h39.56.937,face trait task,2021.2.3,MacIntel,120.0048002,120766,,,,,,,
,,,,,,5.997482639,2.8812,space,0.6036,0,40,40,16,1,17,image/17.jpg,0,0,,R_7lxhI87CHabQjfc,2,2024-05-07_20h39.56.937,face trait task,2021.2.3,MacIntel,120.0048002,120766,,,,,,,
,,,,,,1.003776042,2.5383,space,0.4637,0,41,41,2,1,3,image/3.jpg,0,0,,R_7lxhI87CHabQjfc,2,2024-05-07_20h39.56.937,face trait task,2021.2.3,MacIntel,120.0048002,120766,,,,,,,
,,,,,,1.957790799,2.3554,space,0.5467,0,42,42,42,1,43,image/43.jpg,0,0,,R_7lxhI87CHabQjfc,2,2024-05-07_20h39.56.937,face trait task,2021.2.3,MacIntel,120.0048002,120766,,,,,,,
,,,,,,5.015907118,3.1364,space,0.4197,0,43,43,22,1,23,image/23.jpg,0,0,,R_7lxhI87CHabQjfc,2,2024-05-07_20h39.56.937,face trait task,2021.2.3,MacIntel,120.0048002,120766,,,,,,,
,,,,,,5.984917535,4.105,space,0.7111,0,44,44,39,1,40,image/40.jpg,0,0,,R_7lxhI87CHabQjfc,2,2024-05-07_20h39.56.937,face trait task,2021.2.3,MacIntel,120.0048002,120766,,,,,,,
,,,,,,2.992708333,6.1332,space,1.234,0,45,45,20,1,21,image/21.jpg,0,0,,R_7lxhI87CHabQjfc,2,2024-05-07_20h39.56.937,face trait task,2021.2.3,MacIntel,120.0048002,120766,,,,,,,
,,,,,,2.007986111,4.8171,space,0.2949,0,46,46,45,1,46,image/46.jpg,0,0,,R_7lxhI87CHabQjfc,2,2024-05-07_20h39.56.937,face trait task,2021.2.3,MacIntel,120.0048002,120766,,,,,,,
,,,,,,4.025499132,10.5733,space,1.1847,0,47,47,12,1,13,image/13.jpg,0,0,,R_7lxhI87CHabQjfc,2,2024-05-07_20h39.56.937,face trait task,2021.2.3,MacIntel,120.0048002,120766,,,,,,,
,,,,,,2.044053819,2.1118,space,0.623,0,48,48,48,1,49,image/49.jpg,0,0,,R_7lxhI87CHabQjfc,2,2024-05-07_20h39.56.937,face trait task,2021.2.3,MacIntel,120.0048002,120766,,,,,,,
,,,,,,4.003515625,3.0365,space,1.4083,0,49,49,37,1,38,image/38.jpg,0,0,,R_7lxhI87CHabQjfc,2,2024-05-07_20h39.56.937,face trait task,2021.2.3,MacIntel,120.0048002,120766,,,,,,,
,,,,,,3.023936632,5.0215,space,2.1891,0,50,50,25,1,26,image/26.jpg,0,0,,R_7lxhI87CHabQjfc,2,2024-05-07_20h39.56.937,face trait task,2021.2.3,MacIntel,120.0048002,120766,,,,,,,
,,,,,,3.008311632,2.7465,space,0.5224,0,51,51,47,1,48,image/48.jpg,0,0,,R_7lxhI87CHabQjfc,2,2024-05-07_20h39.56.937,face trait task,2021.2.3,MacIntel,120.0048002,120766,,,,,,,
,,,,,,2.015863715,3.0241,space,0.9026,0,52,52,28,1,29,image/29.jpg,0,0,,R_7lxhI87CHabQjfc,2,2024-05-07_20h39.56.937,face trait task,2021.2.3,MacIntel,120.0048002,120766,,,,,,,
,,,,,,,,,,,,,,,,,,,,R_7lxhI87CHabQjfc,2,2024-05-07_20h39.56.937,face trait task,2021.2.3,MacIntel,120.0048002,120766,0,2,2,2,1,2,trustworthy.png
,,,,,friendly,2.007899306,5.3602,space,0.4974,0,0,0,6,1,7,image/7.jpg,0,0,,R_7lxhI87CHabQjfc,2,2024-05-07_20h39.56.937,face trait task,2021.2.3,MacIntel,120.0048002,120766,,,,,,,
,,,,,,4.979774306,9.8498,space,1.6376,0,1,1,38,1,39,image/39.jpg,0,0,,R_7lxhI87CHabQjfc,2,2024-05-07_20h39.56.937,face trait task,2021.2.3,MacIntel,120.0048002,120766,,,,,,,
,,,,,,4.987825521,3.1439,space,0.3672,0,2,2,33,1,34,image/34.jpg,0,0,,R_7lxhI87CHabQjfc,2,2024-05-07_20h39.56.937,face trait task,2021.2.3,MacIntel,120.0048002,120766,,,,,,,
,,,,,,1.005924479,4.0493,space,0.3814,0,3,3,51,1,52,image/fill_img.png,1,1,Please move the slider all the way to the LEFT to show that you are paying attention.,R_7lxhI87CHabQjfc,2,2024-05-07_20h39.56.937,face trait task,2021.2.3,MacIntel,120.0048002,120766,,,,,,,
,,,,,,4.989670139,2.7876,space,0.5128,0,4,4,18,1,19,image/19.jpg,0,0,,R_7lxhI87CHabQjfc,2,2024-05-07_20h39.56.937,face trait task,2021.2.3,MacIntel,120.0048002,120766,,,,,,,
,,,,,,2.974934896,1.9696,space,2.1138,0,5,5,0,1,1,image/1.jpg,0,0,,R_7lxhI87CHabQjfc,2,2024-05-07_20h39.56.937,face trait task,2021.2.3,MacIntel,120.0048002,120766,,,,,,,
,,,,,,1.965538194,3.4152,space,0.4209,0,6,6,42,1,43,image/43.jpg,0,0,,R_7lxhI87CHabQjfc,2,2024-05-07_20h39.56.937,face trait task,2021.2.3,MacIntel,120.0048002,120766,,,,,,,
,,,,,,6.050759549,5.157,space,0.5426,0,7,7,22,1,23,image/23.jpg,0,0,,R_7lxhI87CHabQjfc,2,2024-05-07_20h39.56.937,face trait task,2021.2.3,MacIntel,120.0048002,120766,,,,,,,
,,,,,,2.00718316,4.414,space,2.7367,0,8,8,15,1,16,image/16.jpg,0,0,,R_7lxhI87CHabQjfc,2,2024-05-07_20h39.56.937,face trait task,2021.2.3,MacIntel,120.0048002,120766,,,,,,,
,,,,,,1.014822049,2.6893,space,0.5871,0,9,9,50,1,55,image/fill_img.png,1,1,Please move the slider all the way to the LEFT to show that you are paying attention.,R_7lxhI87CHabQjfc,2,2024-05-07_20h39.56.937,face trait task,2021.2.3,MacIntel,120.0048002,120766,,,,,,,
,,,,,,2.019639757,2.8717,space,0.4194,0,10,10,10,1,11,image/11.jpg,0,0,,R_7lxhI87CHabQjfc,2,2024-05-07_20h39.56.937,face trait task,2021.2.3,MacIntel,120.0048002,120766,,,,,,,
,,,,,,5.034461806,4.2183,space,0.3336,0,11,11,48,1,49,image/49.jpg,0,0,,R_7lxhI87CHabQjfc,2,2024-05-07_20h39.56.937,face trait task,2021.2.3,MacIntel,120.0048002,120766,,,,,,,
,,,,,,3.00859375,3.8503,space,1.2388,0,12,12,13,1,14,image/14.jpg,0,0,,R_7lxhI87CHabQjfc,2,2024-05-07_20h39.56.937,face trait task,2021.2.3,MacIntel,120.0048002,120766,,,,,,,
,,,,,,6.020724826,2.8549,space,0.3601,0,13,13,34,1,35,image/35.jpg,0,0,,R_7lxhI87CHabQjfc,2,2024-05-07_20h39.56.937,face trait task,2021.2.3,MacIntel,120.0048002,120766,,,,,,,
,,,,,,6.023502604,2.4784,space,1.01,0,14,14,1,1,2,image/2.jpg,0,0,,R_7lxhI87CHabQjfc,2,2024-05-07_20h39.56.937,face trait task,2021.2.3,MacIntel,120.0048002,120766,,,,,,,
,,,,,,4.024934896,2.5316,space,1.5348,0,15,15,5,1,6,image/6.jpg,0,0,,R_7lxhI87CHabQjfc,2,2024-05-07_20h39.56.937,face trait task,2021.2.3,MacIntel,120.0048002,120766,,,,,,,
,,,,,,4.028342014,1.8206,space,1.6073,0,16,16,8,1,9,image/9.jpg,0,0,,R_7lxhI87CHabQjfc,2,2024-05-07_20h39.56.937,face trait task,2021.2.3,MacIntel,120.0048002,120766,,,,,,,
,,,,,,5.008376736,3.6025,space,3.3347,0,17,17,41,1,42,image/42.jpg,0,0,,R_7lxhI87CHabQjfc,2,2024-05-07_20h39.56.937,face trait task,2021.2.3,MacIntel,120.0048002,120766,,,,,,,
,,,,,,5.021875,3.5831,space,1.6716,0,18,18,44,1,45,image/45.jpg,0,0,,R_7lxhI87CHabQjfc,2,2024-05-07_20h39.56.937,face trait task,2021.2.3,MacIntel,120.0048002,120766,,,,,,,
,,,,,,4.999131944,7.2786,space,0.6385,0,19,19,47,1,48,image/48.jpg,0,0,,R_7lxhI87CHabQjfc,2,2024-05-07_20h39.56.937,face trait task,2021.2.3,MacIntel,120.0048002,120766,,,,,,,
,,,,,,2.006054687,3.4318,space,0.7792,0,20,20,2,1,3,image/3.jpg,0,0,,R_7lxhI87CHabQjfc,2,2024-05-07_20h39.56.937,face trait task,2021.2.3,MacIntel,120.0048002,120766,,,,,,,
,,,,,,2.983094618,3.8574,space,1.6297,0,21,21,43,1,44,image/44.jpg,0,0,,R_7lxhI87CHabQjfc,2,2024-05-07_20h39.56.937,face trait task,2021.2.3,MacIntel,120.0048002,120766,,,,,,,
,,,,,,4.975043403,3.1276,space,0.4857,0,22,22,7,1,8,image/8.jpg,0,0,,R_7lxhI87CHabQjfc,2,2024-05-07_20h39.56.937,face trait task,2021.2.3,MacIntel,120.0048002,120766,,,,,,,
,,,,,,1.99203559,2.3888,space,1.8145,0,23,23,29,1,30,image/30.jpg,0,0,,R_7lxhI87CHabQjfc,2,2024-05-07_20h39.56.937,face trait task,2021.2.3,MacIntel,120.0048002,120766,,,,,,,
,,,,,,1.996940104,2.1141,space,1.2884,0,24,24,45,1,46,image/46.jpg,0,0,,R_7lxhI87CHabQjfc,2,2024-05-07_20h39.56.937,face trait task,2021.2.3,MacIntel,120.0048002,120766,,,,,,,
,,,,,,5.989887153,2.8454,space,1.1298,0,25,25,24,1,25,image/25.jpg,0,0,,R_7lxhI87CHabQjfc,2,2024-05-07_20h39.56.937,face trait task,2021.2.3,MacIntel,120.0048002,120766,,,,,,,
,,,,,,5.000737847,2.1224,space,0.5034,0,26,26,37,1,38,image/38.jpg,0,0,,R_7lxhI87CHabQjfc,2,2024-05-07_20h39.56.937,face trait task,2021.2.3,MacIntel,120.0048002,120766,,,,,,,
,,,,,,4.484375,6.6548,space,4.7956,0,27,27,23,1,24,image/24.jpg,0,0,,R_7lxhI87CHabQjfc,2,2024-05-07_20h39.56.937,face trait task,2021.2.3,MacIntel,120.0048002,120766,,,,,,,
,,,,,,3.505208333,3.1589,space,0.68,0,28,28,26,1,27,image/27.jpg,0,0,,R_7lxhI87CHabQjfc,2,2024-05-07_20h39.56.937,face trait task,2021.2.3,MacIntel,120.0048002,120766,,,,,,,
,,,,,,4.542274306,2.1853,space,1.2938,0,29,29,12,1,13,image/13.jpg,0,0,,R_7lxhI87CHabQjfc,2,2024-05-07_20h39.56.937,face trait task,2021.2.3,MacIntel,120.0048002,120766,,,,,,,
,,,,,,5.016449653,2.3276,space,1.1466,0,30,30,36,1,37,image/37.jpg,0,0,,R_7lxhI87CHabQjfc,2,2024-05-07_20h39.56.937,face trait task,2021.2.3,MacIntel,120.0048002,120766,,,,,,,
,,,,,,2.969726563,2.4006,space,1.5136,0,31,31,25,1,26,image/26.jpg,0,0,,R_7lxhI87CHabQjfc,2,2024-05-07_20h39.56.937,face trait task,2021.2.3,MacIntel,120.0048002,120766,,,,,,,
,,,,,,4.989648437,2.5351,space,0.9741,0,32,32,4,1,5,image/5.jpg,0,0,,R_7lxhI87CHabQjfc,2,2024-05-07_20h39.56.937,face trait task,2021.2.3,MacIntel,120.0048002,120766,,,,,,,
,,,,,,4.988736979,2.0289,space,0.9349,0,33,33,9,1,10,image/10.jpg,0,0,,R_7lxhI87CHabQjfc,2,2024-05-07_20h39.56.937,face trait task,2021.2.3,MacIntel,120.0048002,120766,,,,,,,
,,,,,,5.967838542,2.9999,space,1.2172,0,34,34,32,1,33,image/33.jpg,0,0,,R_7lxhI87CHabQjfc,2,2024-05-07_20h39.56.937,face trait task,2021.2.3,MacIntel,120.0048002,120766,,,,,,,
,,,,,,4.989084201,3.0945,space,1.6122,0,35,35,46,1,47,image/47.jpg,0,0,,R_7lxhI87CHabQjfc,2,2024-05-07_20h39.56.937,face trait task,2021.2.3,MacIntel,120.0048002,120766,,,,,,,
,,,,,,5.009114583,2.2769,space,1.3317,0,36,36,20,1,21,image/21.jpg,0,0,,R_7lxhI87CHabQjfc,2,2024-05-07_20h39.56.937,face trait task,2021.2.3,MacIntel,120.0048002,120766,,,,,,,
,,,,,,5.009114583,3.5372,space,0.7775,0,37,37,39,1,40,image/40.jpg,0,0,,R_7lxhI87CHabQjfc,2,2024-05-07_20h39.56.937,face trait task,2021.2.3,MacIntel,120.0048002,120766,,,,,,,
,,,,,,2.923654514,2.1622,space,1.3464,0,38,38,40,1,41,image/41.jpg,0,0,,R_7lxhI87CHabQjfc,2,2024-05-07_20h39.56.937,face trait task,2021.2.3,MacIntel,120.0048002,120766,,,,,,,
,,,,,,6.976432292,3.8049,space,0.827,0,39,39,52,1,61,image/fill_img.png,1,7,Please move the slider all the way to the RIGHT to show that you are paying attention.,R_7lxhI87CHabQjfc,2,2024-05-07_20h39.56.937,face trait task,2021.2.3,MacIntel,120.0048002,120766,,,,,,,
,,,,,,1.994401042,22.7994,space,0.4415,0,40,40,27,1,28,image/28.jpg,0,0,,R_7lxhI87CHabQjfc,2,2024-05-07_20h39.56.937,face trait task,2021.2.3,MacIntel,120.0048002,120766,,,,,,,
,,,,,,2.018619792,13.6642,space,0.4221,0,41,41,28,1,29,image/29.jpg,0,0,,R_7lxhI87CHabQjfc,2,2024-05-07_20h39.56.937,face trait task,2021.2.3,MacIntel,120.0048002,120766,,,,,,,
,,,,,,6.997764757,4.0657,space,0.6873,0,42,42,11,1,12,image/12.jpg,0,0,,R_7lxhI87CHabQjfc,2,2024-05-07_20h39.56.937,face trait task,2021.2.3,MacIntel,120.0048002,120766,,,,,,,
,,,,,,3.459548611,5.2121,space,1.672,0,43,43,3,1,4,image/4.jpg,0,0,,R_7lxhI87CHabQjfc,2,2024-05-07_20h39.56.937,face trait task,2021.2.3,MacIntel,120.0048002,120766,,,,,,,
,,,,,,6.026106771,2.0114,space,0.4369,0,44,44,35,1,36,image/36.jpg,0,0,,R_7lxhI87CHabQjfc,2,2024-05-07_20h39.56.937,face trait task,2021.2.3,MacIntel,120.0048002,120766,,,,,,,
,,,,,,1.610525174,2.4358,space,2.8497,0,45,45,19,1,20,image/20.jpg,0,0,,R_7lxhI87CHabQjfc,2,2024-05-07_20h39.56.937,face trait task,2021.2.3,MacIntel,120.0048002,120766,,,,,,,
,,,,,,1.008832465,8.0889,space,0.7208,0,46,46,30,1,31,image/31.jpg,0,0,,R_7lxhI87CHabQjfc,2,2024-05-07_20h39.56.937,face trait task,2021.2.3,MacIntel,120.0048002,120766,,,,,,,
,,,,,,3.011263021,2.6792,space,0.4703,0,47,47,14,1,15,image/15.jpg,0,0,,R_7lxhI87CHabQjfc,2,2024-05-07_20h39.56.937,face trait task,2021.2.3,MacIntel,120.0048002,120766,,,,,,,
,,,,,,5.915928819,3.4969,space,0.6348,0,48,48,16,1,17,image/17.jpg,0,0,,R_7lxhI87CHabQjfc,2,2024-05-07_20h39.56.937,face trait task,2021.2.3,MacIntel,120.0048002,120766,,,,,,,
,,,,,,4.022157118,2.7042,space,0.4711,0,49,49,21,1,22,image/22.jpg,0,0,,R_7lxhI87CHabQjfc,2,2024-05-07_20h39.56.937,face trait task,2021.2.3,MacIntel,120.0048002,120766,,,,,,,
,,,,,,4.688107639,2.5152,space,0.8722,0,50,50,31,1,32,image/32.jpg,0,0,,R_7lxhI87CHabQjfc,2,2024-05-07_20h39.56.937,face trait task,2021.2.3,MacIntel,120.0048002,120766,,,,,,,
,,,,,,5.001540799,1.8851,space,0.6732,0,51,51,17,1,18,image/18.jpg,0,0,,R_7lxhI87CHabQjfc,2,2024-05-07_20h39.56.937,face trait task,2021.2.3,MacIntel,120.0048002,120766,,,,,,,
,,,,,,4.973394097,2.5874,space,1.6757,0,52,52,49,1,50,image/50.jpg,0,0,,R_7lxhI87CHabQjfc,2,2024-05-07_20h39.56.937,face trait task,2021.2.3,MacIntel,120.0048002,120766,,,,,,,
,,,,,,,,,,,,,,,,,,,,R_7lxhI87CHabQjfc,2,2024-05-07_20h39.56.937,face trait task,2021.2.3,MacIntel,120.0048002,120766,0,3,3,3,1,3,friendly.png
