chooserow,ParID,pre_instru_resp_2.keys,pre_instru_resp_2.rt,pre_instru_resp_3.keys,pre_instru_resp_3.rt,pre_instru_resp_9.keys,pre_instru_resp_9.rt,pre_instru_resp_8.keys,pre_instru_resp_8.rt,pre_instru_resp_4.keys,pre_instru_resp_4.rt,pre_instru_resp_5.keys,pre_instru_resp_5.rt,pre_instru_resp_6.keys,pre_instru_resp_6.rt,key_resp_3.keys,key_resp_3.rt,key_resp_4.keys,key_resp_4.rt,key_resp_5.keys,key_resp_5.rt,key_resp_6.keys,key_resp_6.rt,key_resp_7.keys,key_resp_7.rt,trials_2.thisRepN,trials_2.thisTrialN,trials_2.thisN,trials_2.thisIndex,trials_2.ran,participant,session,date,expName,psychopyVersion,OS,frameRate,SONAid,pre_instru_resp.keys,pre_instru_resp.rt,clicked,judge_2.x,judge_2.y,judge_2.leftButton,judge_2.midButton,judge_2.rightButton,judge_2.clicked_name,trials.thisRepN,trials.thisTrialN,trials.thisN,trials.thisIndex,trials.ran,prac_answer,prac_dot_sti,dotlefttext,dotrighttext,prac_acc,judge.x,judge.y,judge.leftButton,judge.midButton,judge.rightButton,judge.clicked_name,clicked_guilt,slider_guilt.response,slider_guilt.rt,key_guilt.keys,share_slider.response,share_slider.rt,key_share.keys,slider_apology.response,slider_apology.rt,key_apology.keys,key_apology.rt,slider_hide.response,slider_hide.rt,slider_forgiveness.response,slider_forgiveness.rt,key_forgiveness.keys,slider_mad.response,slider_mad.rt,trialseq.thisRepN,trialseq.thisTrialN,trialseq.thisN,trialseq.thisIndex,trialseq.ran,type_trial,stipic,DV,picture,answer,number,key_guilt.rt,key_share.rt,key_forgiveness.rt
"[78,171,147,110,76,155,170,133,135,148,60,138,9,169,203,123,113,129,98,159,39,195,20,82,165,184,100,58,32,48,64,67,49,187,89,125,118,188,86,161,95,103]",R_7m3jTTuD6pGKm7S,space,4.3799,space,3.256,space,21.2329,space,40.2994,space,42.953,space,8.8345,space,4.283,2,11.81,1,8.4102,2,7.2723,2,15.1324,2,4.7977,0,0,0,0,1,R_7m3jTTuD6pGKm7S,1,2024-05-21_19h55.22.150,interaction task,2021.2.3,Win32,59.88023952,120823,,,,,,,,,,,,,,,,,,,,,,,,,,,,,,,,,,,,,,,,,,,,,,,,,,,,,,,,,
,,,,space,1.5877,space,14.925,space,9.7502,space,3.6031,space,8.765,space,1.3218,3,1.9034,1,2.4887,3,8.1295,2,2.4026,2,0.7317,1,0,1,0,1,R_7m3jTTuD6pGKm7S,1,2024-05-21_19h55.22.150,interaction task,2021.2.3,Win32,59.88023952,120823,,,,,,,,,,,,,,,,,,,,,,,,,,,,,,,,,,,,,,,,,,,,,,,,,,,,,,,,,
,,,,,,,,,,,,,,,,,,,,,,,,,,,,,,,R_7m3jTTuD6pGKm7S,1,2024-05-21_19h55.22.150,interaction task,2021.2.3,Win32,59.88023952,120823,space,3.9657,"[""RightButton_2""]",0.260416667,-0.333333333,1,0,0,RightButton_2,0,0,0,1,1,RightButton_2,9dot1.png,Greater,Smaller,,,,,,,,,,,,,,,,,,,,,,,,,,,,,,,,,,,,,,,
,,,,,,,,,,,,,,,,,,,,,,,,,,,,,,,R_7m3jTTuD6pGKm7S,1,2024-05-21_19h55.22.150,interaction task,2021.2.3,Win32,59.88023952,120823,,,"[""LeftButton_2""]",-0.260416667,-0.32222225,1,0,0,LeftButton_2,0,1,1,2,1,LeftButton_2,9dot1.png,Smaller,Greater,,,,,,,,,,,,,,,,,,,,,,,,,,,,,,,,,,,,,,,
,,,,,,,,,,,,,,,,,,,,,,,,,,,,,,,R_7m3jTTuD6pGKm7S,1,2024-05-21_19h55.22.150,interaction task,2021.2.3,Win32,59.88023952,120823,,,"[""RightButton_2""]",0.311458349,-0.300000085,1,0,0,RightButton_2,0,2,2,0,1,RightButton_2,11dot1.png,Smaller,Greater,,,,,,,,,,,,,,,,,,,,,,,,,,,,,,,,,,,,,,,
,,,,,,,,,,,,,,,,,,,,,,,,,,,,,,,R_7m3jTTuD6pGKm7S,1,2024-05-21_19h55.22.150,interaction task,2021.2.3,Win32,59.88023952,120823,,,,,,,,,,,,,,,,,Smaller,Greater,0.6,-0.28125,-0.483333305,1,0,0,LeftButton,"[""LeftButton""]",,,,,,,0,4.6318,space,2.7296,0,10.8656,,,,,,0,0,0,0,1,1,both_wrong.png,2,RandomDot19.png,No answer,19,,,
,,,,,,,,,,,,,,,,,,,,,,,,,,,,,,,R_7m3jTTuD6pGKm7S,1,2024-05-21_19h55.22.150,interaction task,2021.2.3,Win32,59.88023952,120823,,,,,,,,,,,,,,,,,Greater,Smaller,,0.297916651,-0.488888917,1,0,0,RightButton,"[""RightButton""]",,,,,,,10,2.1435,space,1.2396,0,5.9552,,,,,,0,1,1,1,1,3,only_sub_wrong.png,2,RandomDot23.png,No answer,20,,,
,,,,,,,,,,,,,,,,,,,,,,,,,,,,,,,R_7m3jTTuD6pGKm7S,1,2024-05-21_19h55.22.150,interaction task,2021.2.3,Win32,59.88023952,120823,,,,,,,,,,,,,,,,,Greater,Smaller,,0.268750032,-0.501851824,1,0,0,RightButton,"[""RightButton""]",0,6.3186,space,,,,,,,,,,,,,,,0,2,2,2,1,3,only_sub_wrong.png,0,RandomDot5.png,No answer,20,3.0426,,
,,,,,,,,,,,,,,,,,,,,,,,,,,,,,,,R_7m3jTTuD6pGKm7S,1,2024-05-21_19h55.22.150,interaction task,2021.2.3,Win32,59.88023952,120823,,,,,,,,,,,,,,,,,Greater,Smaller,,0.304166714,-0.53333339,1,0,0,RightButton,"[""RightButton""]",,,,4.963541826,10.5274,space,,,,,,,,,,,,0,3,3,3,1,2,only_sub_right.png,1,RandomDot6.png,No answer,21,,1.5683,
,,,,,,,,,,,,,,,,,,,,,,,,,,,,,,,R_7m3jTTuD6pGKm7S,1,2024-05-21_19h55.22.150,interaction task,2021.2.3,Win32,59.88023952,120823,,,,,,,,,,,,,,,,,Greater,Smaller,,0.300000032,-0.494444529,1,0,0,RightButton,"[""RightButton""]",,,,,,,0,3.7874,space,0.9556,0,5.2291,,,,,,0,4,4,4,1,1,both_wrong.png,2,RandomDot9.png,No answer,21,,,
,,,,,,,,,,,,,,,,,,,,,,,,,,,,,,,R_7m3jTTuD6pGKm7S,1,2024-05-21_19h55.22.150,interaction task,2021.2.3,Win32,59.88023952,120823,,,,,,,,,,,,,,,,,Smaller,Greater,,0.293750048,-0.53333339,1,0,0,RightButton,"[""RightButton""]",9,2.5993,space,,,,,,,,,,,,,,,0,5,5,5,1,3,only_sub_wrong.png,0,RandomDot2.png,No answer,20,1.1697,,
,,,,,,,,,,,,,,,,,,,,,,,,,,,,,,,R_7m3jTTuD6pGKm7S,1,2024-05-21_19h55.22.150,interaction task,2021.2.3,Win32,59.88023952,120823,,,,,,,,,,,,,,,,,Greater,Smaller,,-0.260416667,-0.5,1,0,0,LeftButton,"[""LeftButton""]",,,,,,,8,2.6848,space,0.7576,0,4.1805,,,,,,0,6,6,6,1,3,only_sub_wrong.png,2,RandomDot39.png,No answer,20,,,
,,,,,,,,,,,,,,,,,,,,,,,,,,,,,,,R_7m3jTTuD6pGKm7S,1,2024-05-21_19h55.22.150,interaction task,2021.2.3,Win32,59.88023952,120823,,,,,,,,,,,,,,,,,Greater,Smaller,,0.367708365,-0.48518527,1,0,0,RightButton,"[""RightButton""]",,,,,,,,,,,,,79.88215649,10.9572,space,29.37710598,8.4839,0,7,7,7,1,2,only_sub_right.png,3,RandomDot36.png,No answer,20,,,3.6012
,,,,,,,,,,,,,,,,,,,,,,,,,,,,,,,R_7m3jTTuD6pGKm7S,1,2024-05-21_19h55.22.150,interaction task,2021.2.3,Win32,59.88023952,120823,,,,,,,,,,,,,,,,,Greater,Smaller,,-0.296875,-0.477777834,1,0,0,LeftButton,"[""LeftButton""]",,,,,,,,,,,,,99.55808723,2.4689,space,0,4.212,0,8,8,8,1,2,only_sub_right.png,3,RandomDot26.png,No answer,20,,,1.1961
,,,,,,,,,,,,,,,,,,,,,,,,,,,,,,,R_7m3jTTuD6pGKm7S,1,2024-05-21_19h55.22.150,interaction task,2021.2.3,Win32,59.88023952,120823,,,,,,,,,,,,,,,,,Greater,Smaller,,0.288541714,-0.501851824,1,0,0,RightButton,"[""RightButton""]",9,2.5742,space,,,,,,,,,,,,,,,0,9,9,9,1,3,only_sub_wrong.png,0,RandomDot12.png,No answer,20,0.8467,,
,,,,,,,,,,,,,,,,,,,,,,,,,,,,,,,R_7m3jTTuD6pGKm7S,1,2024-05-21_19h55.22.150,interaction task,2021.2.3,Win32,59.88023952,120823,,,,,,,,,,,,,,,,,Greater,Smaller,,-0.327083349,-0.518518519,1,0,0,LeftButton,"[""LeftButton""]",,,,4.947916667,3.5573,space,,,,,,,,,,,,0,10,10,10,1,1,both_wrong.png,1,RandomDot13.png,No answer,19,,1.2935,
,,,,,,,,,,,,,,,,,,,,,,,,,,,,,,,R_7m3jTTuD6pGKm7S,1,2024-05-21_19h55.22.150,interaction task,2021.2.3,Win32,59.88023952,120823,,,,,,,,,,,,,,,,,Smaller,Greater,,-0.25,-0.494444529,1,0,0,LeftButton,"[""LeftButton""]",,,,,,,,,,,,,99.66329645,5.0652,space,0.021043771,6.7978,0,11,11,11,1,2,only_sub_right.png,3,RandomDot25.png,No answer,21,,,0.7203
,,,,,,,,,,,,,,,,,,,,,,,,,,,,,,,R_7m3jTTuD6pGKm7S,1,2024-05-21_19h55.22.150,interaction task,2021.2.3,Win32,59.88023952,120823,,,,,,,,,,,,,,,,,Smaller,Greater,,-0.336458325,-0.531481566,1,0,0,LeftButton,"[""LeftButton""]",,,,,,,,,,,,,,,,,,0,12,12,12,1,0,both_right.png,0,RandomDot5.png,No answer,21,,,
,,,,,,,,,,,,,,,,,,,,,,,,,,,,,,,R_7m3jTTuD6pGKm7S,1,2024-05-21_19h55.22.150,interaction task,2021.2.3,Win32,59.88023952,120823,,,,,,,,,,,,,,,,,Greater,Smaller,,-0.334374984,-0.522222307,1,0,0,LeftButton,"[""LeftButton""]",,,,,,,9,4.4342,space,0.4894,0,8.0696,,,,,,0,13,13,13,1,3,only_sub_wrong.png,2,RandomDot1.png,No answer,20,,,
,,,,,,,,,,,,,,,,,,,,,,,,,,,,,,,R_7m3jTTuD6pGKm7S,1,2024-05-21_19h55.22.150,interaction task,2021.2.3,Win32,59.88023952,120823,,,,,,,,,,,,,,,,,Smaller,Greater,,-0.275000016,-0.518518519,1,0,0,LeftButton,"[""LeftButton""]",,,,,,,,,,,,,,,,,,0,14,14,14,1,5,both_right.png,10,RandomDot42.png,LeftButton,21,,,
,,,,,,,,,,,,,,,,,,,,,,,,,,,,,,,R_7m3jTTuD6pGKm7S,1,2024-05-21_19h55.22.150,interaction task,2021.2.3,Win32,59.88023952,120823,,,,,,,,,,,,,,,,,Greater,Smaller,,0.334375064,-0.462962963,1,0,0,RightButton,"[""RightButton""]",,,,,,,0,2.1005,space,0.4701,0,4.1081,,,,,,0,15,15,15,1,2,only_sub_right.png,2,RandomDot16.png,No answer,20,,,
,,,,,,,,,,,,,,,,,,,,,,,,,,,,,,,R_7m3jTTuD6pGKm7S,1,2024-05-21_19h55.22.150,interaction task,2021.2.3,Win32,59.88023952,120823,,,,,,,,,,,,,,,,,Greater,Smaller,,0.325000048,-0.503703788,1,0,0,RightButton,"[""RightButton""]",,,,4.979166985,3.0073,space,,,,,,,,,,,,0,16,16,16,1,2,only_sub_right.png,1,RandomDot3.png,No answer,20,,0.481,
,,,,,,,,,,,,,,,,,,,,,,,,,,,,,,,R_7m3jTTuD6pGKm7S,1,2024-05-21_19h55.22.150,interaction task,2021.2.3,Win32,59.88023952,120823,,,,,,,,,,,,,,,,,Smaller,Greater,,0.230208317,-0.487037094,1,0,0,RightButton,"[""RightButton""]",,,,,,,0,2.7011,space,0.8464,0,4.9051,,,,,,0,17,17,17,1,2,only_sub_right.png,2,RandomDot37.png,No answer,19,,,
,,,,,,,,,,,,,,,,,,,,,,,,,,,,,,,R_7m3jTTuD6pGKm7S,1,2024-05-21_19h55.22.150,interaction task,2021.2.3,Win32,59.88023952,120823,,,,,,,,,,,,,,,,,Greater,Smaller,,-0.307291667,-0.494444529,1,0,0,LeftButton,"[""LeftButton""]",0,2.3072,space,,,,,,,,,,,,,,,0,18,18,18,1,2,only_sub_right.png,0,RandomDot16.png,No answer,20,1.1392,,
,,,,,,,,,,,,,,,,,,,,,,,,,,,,,,,R_7m3jTTuD6pGKm7S,1,2024-05-21_19h55.22.150,interaction task,2021.2.3,Win32,59.88023952,120823,,,,,,,,,,,,,,,,,Greater,Smaller,,-0.253124952,-0.525925954,1,0,0,LeftButton,"[""LeftButton""]",,,,4.989583492,4.3807,space,,,,,,,,,,,,0,19,19,19,1,3,only_sub_wrong.png,1,RandomDot11.png,No answer,20,,0.9053,
,,,,,,,,,,,,,,,,,,,,,,,,,,,,,,,R_7m3jTTuD6pGKm7S,1,2024-05-21_19h55.22.150,interaction task,2021.2.3,Win32,59.88023952,120823,,,,,,,,,,,,,,,,,Greater,Smaller,,-0.262499968,-0.525925954,1,0,0,LeftButton,"[""LeftButton""]",,,,,,,,,,,,,,,,,,0,20,20,20,1,0,both_right.png,3,RandomDot17.png,No answer,21,,,
,,,,,,,,,,,,,,,,,,,,,,,,,,,,,,,R_7m3jTTuD6pGKm7S,1,2024-05-21_19h55.22.150,interaction task,2021.2.3,Win32,59.88023952,120823,,,,,,,,,,,,,,,,,Smaller,Greater,,0.313541651,-0.525925954,1,0,0,RightButton,"[""RightButton""]",,,,,,,,,,,,,,,,,,0,21,21,21,1,4,both_right.png,10,RandomDot41.png,RightButton,5,,,
,,,,,,,,,,,,,,,,,,,,,,,,,,,,,,,R_7m3jTTuD6pGKm7S,1,2024-05-21_19h55.22.150,interaction task,2021.2.3,Win32,59.88023952,120823,,,,,,,,,,,,,,,,,Smaller,Greater,,0.266666651,-0.472222222,1,0,0,RightButton,"[""RightButton""]",,,,,,,,,,,,,,,,,,0,22,22,22,1,0,both_right.png,1,RandomDot3.png,No answer,19,,,
,,,,,,,,,,,,,,,,,,,,,,,,,,,,,,,R_7m3jTTuD6pGKm7S,1,2024-05-21_19h55.22.150,interaction task,2021.2.3,Win32,59.88023952,120823,,,,,,,,,,,,,,,,,Smaller,Greater,,-0.264583349,-0.501851824,1,0,0,LeftButton,"[""LeftButton""]",,,,,,,0,3.7084,space,0.8393,0,5.7022,,,,,,0,23,23,23,1,1,both_wrong.png,2,RandomDot7.png,No answer,21,,,
,,,,,,,,,,,,,,,,,,,,,,,,,,,,,,,R_7m3jTTuD6pGKm7S,1,2024-05-21_19h55.22.150,interaction task,2021.2.3,Win32,59.88023952,120823,,,,,,,,,,,,,,,,,Smaller,Greater,,-0.255208333,-0.525925954,1,0,0,LeftButton,"[""LeftButton""]",,,,4.031250079,3.7461,space,,,,,,,,,,,,0,24,24,24,1,3,only_sub_wrong.png,1,RandomDot6.png,No answer,21,,1.4592,
,,,,,,,,,,,,,,,,,,,,,,,,,,,,,,,R_7m3jTTuD6pGKm7S,1,2024-05-21_19h55.22.150,interaction task,2021.2.3,Win32,59.88023952,120823,,,,,,,,,,,,,,,,,Greater,Smaller,,0.245833317,-0.529629601,1,0,0,RightButton,"[""RightButton""]",,,,,,,,,,,,,69.57070547,7.7167,space,14.12037198,10.1655,0,25,25,25,1,3,only_sub_wrong.png,3,RandomDot20.png,No answer,20,,,0.6179
,,,,,,,,,,,,,,,,,,,,,,,,,,,,,,,R_7m3jTTuD6pGKm7S,1,2024-05-21_19h55.22.150,interaction task,2021.2.3,Win32,59.88023952,120823,,,,,,,,,,,,,,,,,Greater,Smaller,,0.216666698,-0.461111139,1,0,0,RightButton,"[""RightButton""]",0,1.9694,space,,,,,,,,,,,,,,,0,26,26,26,1,2,only_sub_right.png,0,RandomDot33.png,No answer,21,0.4611,,
,,,,,,,,,,,,,,,,,,,,,,,,,,,,,,,R_7m3jTTuD6pGKm7S,1,2024-05-21_19h55.22.150,interaction task,2021.2.3,Win32,59.88023952,120823,,,,,,,,,,,,,,,,,Smaller,Greater,,-0.247916619,-0.461111139,1,0,0,LeftButton,"[""LeftButton""]",0,1.4588,space,,,,,,,,,,,,,,,0,27,27,27,1,1,both_wrong.png,0,RandomDot34.png,No answer,19,0.3836,,
,,,,,,,,,,,,,,,,,,,,,,,,,,,,,,,R_7m3jTTuD6pGKm7S,1,2024-05-21_19h55.22.150,interaction task,2021.2.3,Win32,59.88023952,120823,,,,,,,,,,,,,,,,,Smaller,Greater,,-0.237499952,-0.475926011,1,0,0,LeftButton,"[""LeftButton""]",,,,,,,,,,,,,,,,,,0,28,28,28,1,0,both_right.png,2,RandomDot29.png,No answer,20,,,
,,,,,,,,,,,,,,,,,,,,,,,,,,,,,,,R_7m3jTTuD6pGKm7S,1,2024-05-21_19h55.22.150,interaction task,2021.2.3,Win32,59.88023952,120823,,,,,,,,,,,,,,,,,Greater,Smaller,,-0.235416651,-0.535185213,1,0,0,LeftButton,"[""LeftButton""]",0,1.4871,space,,,,,,,,,,,,,,,0,29,29,29,1,1,both_wrong.png,0,RandomDot24.png,No answer,21,0.4027,,
,,,,,,,,,,,,,,,,,,,,,,,,,,,,,,,R_7m3jTTuD6pGKm7S,1,2024-05-21_19h55.22.150,interaction task,2021.2.3,Win32,59.88023952,120823,,,,,,,,,,,,,,,,,Greater,Smaller,,-0.290625016,-0.520370342,1,0,0,LeftButton,"[""LeftButton""]",,,,3.984375,7.5322,space,,,,,,,,,,,,0,30,30,30,1,1,both_wrong.png,1,RandomDot6.png,No answer,20,,3.9922,
,,,,,,,,,,,,,,,,,,,,,,,,,,,,,,,R_7m3jTTuD6pGKm7S,1,2024-05-21_19h55.22.150,interaction task,2021.2.3,Win32,59.88023952,120823,,,,,,,,,,,,,,,,,Smaller,Greater,,-0.251041651,-0.505555612,1,0,0,LeftButton,"[""LeftButton""]",,,,4.015624921,2.0587,space,,,,,,,,,,,,0,31,31,31,1,1,both_wrong.png,1,RandomDot17.png,No answer,20,,0.4581,
,,,,,,,,,,,,,,,,,,,,,,,,,,,,,,,R_7m3jTTuD6pGKm7S,1,2024-05-21_19h55.22.150,interaction task,2021.2.3,Win32,59.88023952,120823,,,,,,,,,,,,,,,,,Greater,Smaller,,0.335416635,-0.509259259,1,0,0,RightButton,"[""RightButton""]",0,2.2027,space,,,,,,,,,,,,,,,0,32,32,32,1,1,both_wrong.png,0,RandomDot16.png,No answer,19,0.6365,,
,,,,,,,,,,,,,,,,,,,,,,,,,,,,,,,R_7m3jTTuD6pGKm7S,1,2024-05-21_19h55.22.150,interaction task,2021.2.3,Win32,59.88023952,120823,,,,,,,,,,,,,,,,,Smaller,Greater,,-0.292708317,-0.544444473,1,0,0,LeftButton,"[""LeftButton""]",,,,,,,,,,,,,69.04461119,3.3078,space,21.69612634,4.9785,0,33,33,33,1,3,only_sub_wrong.png,3,RandomDot18.png,No answer,21,,,0.5285
,,,,,,,,,,,,,,,,,,,,,,,,,,,,,,,R_7m3jTTuD6pGKm7S,1,2024-05-21_19h55.22.150,interaction task,2021.2.3,Win32,59.88023952,120823,,,,,,,,,,,,,,,,,Greater,Smaller,,0.276041667,-0.509259259,1,0,0,RightButton,"[""RightButton""]",,,,,,,,,,,,,13.06818342,2.1722,space,3.808924967,3.8933,0,34,34,34,1,1,both_wrong.png,3,RandomDot6.png,No answer,21,,,0.7017
,,,,,,,,,,,,,,,,,,,,,,,,,,,,,,,R_7m3jTTuD6pGKm7S,1,2024-05-21_19h55.22.150,interaction task,2021.2.3,Win32,59.88023952,120823,,,,,,,,,,,,,,,,,Greater,Smaller,,0.257291714,-0.507407436,1,0,0,RightButton,"[""RightButton""]",,,,,,,0,1.8545,space,0.3552,0,3.2564,,,,,,0,35,35,35,1,2,only_sub_right.png,2,RandomDot36.png,No answer,21,,,
,,,,,,,,,,,,,,,,,,,,,,,,,,,,,,,R_7m3jTTuD6pGKm7S,1,2024-05-21_19h55.22.150,interaction task,2021.2.3,Win32,59.88023952,120823,,,,,,,,,,,,,,,,,Smaller,Greater,,0.247916698,-0.5,1,0,0,RightButton,"[""RightButton""]",,,,2.984375159,4.7857,space,,,,,,,,,,,,0,36,36,36,1,2,only_sub_right.png,1,RandomDot34.png,No answer,19,,0.2871,
,,,,,,,,,,,,,,,,,,,,,,,,,,,,,,,R_7m3jTTuD6pGKm7S,1,2024-05-21_19h55.22.150,interaction task,2021.2.3,Win32,59.88023952,120823,,,,,,,,,,,,,,,,,Smaller,Greater,,-0.239583333,-0.511111083,1,0,0,LeftButton,"[""LeftButton""]",,,,,,,,,,,,,53.99831971,4.5979,space,24.53704025,6.6769,0,37,37,37,1,3,only_sub_wrong.png,3,RandomDot22.png,No answer,21,,,0.623
,,,,,,,,,,,,,,,,,,,,,,,,,,,,,,,R_7m3jTTuD6pGKm7S,1,2024-05-21_19h55.22.150,interaction task,2021.2.3,Win32,59.88023952,120823,,,,,,,,,,,,,,,,,Greater,Smaller,,0.304166714,-0.472222222,1,0,0,RightButton,"[""RightButton""]",,,,,,,,,,,,,93.66582492,4.4487,space,2.125420875,6.5251,0,38,38,38,1,1,both_wrong.png,3,RandomDot13.png,No answer,21,,,0.4403
,,,,,,,,,,,,,,,,,,,,,,,,,,,,,,,R_7m3jTTuD6pGKm7S,1,2024-05-21_19h55.22.150,interaction task,2021.2.3,Win32,59.88023952,120823,,,,,,,,,,,,,,,,,Greater,Smaller,,-0.302083333,-0.537037037,1,0,0,LeftButton,"[""LeftButton""]",,,,2.989583413,3.0607,space,,,,,,,,,,,,0,39,39,39,1,3,only_sub_wrong.png,1,RandomDot36.png,No answer,19,,0.5347,
,,,,,,,,,,,,,,,,,,,,,,,,,,,,,,,R_7m3jTTuD6pGKm7S,1,2024-05-21_19h55.22.150,interaction task,2021.2.3,Win32,59.88023952,120823,,,,,,,,,,,,,,,,,Smaller,Greater,,-0.292708317,-0.524074131,1,0,0,LeftButton,"[""LeftButton""]",,,,,,,,,,,,,61.46885682,9.2696,space,44.21296296,10.206,0,40,40,40,1,1,both_wrong.png,3,RandomDot12.png,No answer,19,,,0.2783
,,,,,,,,,,,,,,,,,,,,,,,,,,,,,,,R_7m3jTTuD6pGKm7S,1,2024-05-21_19h55.22.150,interaction task,2021.2.3,Win32,59.88023952,120823,,,,,,,,,,,,,,,,,Smaller,Greater,,-0.282291651,-0.522222307,1,0,0,LeftButton,"[""LeftButton""]",20,4.978,space,,,,,,,,,,,,,,,0,41,41,41,1,2,only_sub_right.png,0,RandomDot21.png,No answer,21,0.8027,,
