chooserow,ParID,pre_instru_resp_2.keys,pre_instru_resp_2.rt,pre_instru_resp_3.keys,pre_instru_resp_3.rt,pre_instru_resp_9.keys,pre_instru_resp_9.rt,pre_instru_resp_8.keys,pre_instru_resp_8.rt,pre_instru_resp_4.keys,pre_instru_resp_4.rt,pre_instru_resp_5.keys,pre_instru_resp_5.rt,pre_instru_resp_6.keys,pre_instru_resp_6.rt,key_resp_3.keys,key_resp_3.rt,key_resp_4.keys,key_resp_4.rt,key_resp_5.keys,key_resp_5.rt,key_resp_6.keys,key_resp_6.rt,key_resp_7.keys,key_resp_7.rt,trials_2.thisRepN,trials_2.thisTrialN,trials_2.thisN,trials_2.thisIndex,trials_2.ran,participant,session,date,expName,psychopyVersion,OS,frameRate,SONAid,pre_instru_resp.keys,pre_instru_resp.rt,clicked,judge_2.x,judge_2.y,judge_2.leftButton,judge_2.midButton,judge_2.rightButton,trials.thisRepN,trials.thisTrialN,trials.thisN,trials.thisIndex,trials.ran,prac_answer,prac_dot_sti,dotlefttext,dotrighttext,judge_2.clicked_name,prac_acc,judge.x,judge.y,judge.leftButton,judge.midButton,judge.rightButton,judge.clicked_name,clicked_guilt,slider_guilt.response,slider_guilt.rt,key_guilt.keys,key_guilt.rt,share_slider.response,share_slider.rt,key_share.keys,slider_apology.response,slider_apology.rt,key_apology.keys,slider_hide.response,slider_hide.rt,slider_forgiveness.response,slider_forgiveness.rt,key_forgiveness.keys,slider_mad.response,slider_mad.rt,trialseq.thisRepN,trialseq.thisTrialN,trialseq.thisN,trialseq.thisIndex,trialseq.ran,type_trial,stipic,DV,picture,answer,number,key_forgiveness.rt,key_apology.rt,key_share.rt
"[153,196,141,177,93,49,62,3,71,161,155,69,140,105,185,172,13,83,183,135,148,122,77,200,75,159,50,131,52,110,101,88,124,169,162,186,96,31,116,41,108,89]",R_7mRgBYfm8mjMQG1,space,1.5174,space,4.0879,space,16.2806,space,25.9418,space,41.2682,space,10.4335,space,4.4609,3,12.8658,1,9.1972,3,7.4974,2,6.9784,2,6.11,0,0,0,0,1,R_7mRgBYfm8mjMQG1,1,2024-05-30_15h31.17.124,interaction task,2021.2.3,MacIntel,57.47126437,120763,,,,,,,,,,,,,,,,,,,,,,,,,,,,,,,,,,,,,,,,,,,,,,,,,,,,,,,,,
,,,,,,,,,,,,,,,,,,,,,,,,,,,,,,,R_7mRgBYfm8mjMQG1,1,2024-05-30_15h31.17.124,interaction task,2021.2.3,MacIntel,57.47126437,120763,space,3.9909,[],0.516628689,-0.529826389,0,0,0,0,0,0,1,1,LeftButton_2,9dot2.png,Smaller,Greater,,,,,,,,,,,,,,,,,,,,,,,,,,,,,,,,,,,,,,,,
,,,,,,,,,,,,,,,,,,,,,,,,,,,,,,,R_7mRgBYfm8mjMQG1,1,2024-05-30_15h31.17.124,interaction task,2021.2.3,MacIntel,57.47126437,120763,,,"[""LeftButton_2""]",-0.237310113,-0.338637153,1,0,0,0,1,1,0,1,RightButton_2,9dot1.png,Greater,Smaller,LeftButton_2,,,,,,,,,,,,,,,,,,,,,,,,,,,,,,,,,,,,,,,
,,,,,,,,,,,,,,,,,,,,,,,,,,,,,,,R_7mRgBYfm8mjMQG1,1,2024-05-30_15h31.17.124,interaction task,2021.2.3,MacIntel,57.47126437,120763,,,"[""RightButton_2""]",0.266351997,-0.283967014,1,0,0,0,2,2,2,1,LeftButton_2,9dot1.png,Smaller,Greater,RightButton_2,,,,,,,,,,,,,,,,,,,,,,,,,,,,,,,,,,,,,,,
,,,,,,,,,,,,,,,,,,,,,,,,,,,,,,,R_7mRgBYfm8mjMQG1,1,2024-05-30_15h31.17.124,interaction task,2021.2.3,MacIntel,57.47126437,120763,,,,,,,,,,,,,,,,Smaller,Greater,,0,0.248942057,-0.539401042,1,0,0,RightButton,"[""RightButton""]",0,3.8077,space,1.8348,,,,,,,,,,,,,,0,0,0,0,1,3,only_sub_wrong.png,0,RandomDot25.png,No answer,20,,,
,,,,,,,,,,,,,,,,,,,,,,,,,,,,,,,R_7mRgBYfm8mjMQG1,1,2024-05-30_15h31.17.124,interaction task,2021.2.3,MacIntel,57.47126437,120763,,,,,,,,,,,,,,,,Smaller,Greater,,,0.340977648,-0.537005208,1,0,0,RightButton,"[""RightButton""]",,,,,,,,,,,,,,,,,,0,1,1,1,1,4,both_right.png,10,RandomDot41.png,RightButton,5,,,
,,,,,,,,,,,,,,,,,,,,,,,,,,,,,,,R_7mRgBYfm8mjMQG1,1,2024-05-30_15h31.17.124,interaction task,2021.2.3,MacIntel,57.47126437,120763,,,,,,,,,,,,,,,,Smaller,Greater,,,0.321148003,-0.532022569,1,0,0,RightButton,"[""RightButton""]",,,,,,,,,,,,,100,4.3154,space,0,9.8968,0,2,2,2,1,2,only_sub_right.png,3,RandomDot7.png,No answer,20,0.9174,,
,,,,,,,,,,,,,,,,,,,,,,,,,,,,,,,R_7mRgBYfm8mjMQG1,1,2024-05-30_15h31.17.124,interaction task,2021.2.3,MacIntel,57.47126437,120763,,,,,,,,,,,,,,,,Smaller,Greater,,,0.271294488,-0.493272569,1,0,0,RightButton,"[""RightButton""]",,,,,,,,40,7.5612,space,10,15.1599,,,,,,0,3,3,3,1,3,only_sub_wrong.png,2,RandomDot31.png,No answer,19,,1.0006,
,,,,,,,,,,,,,,,,,,,,,,,,,,,,,,,R_7mRgBYfm8mjMQG1,1,2024-05-30_15h31.17.124,interaction task,2021.2.3,MacIntel,57.47126437,120763,,,,,,,,,,,,,,,,Smaller,Greater,,,0.300938585,-0.496701389,1,0,0,RightButton,"[""RightButton""]",,,,,,,,,,,,,100,2.9311,space,0,6.8769,0,4,4,4,1,1,both_wrong.png,3,RandomDot12.png,No answer,21,1.6635,,
,,,,,,,,,,,,,,,,,,,,,,,,,,,,,,,R_7mRgBYfm8mjMQG1,1,2024-05-30_15h31.17.124,interaction task,2021.2.3,MacIntel,57.47126437,120763,,,,,,,,,,,,,,,,Greater,Smaller,,,-0.28710395,-0.502074653,1,0,0,LeftButton,"[""LeftButton""]",0,3.0175,space,0.9141,,,,,,,,,,,,,,0,5,5,5,1,1,both_wrong.png,0,RandomDot16.png,No answer,19,,,
,,,,,,,,,,,,,,,,,,,,,,,,,,,,,,,R_7mRgBYfm8mjMQG1,1,2024-05-30_15h31.17.124,interaction task,2021.2.3,MacIntel,57.47126437,120763,,,,,,,,,,,,,,,,Greater,Smaller,,,0.245008681,-0.531987847,1,0,0,RightButton,"[""RightButton""]",,,,,4.998291016,10.6795,space,,,,,,,,,,,0,6,6,6,1,1,both_wrong.png,1,RandomDot28.png,No answer,21,,,1.7853
,,,,,,,,,,,,,,,,,,,,,,,,,,,,,,,R_7mRgBYfm8mjMQG1,1,2024-05-30_15h31.17.124,interaction task,2021.2.3,MacIntel,57.47126437,120763,,,,,,,,,,,,,,,,Greater,Smaller,,,-0.212679036,-0.542491319,1,0,0,LeftButton,"[""LeftButton""]",,,,,,,,,,,,,,,,,,0,7,7,7,1,0,both_right.png,0,RandomDot22.png,No answer,21,,,
,,,,,,,,,,,,,,,,,,,,,,,,,,,,,,,R_7mRgBYfm8mjMQG1,1,2024-05-30_15h31.17.124,interaction task,2021.2.3,MacIntel,57.47126437,120763,,,,,,,,,,,,,,,,Smaller,Greater,,,0.277669271,-0.522456597,1,0,0,RightButton,"[""RightButton""]",,,,,4.990749783,3.7496,space,,,,,,,,,,,0,8,8,8,1,1,both_wrong.png,1,RandomDot14.png,No answer,20,,,1.2394
,,,,,,,,,,,,,,,,,,,,,,,,,,,,,,,R_7mRgBYfm8mjMQG1,1,2024-05-30_15h31.17.124,interaction task,2021.2.3,MacIntel,57.47126437,120763,,,,,,,,,,,,,,,,Greater,Smaller,,,-0.332259115,-0.53,1,0,0,LeftButton,"[""LeftButton""]",,,,,4.959391276,4.1479,space,,,,,,,,,,,0,9,9,9,1,3,only_sub_wrong.png,1,RandomDot36.png,No answer,19,,,0.8
,,,,,,,,,,,,,,,,,,,,,,,,,,,,,,,R_7mRgBYfm8mjMQG1,1,2024-05-30_15h31.17.124,interaction task,2021.2.3,MacIntel,57.47126437,120763,,,,,,,,,,,,,,,,Smaller,Greater,,,0.309065755,-0.5053125,1,0,0,RightButton,"[""RightButton""]",1,2.4224,space,4.8028,,,,,,,,,,,,,,0,10,10,10,1,3,only_sub_wrong.png,0,RandomDot2.png,No answer,20,,,
,,,,,,,,,,,,,,,,,,,,,,,,,,,,,,,R_7mRgBYfm8mjMQG1,1,2024-05-30_15h31.17.124,interaction task,2021.2.3,MacIntel,57.47126437,120763,,,,,,,,,,,,,,,,Smaller,Greater,,,0.293733724,-0.522630208,1,0,0,RightButton,"[""RightButton""]",,,,,4.009684245,4.6948,space,,,,,,,,,,,0,11,11,11,1,1,both_wrong.png,1,RandomDot13.png,No answer,19,,,0.6514
,,,,,,,,,,,,,,,,,,,,,,,,,,,,,,,R_7mRgBYfm8mjMQG1,1,2024-05-30_15h31.17.124,interaction task,2021.2.3,MacIntel,57.47126437,120763,,,,,,,,,,,,,,,,Smaller,Greater,,,0.298996311,-0.483454861,1,0,0,RightButton,"[""RightButton""]",,,,,,,,,,,,,100,3.9149,space,0,8.1208,0,12,12,12,1,2,only_sub_right.png,3,RandomDot8.png,No answer,19,2.9364,,
,,,,,,,,,,,,,,,,,,,,,,,,,,,,,,,R_7mRgBYfm8mjMQG1,1,2024-05-30_15h31.17.124,interaction task,2021.2.3,MacIntel,57.47126437,120763,,,,,,,,,,,,,,,,Smaller,Greater,,,-0.313509115,-0.504704861,1,0,0,LeftButton,"[""LeftButton""]",0,4.3138,space,0.8607,,,,,,,,,,,,,,0,13,13,13,1,2,only_sub_right.png,0,RandomDot17.png,No answer,20,,,
,,,,,,,,,,,,,,,,,,,,,,,,,,,,,,,R_7mRgBYfm8mjMQG1,1,2024-05-30_15h31.17.124,interaction task,2021.2.3,MacIntel,57.47126437,120763,,,,,,,,,,,,,,,,Greater,Smaller,,,0.298377821,-0.543107639,1,0,0,RightButton,"[""RightButton""]",,,,,,,,,,,,,100,3.3153,space,0,5.9629,0,14,14,14,1,3,only_sub_wrong.png,3,RandomDot34.png,No answer,20,1.6063,,
,,,,,,,,,,,,,,,,,,,,,,,,,,,,,,,R_7mRgBYfm8mjMQG1,1,2024-05-30_15h31.17.124,interaction task,2021.2.3,MacIntel,57.47126437,120763,,,,,,,,,,,,,,,,Greater,Smaller,,,-0.296820747,-0.528767361,1,0,0,LeftButton,"[""LeftButton""]",,,,,,,,10,6.3915,space,0,10.8598,,,,,,0,15,15,15,1,3,only_sub_wrong.png,2,RandomDot38.png,No answer,21,,0.8708,
,,,,,,,,,,,,,,,,,,,,,,,,,,,,,,,R_7mRgBYfm8mjMQG1,1,2024-05-30_15h31.17.124,interaction task,2021.2.3,MacIntel,57.47126437,120763,,,,,,,,,,,,,,,,Greater,Smaller,,,0.255436198,-0.531857639,1,0,0,RightButton,"[""RightButton""]",,,,,,,,,,,,,,,,,,0,16,16,16,1,0,both_right.png,1,RandomDot28.png,No answer,21,,,
,,,,,,,,,,,,,,,,,,,,,,,,,,,,,,,R_7mRgBYfm8mjMQG1,1,2024-05-30_15h31.17.124,interaction task,2021.2.3,MacIntel,57.47126437,120763,,,,,,,,,,,,,,,,Smaller,Greater,,,0.285129123,-0.525815972,1,0,0,RightButton,"[""RightButton""]",,,,,,,,0,6.9602,space,0,9.1105,,,,,,0,17,17,17,1,1,both_wrong.png,2,RandomDot8.png,No answer,20,,0.6187,
,,,,,,,,,,,,,,,,,,,,,,,,,,,,,,,R_7mRgBYfm8mjMQG1,1,2024-05-30_15h31.17.124,interaction task,2021.2.3,MacIntel,57.47126437,120763,,,,,,,,,,,,,,,,Greater,Smaller,,,-0.306195747,-0.503394097,1,0,0,LeftButton,"[""LeftButton""]",,,,,,,,,,,,,100,2.2955,space,0,4.8239,0,18,18,18,1,3,only_sub_wrong.png,3,RandomDot17.png,No answer,19,0.7145,,
,,,,,,,,,,,,,,,,,,,,,,,,,,,,,,,R_7mRgBYfm8mjMQG1,1,2024-05-30_15h31.17.124,interaction task,2021.2.3,MacIntel,57.47126437,120763,,,,,,,,,,,,,,,,Greater,Smaller,,,-0.291704644,-0.525355903,1,0,0,LeftButton,"[""LeftButton""]",,,,,,,,,,,,,100,3.2138,space,0,5.111,0,19,19,19,1,2,only_sub_right.png,3,RandomDot26.png,No answer,20,0.6475,,
,,,,,,,,,,,,,,,,,,,,,,,,,,,,,,,R_7mRgBYfm8mjMQG1,1,2024-05-30_15h31.17.124,interaction task,2021.2.3,MacIntel,57.47126437,120763,,,,,,,,,,,,,,,,Greater,Smaller,,,-0.274674479,-0.4896875,1,0,0,LeftButton,"[""LeftButton""]",0,3.4633,space,2.2235,,,,,,,,,,,,,,0,20,20,20,1,3,only_sub_wrong.png,0,RandomDot12.png,No answer,20,,,
,,,,,,,,,,,,,,,,,,,,,,,,,,,,,,,R_7mRgBYfm8mjMQG1,1,2024-05-30_15h31.17.124,interaction task,2021.2.3,MacIntel,57.47126437,120763,,,,,,,,,,,,,,,,Greater,Smaller,,,-0.271695964,-0.512204861,1,0,0,LeftButton,"[""LeftButton""]",,,,,,,,0,2.6958,space,0,5.8808,,,,,,0,21,21,21,1,2,only_sub_right.png,2,RandomDot33.png,No answer,20,,0.6693,
,,,,,,,,,,,,,,,,,,,,,,,,,,,,,,,R_7mRgBYfm8mjMQG1,1,2024-05-30_15h31.17.124,interaction task,2021.2.3,MacIntel,57.47126437,120763,,,,,,,,,,,,,,,,Greater,Smaller,,,0.329833984,-0.513940972,1,0,0,RightButton,"[""RightButton""]",,,,,,,,0,2.5165,space,0,4.5019,,,,,,0,22,22,22,1,1,both_wrong.png,2,RandomDot13.png,No answer,21,,0.5901,
,,,,,,,,,,,,,,,,,,,,,,,,,,,,,,,R_7mRgBYfm8mjMQG1,1,2024-05-30_15h31.17.124,interaction task,2021.2.3,MacIntel,57.47126437,120763,,,,,,,,,,,,,,,,Greater,Smaller,,,0.286729601,-0.541979167,1,0,0,RightButton,"[""RightButton""]",,,,,,,,,,,,,,,,,,0,23,23,23,1,5,both_right.png,10,RandomDot42.png,RightButton,20,,,
,,,,,,,,,,,,,,,,,,,,,,,,,,,,,,,R_7mRgBYfm8mjMQG1,1,2024-05-30_15h31.17.124,interaction task,2021.2.3,MacIntel,57.47126437,120763,,,,,,,,,,,,,,,,Greater,Smaller,,,-0.292974175,-0.498237847,1,0,0,LeftButton,"[""LeftButton""]",,,,,,,,0,2.3995,space,0,4.2226,,,,,,0,24,24,24,1,1,both_wrong.png,2,RandomDot10.png,No answer,20,,0.6244,
,,,,,,,,,,,,,,,,,,,,,,,,,,,,,,,R_7mRgBYfm8mjMQG1,1,2024-05-30_15h31.17.124,interaction task,2021.2.3,MacIntel,57.47126437,120763,,,,,,,,,,,,,,,,Greater,Smaller,,,-0.270665148,-0.519314236,1,0,0,LeftButton,"[""LeftButton""]",,,,,4.996202257,4.7966,space,,,,,,,,,,,0,25,25,25,1,3,only_sub_wrong.png,1,RandomDot11.png,No answer,20,,,0.7106
,,,,,,,,,,,,,,,,,,,,,,,,,,,,,,,R_7mRgBYfm8mjMQG1,1,2024-05-30_15h31.17.124,interaction task,2021.2.3,MacIntel,57.47126437,120763,,,,,,,,,,,,,,,,Greater,Smaller,,,-0.321614583,-0.477829861,1,0,0,LeftButton,"[""LeftButton""]",0,3.0394,space,0.7024,,,,,,,,,,,,,,0,26,26,26,1,1,both_wrong.png,0,RandomDot12.png,No answer,21,,,
,,,,,,,,,,,,,,,,,,,,,,,,,,,,,,,R_7mRgBYfm8mjMQG1,1,2024-05-30_15h31.17.124,interaction task,2021.2.3,MacIntel,57.47126437,120763,,,,,,,,,,,,,,,,Smaller,Greater,,,-0.327815755,-0.503072917,1,0,0,LeftButton,"[""LeftButton""]",,,,,,,,0,2.2014,space,0,3.9721,,,,,,0,27,27,27,1,2,only_sub_right.png,2,RandomDot5.png,No answer,21,,0.553,
,,,,,,,,,,,,,,,,,,,,,,,,,,,,,,,R_7mRgBYfm8mjMQG1,1,2024-05-30_15h31.17.124,interaction task,2021.2.3,MacIntel,57.47126437,120763,,,,,,,,,,,,,,,,Greater,Smaller,,,-0.280582682,-0.504453125,1,0,0,LeftButton,"[""LeftButton""]",0,3.0979,space,0.6348,,,,,,,,,,,,,,0,28,28,28,1,1,both_wrong.png,0,RandomDot10.png,No answer,20,,,
,,,,,,,,,,,,,,,,,,,,,,,,,,,,,,,R_7mRgBYfm8mjMQG1,1,2024-05-30_15h31.17.124,interaction task,2021.2.3,MacIntel,57.47126437,120763,,,,,,,,,,,,,,,,Greater,Smaller,,,0.26070421,-0.50921875,1,0,0,RightButton,"[""RightButton""]",,,,,4.971082899,2.1326,space,,,,,,,,,,,0,29,29,29,1,2,only_sub_right.png,1,RandomDot6.png,No answer,21,,,0.7857
,,,,,,,,,,,,,,,,,,,,,,,,,,,,,,,R_7mRgBYfm8mjMQG1,1,2024-05-30_15h31.17.124,interaction task,2021.2.3,MacIntel,57.47126437,120763,,,,,,,,,,,,,,,,Greater,Smaller,,,0.310693359,-0.481145833,1,0,0,RightButton,"[""RightButton""]",0,2.1044,space,0.6681,,,,,,,,,,,,,,0,30,30,30,1,2,only_sub_right.png,0,RandomDot18.png,No answer,21,,,
,,,,,,,,,,,,,,,,,,,,,,,,,,,,,,,R_7mRgBYfm8mjMQG1,1,2024-05-30_15h31.17.124,interaction task,2021.2.3,MacIntel,57.47126437,120763,,,,,,,,,,,,,,,,Greater,Smaller,,,0.291113281,-0.539375,1,0,0,RightButton,"[""RightButton""]",,,,,,,,,,,,,100,2.8091,space,0,5.0477,0,31,31,31,1,1,both_wrong.png,3,RandomDot30.png,No answer,20,0.5403,,
,,,,,,,,,,,,,,,,,,,,,,,,,,,,,,,R_7mRgBYfm8mjMQG1,1,2024-05-30_15h31.17.124,interaction task,2021.2.3,MacIntel,57.47126437,120763,,,,,,,,,,,,,,,,Greater,Smaller,,,-0.260563151,-0.517230903,1,0,0,LeftButton,"[""LeftButton""]",,,,,,,,0,2.731,space,0,4.9637,,,,,,0,32,32,32,1,2,only_sub_right.png,2,RandomDot20.png,No answer,20,,0.7179,
,,,,,,,,,,,,,,,,,,,,,,,,,,,,,,,R_7mRgBYfm8mjMQG1,1,2024-05-30_15h31.17.124,interaction task,2021.2.3,MacIntel,57.47126437,120763,,,,,,,,,,,,,,,,Greater,Smaller,,,0.361615668,-0.50859375,1,0,0,RightButton,"[""RightButton""]",,,,,,,,0,2.7337,space,0,4.8844,,,,,,0,33,33,33,1,3,only_sub_wrong.png,2,RandomDot1.png,No answer,20,,0.5377,
,,,,,,,,,,,,,,,,,,,,,,,,,,,,,,,R_7mRgBYfm8mjMQG1,1,2024-05-30_15h31.17.124,interaction task,2021.2.3,MacIntel,57.47126437,120763,,,,,,,,,,,,,,,,Smaller,Greater,,,-0.306906467,-0.520972222,1,0,0,LeftButton,"[""LeftButton""]",,,,,4.990478516,2.5881,space,,,,,,,,,,,0,34,34,34,1,3,only_sub_wrong.png,1,RandomDot15.png,No answer,21,,,0.8204
,,,,,,,,,,,,,,,,,,,,,,,,,,,,,,,R_7mRgBYfm8mjMQG1,1,2024-05-30_15h31.17.124,interaction task,2021.2.3,MacIntel,57.47126437,120763,,,,,,,,,,,,,,,,Smaller,Greater,,,0.257356771,-0.514626736,1,0,0,RightButton,"[""RightButton""]",,,,,,,,,,,,,100,3.0014,space,0,4.6858,0,35,35,35,1,3,only_sub_wrong.png,3,RandomDot9.png,No answer,19,0.3202,,
,,,,,,,,,,,,,,,,,,,,,,,,,,,,,,,R_7mRgBYfm8mjMQG1,1,2024-05-30_15h31.17.124,interaction task,2021.2.3,MacIntel,57.47126437,120763,,,,,,,,,,,,,,,,Greater,Smaller,,,-0.315804036,-0.507682292,1,0,0,LeftButton,"[""LeftButton""]",0,2.2499,space,0.6311,,,,,,,,,,,,,,0,36,36,36,1,2,only_sub_right.png,0,RandomDot26.png,No answer,19,,,
,,,,,,,,,,,,,,,,,,,,,,,,,,,,,,,R_7mRgBYfm8mjMQG1,1,2024-05-30_15h31.17.124,interaction task,2021.2.3,MacIntel,57.47126437,120763,,,,,,,,,,,,,,,,Smaller,Greater,,,0.288764106,-0.498732639,1,0,0,RightButton,"[""RightButton""]",,,,,,,,,,,,,,,,,,0,37,37,37,1,0,both_right.png,2,RandomDot2.png,No answer,20,,,
,,,,,,,,,,,,,,,,,,,,,,,,,,,,,,,R_7mRgBYfm8mjMQG1,1,2024-05-30_15h31.17.124,interaction task,2021.2.3,MacIntel,57.47126437,120763,,,,,,,,,,,,,,,,Smaller,Greater,,,-0.276822917,-0.498880208,1,0,0,LeftButton,"[""LeftButton""]",,,,,4.995388455,1.9717,space,,,,,,,,,,,0,38,38,38,1,2,only_sub_right.png,1,RandomDot25.png,No answer,19,,,0.6179
,,,,,,,,,,,,,,,,,,,,,,,,,,,,,,,R_7mRgBYfm8mjMQG1,1,2024-05-30_15h31.17.124,interaction task,2021.2.3,MacIntel,57.47126437,120763,,,,,,,,,,,,,,,,Greater,Smaller,,,-0.323410373,-0.509227431,1,0,0,LeftButton,"[""LeftButton""]",,,,,,,,,,,,,,,,,,0,39,39,39,1,0,both_right.png,3,RandomDot30.png,No answer,19,,,
,,,,,,,,,,,,,,,,,,,,,,,,,,,,,,,R_7mRgBYfm8mjMQG1,1,2024-05-30_15h31.17.124,interaction task,2021.2.3,MacIntel,57.47126437,120763,,,,,,,,,,,,,,,,Greater,Smaller,,,-0.285530599,-0.534418403,1,0,0,LeftButton,"[""LeftButton""]",,,,,4.980333116,1.9996,space,,,,,,,,,,,0,40,40,40,1,2,only_sub_right.png,1,RandomDot3.png,No answer,20,,,0.6332
,,,,,,,,,,,,,,,,,,,,,,,,,,,,,,,R_7mRgBYfm8mjMQG1,1,2024-05-30_15h31.17.124,interaction task,2021.2.3,MacIntel,57.47126437,120763,,,,,,,,,,,,,,,,Greater,Smaller,,,0.29632704,-0.514184028,1,0,0,RightButton,"[""RightButton""]",,,,,,,,,,,,,100,2.2144,space,0,4.2987,0,41,41,41,1,1,both_wrong.png,3,RandomDot6.png,No answer,21,0.5696,,
