chooserow,ParID,pre_instru_resp_2.keys,pre_instru_resp_2.rt,pre_instru_resp_3.keys,pre_instru_resp_3.rt,pre_instru_resp_9.keys,pre_instru_resp_9.rt,pre_instru_resp_8.keys,pre_instru_resp_8.rt,pre_instru_resp_4.keys,pre_instru_resp_4.rt,pre_instru_resp_5.keys,pre_instru_resp_5.rt,pre_instru_resp_6.keys,pre_instru_resp_6.rt,key_resp_3.keys,key_resp_3.rt,key_resp_4.keys,key_resp_4.rt,key_resp_5.keys,key_resp_5.rt,key_resp_6.keys,key_resp_6.rt,key_resp_7.keys,key_resp_7.rt,trials_2.thisRepN,trials_2.thisTrialN,trials_2.thisN,trials_2.thisIndex,trials_2.ran,participant,session,date,expName,psychopyVersion,OS,frameRate,SONAid,pre_instru_resp.keys,pre_instru_resp.rt,clicked,judge_2.x,judge_2.y,judge_2.leftButton,judge_2.midButton,judge_2.rightButton,judge_2.clicked_name,trials.thisRepN,trials.thisTrialN,trials.thisN,trials.thisIndex,trials.ran,prac_answer,prac_dot_sti,dotlefttext,dotrighttext,prac_acc,judge.x,judge.y,judge.leftButton,judge.midButton,judge.rightButton,judge.clicked_name,clicked_guilt,slider_guilt.response,slider_guilt.rt,key_guilt.keys,share_slider.response,share_slider.rt,key_share.keys,key_share.rt,slider_apology.response,slider_apology.rt,key_apology.keys,slider_hide.response,slider_hide.rt,slider_forgiveness.response,slider_forgiveness.rt,key_forgiveness.keys,slider_mad.response,slider_mad.rt,trialseq.thisRepN,trialseq.thisTrialN,trialseq.thisN,trialseq.thisIndex,trialseq.ran,type_trial,stipic,DV,picture,answer,number,key_guilt.rt,key_forgiveness.rt,key_apology.rt
"[115,55,184,197,117,60,144,51,123,127,182,138,153,61,35,165,98,75,168,96,8,131,179,113,66,93,97,80,158,181,45,52,19,200,77,178,132,87,145,133,95,163]",R_7MgMIvXrLYayfkt,space,6.514,space,3.26,space,13.736,space,20,space,19.595,space,4.902,space,1.543,1,12.101,1,7.266,3,9.879,1,7.136,3,2.942,0,0,0,0,1,R_7MgMIvXrLYayfkt,1,2024-05-28_23h58.14.035,interaction task,2021.2.3,MacIntel,62.5,116248,,,,,,,,,,,,,,,,,,,,,,,,,,,,,,,,,,,,,,,,,,,,,,,,,,,,,,,,,
,,,,space,1.49,space,10.959,space,4.256,space,21.646,space,1.029,space,0.565,3,6.218,1,1.711,3,2.841,3,3.87,2,2.775,1,0,1,0,1,R_7MgMIvXrLYayfkt,1,2024-05-28_23h58.14.035,interaction task,2021.2.3,MacIntel,62.5,116248,,,,,,,,,,,,,,,,,,,,,,,,,,,,,,,,,,,,,,,,,,,,,,,,,,,,,,,,,
,,,,space,1.595,space,0.367,space,0.35,space,14.211,space,0.638,space,0.645,3,2.501,1,0.596,3,1.688,3,4.898,2,4.201,2,0,2,0,1,R_7MgMIvXrLYayfkt,1,2024-05-28_23h58.14.035,interaction task,2021.2.3,MacIntel,62.5,116248,,,,,,,,,,,,,,,,,,,,,,,,,,,,,,,,,,,,,,,,,,,,,,,,,,,,,,,,,
,,,,space,0.354,space,0.2,space,0.161,space,0.18,space,0.766,space,0.452,3,1.57,1,0.572,3,3.802,2,8.211,2,2.583,3,0,3,0,1,R_7MgMIvXrLYayfkt,1,2024-05-28_23h58.14.035,interaction task,2021.2.3,MacIntel,62.5,116248,,,,,,,,,,,,,,,,,,,,,,,,,,,,,,,,,,,,,,,,,,,,,,,,,,,,,,,,,
,,,,,,,,,,,,,,,,,,,,,,,,,,,,,,,R_7MgMIvXrLYayfkt,1,2024-05-28_23h58.14.035,interaction task,2021.2.3,MacIntel,62.5,116248,space,2.876,"[""LeftButton_2""]",-0.294444444,-0.33902439,1,0,0,LeftButton_2,0,0,0,1,1,LeftButton_2,11dot1.png,Greater,Smaller,,,,,,,,,,,,,,,,,,,,,,,,,,,,,,,,,,,,,,,
,,,,,,,,,,,,,,,,,,,,,,,,,,,,,,,R_7MgMIvXrLYayfkt,1,2024-05-28_23h58.14.035,interaction task,2021.2.3,MacIntel,62.5,116248,,,"[""LeftButton_2""]",-0.222222222,-0.334146341,1,0,0,LeftButton_2,0,1,1,2,1,RightButton_2,11dot1.png,Smaller,Greater,,,,,,,,,,,,,,,,,,,,,,,,,,,,,,,,,,,,,,,
,,,,,,,,,,,,,,,,,,,,,,,,,,,,,,,R_7MgMIvXrLYayfkt,1,2024-05-28_23h58.14.035,interaction task,2021.2.3,MacIntel,62.5,116248,,,"[""LeftButton_2""]",-0.245833333,-0.334146341,1,0,0,LeftButton_2,0,2,2,0,1,RightButton_2,9dot2.png,Greater,Smaller,,,,,,,,,,,,,,,,,,,,,,,,,,,,,,,,,,,,,,,
,,,,,,,,,,,,,,,,,,,,,,,,,,,,,,,R_7MgMIvXrLYayfkt,1,2024-05-28_23h58.14.035,interaction task,2021.2.3,MacIntel,62.5,116248,,,,,,,,,,,,,,,,,Smaller,Greater,0.2,0.320833333,-0.47804878,1,0,0,RightButton,"[""RightButton""]",,,,2.534722222,10.635,space,3.882,,,,,,,,,,,0,0,0,0,1,2,only_sub_right.png,1,RandomDot14.png,No answer,20,,,
,,,,,,,,,,,,,,,,,,,,,,,,,,,,,,,R_7MgMIvXrLYayfkt,1,2024-05-28_23h58.14.035,interaction task,2021.2.3,MacIntel,62.5,116248,,,,,,,,,,,,,,,,,Smaller,Greater,,0.279166667,-0.47804878,1,0,0,RightButton,"[""RightButton""]",35,3.447,space,,,,,,,,,,,,,,,0,1,1,1,1,1,both_wrong.png,0,RandomDot28.png,No answer,19,0.916,,
,,,,,,,,,,,,,,,,,,,,,,,,,,,,,,,R_7MgMIvXrLYayfkt,1,2024-05-28_23h58.14.035,interaction task,2021.2.3,MacIntel,62.5,116248,,,,,,,,,,,,,,,,,Greater,Smaller,,0.275,-0.509756098,1,0,0,RightButton,"[""RightButton""]",,,,,,,,,,,,,71.74523008,4.399,space,32.88439955,6.348,0,2,2,2,1,3,only_sub_wrong.png,3,RandomDot20.png,No answer,20,,0.338,
,,,,,,,,,,,,,,,,,,,,,,,,,,,,,,,R_7MgMIvXrLYayfkt,1,2024-05-28_23h58.14.035,interaction task,2021.2.3,MacIntel,62.5,116248,,,,,,,,,,,,,,,,,Smaller,Greater,,0.3125,-0.5,1,0,0,RightButton,"[""RightButton""]",,,,,,,,,,,,,,,,,,0,3,3,3,1,4,both_right.png,10,RandomDot41.png,RightButton,5,,,
,,,,,,,,,,,,,,,,,,,,,,,,,,,,,,,R_7MgMIvXrLYayfkt,1,2024-05-28_23h58.14.035,interaction task,2021.2.3,MacIntel,62.5,116248,,,,,,,,,,,,,,,,,Smaller,Greater,,0.297222222,-0.5,1,0,0,RightButton,"[""RightButton""]",,,,2.347222222,4.525,space,0.677,,,,,,,,,,,0,4,4,4,1,2,only_sub_right.png,1,RandomDot27.png,No answer,21,,,
,,,,,,,,,,,,,,,,,,,,,,,,,,,,,,,R_7MgMIvXrLYayfkt,1,2024-05-28_23h58.14.035,interaction task,2021.2.3,MacIntel,62.5,116248,,,,,,,,,,,,,,,,,Greater,Smaller,,-0.322222222,-0.519512195,1,0,0,LeftButton,"[""LeftButton""]",,,,2.541666667,3.508,space,1.799,,,,,,,,,,,0,5,5,5,1,1,both_wrong.png,1,RandomDot13.png,No answer,19,,,
,,,,,,,,,,,,,,,,,,,,,,,,,,,,,,,R_7MgMIvXrLYayfkt,1,2024-05-28_23h58.14.035,interaction task,2021.2.3,MacIntel,62.5,116248,,,,,,,,,,,,,,,,,Greater,Smaller,,-0.2,-0.514634146,1,0,0,LeftButton,"[""LeftButton""]",49,2.014,space,,,,,,,,,,,,,,,0,6,6,6,1,3,only_sub_wrong.png,0,RandomDot33.png,No answer,19,0.521,,
,,,,,,,,,,,,,,,,,,,,,,,,,,,,,,,R_7MgMIvXrLYayfkt,1,2024-05-28_23h58.14.035,interaction task,2021.2.3,MacIntel,62.5,116248,,,,,,,,,,,,,,,,,Greater,Smaller,,0.273611111,-0.485365854,1,0,0,RightButton,"[""RightButton""]",20,3.347,space,,,,,,,,,,,,,,,0,7,7,7,1,1,both_wrong.png,0,RandomDot14.png,No answer,19,1.65,,
,,,,,,,,,,,,,,,,,,,,,,,,,,,,,,,R_7MgMIvXrLYayfkt,1,2024-05-28_23h58.14.035,interaction task,2021.2.3,MacIntel,62.5,116248,,,,,,,,,,,,,,,,,Greater,Smaller,,0.280555556,-0.497560976,1,0,0,RightButton,"[""RightButton""]",,,,,,,,50,3.622,space,58,7.57,,,,,,0,8,8,8,1,2,only_sub_right.png,2,RandomDot16.png,No answer,20,,,1.634
,,,,,,,,,,,,,,,,,,,,,,,,,,,,,,,R_7MgMIvXrLYayfkt,1,2024-05-28_23h58.14.035,interaction task,2021.2.3,MacIntel,62.5,116248,,,,,,,,,,,,,,,,,Smaller,Greater,,-0.238888889,-0.52195122,1,0,0,LeftButton,"[""LeftButton""]",,,,,,,,48,3.324,space,57,5.623,,,,,,0,9,9,9,1,2,only_sub_right.png,2,RandomDot22.png,No answer,19,,,0.338
,,,,,,,,,,,,,,,,,,,,,,,,,,,,,,,R_7MgMIvXrLYayfkt,1,2024-05-28_23h58.14.035,interaction task,2021.2.3,MacIntel,62.5,116248,,,,,,,,,,,,,,,,,Greater,Smaller,,0.272222222,-0.456097561,1,0,0,RightButton,"[""RightButton""]",,,,,,,,,,,,,49.85970819,2.881,space,50.14029181,5.063,0,10,10,10,1,3,only_sub_wrong.png,3,RandomDot8.png,No answer,21,,0.33,
,,,,,,,,,,,,,,,,,,,,,,,,,,,,,,,R_7MgMIvXrLYayfkt,1,2024-05-28_23h58.14.035,interaction task,2021.2.3,MacIntel,62.5,116248,,,,,,,,,,,,,,,,,Smaller,Greater,,0.256944444,-0.524390244,1,0,0,RightButton,"[""RightButton""]",,,,,,,,,,,,,52.52525253,3.788,space,50.14029181,6.255,0,11,11,11,1,2,only_sub_right.png,3,RandomDot25.png,No answer,21,,1.331,
,,,,,,,,,,,,,,,,,,,,,,,,,,,,,,,R_7MgMIvXrLYayfkt,1,2024-05-28_23h58.14.035,interaction task,2021.2.3,MacIntel,62.5,116248,,,,,,,,,,,,,,,,,Smaller,Greater,,-0.236111111,-0.517073171,1,0,0,LeftButton,"[""LeftButton""]",62,1.881,space,,,,,,,,,,,,,,,0,12,12,12,1,3,only_sub_wrong.png,0,RandomDot25.png,No answer,20,0.334,,
,,,,,,,,,,,,,,,,,,,,,,,,,,,,,,,R_7MgMIvXrLYayfkt,1,2024-05-28_23h58.14.035,interaction task,2021.2.3,MacIntel,62.5,116248,,,,,,,,,,,,,,,,,Greater,Smaller,,0.309722222,-0.502439024,1,0,0,RightButton,"[""RightButton""]",,,,2.798611111,2.19,space,0.501,,,,,,,,,,,0,13,13,13,1,1,both_wrong.png,1,RandomDot23.png,No answer,21,,,
,,,,,,,,,,,,,,,,,,,,,,,,,,,,,,,R_7MgMIvXrLYayfkt,1,2024-05-28_23h58.14.035,interaction task,2021.2.3,MacIntel,62.5,116248,,,,,,,,,,,,,,,,,Smaller,Greater,,0.3375,-0.514634146,1,0,0,RightButton,"[""RightButton""]",,,,,,,,,,,,,,,,,,0,14,14,14,1,0,both_right.png,2,RandomDot25.png,No answer,19,,,
,,,,,,,,,,,,,,,,,,,,,,,,,,,,,,,R_7MgMIvXrLYayfkt,1,2024-05-28_23h58.14.035,interaction task,2021.2.3,MacIntel,62.5,116248,,,,,,,,,,,,,,,,,Smaller,Greater,,0.323611111,-0.534146341,1,0,0,RightButton,"[""RightButton""]",,,,3.076388889,1.978,space,0.396,,,,,,,,,,,0,15,15,15,1,3,only_sub_wrong.png,1,RandomDot6.png,No answer,21,,,
,,,,,,,,,,,,,,,,,,,,,,,,,,,,,,,R_7MgMIvXrLYayfkt,1,2024-05-28_23h58.14.035,interaction task,2021.2.3,MacIntel,62.5,116248,,,,,,,,,,,,,,,,,Greater,Smaller,,0.298611111,-0.475609756,1,0,0,RightButton,"[""RightButton""]",56,3.665,space,,,,,,,,,,,,,,,0,16,16,16,1,2,only_sub_right.png,0,RandomDot16.png,No answer,20,2.052,,
,,,,,,,,,,,,,,,,,,,,,,,,,,,,,,,R_7MgMIvXrLYayfkt,1,2024-05-28_23h58.14.035,interaction task,2021.2.3,MacIntel,62.5,116248,,,,,,,,,,,,,,,,,Greater,Smaller,,-0.234722222,-0.463414634,1,0,0,LeftButton,"[""LeftButton""]",,,,,,,,55,2.621,space,51,4.539,,,,,,0,17,17,17,1,1,both_wrong.png,2,RandomDot10.png,No answer,20,,,1.152
,,,,,,,,,,,,,,,,,,,,,,,,,,,,,,,R_7MgMIvXrLYayfkt,1,2024-05-28_23h58.14.035,interaction task,2021.2.3,MacIntel,62.5,116248,,,,,,,,,,,,,,,,,Greater,Smaller,,0.3125,-0.5,1,0,0,RightButton,"[""RightButton""]",,,,,,,,62,1.893,space,52,3.11,,,,,,0,18,18,18,1,3,only_sub_wrong.png,2,RandomDot13.png,No answer,21,,,0.496
,,,,,,,,,,,,,,,,,,,,,,,,,,,,,,,R_7MgMIvXrLYayfkt,1,2024-05-28_23h58.14.035,interaction task,2021.2.3,MacIntel,62.5,116248,,,,,,,,,,,,,,,,,Greater,Smaller,,-0.222222222,-0.536585366,1,0,0,LeftButton,"[""LeftButton""]",55,4.116,space,,,,,,,,,,,,,,,0,19,19,19,1,2,only_sub_right.png,0,RandomDot26.png,No answer,19,2.388,,
,,,,,,,,,,,,,,,,,,,,,,,,,,,,,,,R_7MgMIvXrLYayfkt,1,2024-05-28_23h58.14.035,interaction task,2021.2.3,MacIntel,62.5,116248,,,,,,,,,,,,,,,,,Smaller,Greater,,0.316666667,-0.490243902,1,0,0,RightButton,"[""RightButton""]",,,,,,,,,,,,,,,,,,0,20,20,20,1,0,both_right.png,0,RandomDot15.png,No answer,21,,,
,,,,,,,,,,,,,,,,,,,,,,,,,,,,,,,R_7MgMIvXrLYayfkt,1,2024-05-28_23h58.14.035,interaction task,2021.2.3,MacIntel,62.5,116248,,,,,,,,,,,,,,,,,Smaller,Greater,,-0.244444444,-0.531707317,1,0,0,LeftButton,"[""LeftButton""]",,,,,,,,64,2.74,space,52,4.858,,,,,,0,21,21,21,1,2,only_sub_right.png,2,RandomDot5.png,No answer,21,,,1.03
,,,,,,,,,,,,,,,,,,,,,,,,,,,,,,,R_7MgMIvXrLYayfkt,1,2024-05-28_23h58.14.035,interaction task,2021.2.3,MacIntel,62.5,116248,,,,,,,,,,,,,,,,,Smaller,Greater,,-0.238888889,-0.531707317,1,0,0,LeftButton,"[""LeftButton""]",,,,,,,,66,1.79,space,51,2.807,,,,,,0,22,22,22,1,3,only_sub_wrong.png,2,RandomDot15.png,No answer,20,,,0.268
,,,,,,,,,,,,,,,,,,,,,,,,,,,,,,,R_7MgMIvXrLYayfkt,1,2024-05-28_23h58.14.035,interaction task,2021.2.3,MacIntel,62.5,116248,,,,,,,,,,,,,,,,,Greater,Smaller,,-0.35,-0.497560976,1,0,0,LeftButton,"[""LeftButton""]",,,,3.201388889,2.161,space,0.494,,,,,,,,,,,0,23,23,23,1,2,only_sub_right.png,1,RandomDot3.png,No answer,20,,,
,,,,,,,,,,,,,,,,,,,,,,,,,,,,,,,R_7MgMIvXrLYayfkt,1,2024-05-28_23h58.14.035,interaction task,2021.2.3,MacIntel,62.5,116248,,,,,,,,,,,,,,,,,Smaller,Greater,,-0.284193284,-0.49391069,1,0,0,LeftButton,"[""LeftButton""]",,,,3.265765766,2.358,space,0.801,,,,,,,,,,,0,24,24,24,1,1,both_wrong.png,1,RandomDot10.png,No answer,19,,,
,,,,,,,,,,,,,,,,,,,,,,,,,,,,,,,R_7MgMIvXrLYayfkt,1,2024-05-28_23h58.14.035,interaction task,2021.2.3,MacIntel,62.5,116248,,,,,,,,,,,,,,,,,Smaller,Greater,,0.300573301,-0.51014885,1,0,0,RightButton,"[""RightButton""]",,,,,,,,,,,,,51.68350168,6.517,space,54.0684624,8.868,0,25,25,25,1,1,both_wrong.png,3,RandomDot12.png,No answer,21,,0.514,
,,,,,,,,,,,,,,,,,,,,,,,,,,,,,,,R_7MgMIvXrLYayfkt,1,2024-05-28_23h58.14.035,interaction task,2021.2.3,MacIntel,62.5,116248,,,,,,,,,,,,,,,,,Greater,Smaller,,0.326781327,-0.52368065,1,0,0,RightButton,"[""RightButton""]",67,1.765,space,,,,,,,,,,,,,,,0,26,26,26,1,2,only_sub_right.png,0,RandomDot8.png,No answer,20,0.22,,
,,,,,,,,,,,,,,,,,,,,,,,,,,,,,,,R_7MgMIvXrLYayfkt,1,2024-05-28_23h58.14.035,interaction task,2021.2.3,MacIntel,62.5,116248,,,,,,,,,,,,,,,,,Smaller,Greater,,0.312039312,-0.51014885,1,0,0,RightButton,"[""RightButton""]",,,,,,,,69,2.271,space,54,3.454,,,,,,0,27,27,27,1,1,both_wrong.png,2,RandomDot8.png,No answer,20,,,0.168
,,,,,,,,,,,,,,,,,,,,,,,,,,,,,,,R_7MgMIvXrLYayfkt,1,2024-05-28_23h58.14.035,interaction task,2021.2.3,MacIntel,62.5,116248,,,,,,,,,,,,,,,,,Greater,Smaller,,-0.292383292,-0.50744249,1,0,0,LeftButton,"[""LeftButton""]",,,,2.995495495,1.992,space,0.875,,,,,,,,,,,0,28,28,28,1,3,only_sub_wrong.png,1,RandomDot1.png,No answer,19,,,
,,,,,,,,,,,,,,,,,,,,,,,,,,,,,,,R_7MgMIvXrLYayfkt,1,2024-05-28_23h58.14.035,interaction task,2021.2.3,MacIntel,62.5,116248,,,,,,,,,,,,,,,,,Greater,Smaller,,-0.207207207,-0.51285521,1,0,0,LeftButton,"[""LeftButton""]",,,,,,,,,,,,,42.47181065,3.226,space,61.49910241,5.327,0,29,29,29,1,3,only_sub_wrong.png,3,RandomDot3.png,No answer,19,,0.336,
,,,,,,,,,,,,,,,,,,,,,,,,,,,,,,,R_7MgMIvXrLYayfkt,1,2024-05-28_23h58.14.035,interaction task,2021.2.3,MacIntel,62.5,116248,,,,,,,,,,,,,,,,,Smaller,Greater,,-0.251433251,-0.52368065,1,0,0,LeftButton,"[""LeftButton""]",,,,,,,,,,,,,,,,,,0,30,30,30,1,0,both_right.png,3,RandomDot13.png,No answer,20,,,
,,,,,,,,,,,,,,,,,,,,,,,,,,,,,,,R_7MgMIvXrLYayfkt,1,2024-05-28_23h58.14.035,interaction task,2021.2.3,MacIntel,62.5,116248,,,,,,,,,,,,,,,,,Greater,Smaller,,-0.343161343,-0.47767253,1,0,0,LeftButton,"[""LeftButton""]",69,1.797,space,,,,,,,,,,,,,,,0,31,31,31,1,1,both_wrong.png,0,RandomDot10.png,No answer,20,0.783,,
,,,,,,,,,,,,,,,,,,,,,,,,,,,,,,,R_7MgMIvXrLYayfkt,1,2024-05-28_23h58.14.035,interaction task,2021.2.3,MacIntel,62.5,116248,,,,,,,,,,,,,,,,,Smaller,Greater,,-0.24929972,-0.497560976,1,0,0,LeftButton,"[""LeftButton""]",,,,,,,,,,,,,,,,,,0,32,32,32,1,0,both_right.png,1,RandomDot36.png,No answer,19,,,
,,,,,,,,,,,,,,,,,,,,,,,,,,,,,,,R_7MgMIvXrLYayfkt,1,2024-05-28_23h58.14.035,interaction task,2021.2.3,MacIntel,62.5,116248,,,,,,,,,,,,,,,,,Greater,Smaller,,0.302521008,-0.492682927,1,0,0,RightButton,"[""RightButton""]",,,,,,,,,,,,,,,,,,0,33,33,33,1,5,both_right.png,10,RandomDot42.png,RightButton,20,,,
,,,,,,,,,,,,,,,,,,,,,,,,,,,,,,,R_7MgMIvXrLYayfkt,1,2024-05-28_23h58.14.035,interaction task,2021.2.3,MacIntel,62.5,116248,,,,,,,,,,,,,,,,,Greater,Smaller,,-0.31092437,-0.490243902,1,0,0,LeftButton,"[""LeftButton""]",,,,,,,,62,2.926,space,53,4.741,,,,,,0,34,34,34,1,1,both_wrong.png,2,RandomDot13.png,No answer,21,,,0.551
,,,,,,,,,,,,,,,,,,,,,,,,,,,,,,,R_7MgMIvXrLYayfkt,1,2024-05-28_23h58.14.035,interaction task,2021.2.3,MacIntel,62.5,116248,,,,,,,,,,,,,,,,,Smaller,Greater,,0.263305322,-0.497560976,1,0,0,RightButton,"[""RightButton""]",,,,,,,,70,2.874,space,61,3.922,,,,,,0,35,35,35,1,3,only_sub_wrong.png,2,RandomDot22.png,No answer,19,,,0.733
,,,,,,,,,,,,,,,,,,,,,,,,,,,,,,,R_7MgMIvXrLYayfkt,1,2024-05-28_23h58.14.035,interaction task,2021.2.3,MacIntel,62.5,116248,,,,,,,,,,,,,,,,,Greater,Smaller,,0.260504202,-0.531707317,1,0,0,RightButton,"[""RightButton""]",,,,,,,,,,,,,34.72116119,7.422,space,69.24001924,8.736,0,36,36,36,1,2,only_sub_right.png,3,RandomDot20.png,No answer,21,,0.403,
,,,,,,,,,,,,,,,,,,,,,,,,,,,,,,,R_7MgMIvXrLYayfkt,1,2024-05-28_23h58.14.035,interaction task,2021.2.3,MacIntel,62.5,116248,,,,,,,,,,,,,,,,,Greater,Smaller,,-0.18487395,-0.517073171,1,0,0,LeftButton,"[""LeftButton""]",,,,,,,,,,,,,33.30645389,5.588,space,62.44942421,7.138,0,37,37,37,1,1,both_wrong.png,3,RandomDot17.png,No answer,21,,0.347,
,,,,,,,,,,,,,,,,,,,,,,,,,,,,,,,R_7MgMIvXrLYayfkt,1,2024-05-28_23h58.14.035,interaction task,2021.2.3,MacIntel,62.5,116248,,,,,,,,,,,,,,,,,Greater,Smaller,,0.193277311,-0.482926829,1,0,0,RightButton,"[""RightButton""]",77,2.48,space,,,,,,,,,,,,,,,0,38,38,38,1,3,only_sub_wrong.png,0,RandomDot15.png,No answer,20,0.557,,
,,,,,,,,,,,,,,,,,,,,,,,,,,,,,,,R_7MgMIvXrLYayfkt,1,2024-05-28_23h58.14.035,interaction task,2021.2.3,MacIntel,62.5,116248,,,,,,,,,,,,,,,,,Greater,Smaller,,0.355742297,-0.473170732,1,0,0,RightButton,"[""RightButton""]",,,,,,,,,,,,,29.62821492,4.038,space,70.37178508,4.987,0,39,39,39,1,2,only_sub_right.png,3,RandomDot36.png,No answer,20,,0.634,
,,,,,,,,,,,,,,,,,,,,,,,,,,,,,,,R_7MgMIvXrLYayfkt,1,2024-05-28_23h58.14.035,interaction task,2021.2.3,MacIntel,62.5,116248,,,,,,,,,,,,,,,,,Smaller,Greater,,0.294117647,-0.490243902,1,0,0,RightButton,"[""RightButton""]",,,,,,,,,,,,,28.77939054,2.906,space,77.1623801,3.922,0,40,40,40,1,1,both_wrong.png,3,RandomDot12.png,No answer,19,,0.9,
,,,,,,,,,,,,,,,,,,,,,,,,,,,,,,,R_7MgMIvXrLYayfkt,1,2024-05-28_23h58.14.035,interaction task,2021.2.3,MacIntel,62.5,116248,,,,,,,,,,,,,,,,,Smaller,Greater,,-0.352941176,-0.53902439,1,0,0,LeftButton,"[""LeftButton""]",,,,3.480392157,4.361,space,0.956,,,,,,,,,,,0,41,41,41,1,3,only_sub_wrong.png,1,RandomDot6.png,No answer,20,,,
