choose_trial,key_resp.keys,key_resp.rt,key_resp_4.keys,key_resp_4.rt,session_trait,slider_face_judge.response,slider_face_judge.rt,key_resp_3.keys,key_resp_3.rt,face_loop.thisRepN,face_loop.thisTrialN,face_loop.thisN,face_loop.thisIndex,face_loop.ran,face_serial,image_name,isCheck,answer,check_question,participant,session,date,expName,psychopyVersion,OS,frameRate,SONAid,session.thisRepN,session.thisTrialN,session.thisN,session.thisIndex,session.ran,session_serial,slider_judge_img
"[0,1,2,3,4,5,6,7,8,9,10,11,12,13,14,15,16,17,18,19,20,21,22,23,24,25,26,27,28,29,30,31,32,33,34,35,36,37,38,39,40,41,42,43,44,45,46,47,48,49,59,50,60]",space,6.8214,space,34.945,critical,3.999427083,4.7946,space,0.7659,0,0,0,3,1,4,image/4.jpg,0,0,,R_7mRgBYfm8mjMQG1,2,2024-05-30_15h46.15.648,face trait task,2021.2.3,MacIntel,62.11180124,120763,,,,,,,
,,,,,,2.999973958,6.7756,space,0.5278,0,1,1,15,1,16,image/16.jpg,0,0,,R_7mRgBYfm8mjMQG1,2,2024-05-30_15h46.15.648,face trait task,2021.2.3,MacIntel,62.11180124,120763,,,,,,,
,,,,,,5.004010417,6.26,space,0.536,0,2,2,30,1,31,image/31.jpg,0,0,,R_7mRgBYfm8mjMQG1,2,2024-05-30_15h46.15.648,face trait task,2021.2.3,MacIntel,62.11180124,120763,,,,,,,
,,,,,,2.99921875,3.5415,space,0.4973,0,3,3,22,1,23,image/23.jpg,0,0,,R_7mRgBYfm8mjMQG1,2,2024-05-30_15h46.15.648,face trait task,2021.2.3,MacIntel,62.11180124,120763,,,,,,,
,,,,,,3.992135417,4.0954,space,0.4263,0,4,4,20,1,21,image/21.jpg,0,0,,R_7mRgBYfm8mjMQG1,2,2024-05-30_15h46.15.648,face trait task,2021.2.3,MacIntel,62.11180124,120763,,,,,,,
,,,,,,3.987708333,5.4002,space,0.4025,0,5,5,29,1,30,image/30.jpg,0,0,,R_7mRgBYfm8mjMQG1,2,2024-05-30_15h46.15.648,face trait task,2021.2.3,MacIntel,62.11180124,120763,,,,,,,
,,,,,,6.018541667,2.8974,space,0.462,0,6,6,47,1,48,image/48.jpg,0,0,,R_7mRgBYfm8mjMQG1,2,2024-05-30_15h46.15.648,face trait task,2021.2.3,MacIntel,62.11180124,120763,,,,,,,
,,,,,,5.986223958,2.3342,space,0.6651,0,7,7,45,1,46,image/46.jpg,0,0,,R_7mRgBYfm8mjMQG1,2,2024-05-30_15h46.15.648,face trait task,2021.2.3,MacIntel,62.11180124,120763,,,,,,,
,,,,,,5.011276042,2.5464,space,0.452,0,8,8,19,1,20,image/20.jpg,0,0,,R_7mRgBYfm8mjMQG1,2,2024-05-30_15h46.15.648,face trait task,2021.2.3,MacIntel,62.11180124,120763,,,,,,,
,,,,,,5.007447917,5.7002,space,1.7825,0,9,9,1,1,2,image/2.jpg,0,0,,R_7mRgBYfm8mjMQG1,2,2024-05-30_15h46.15.648,face trait task,2021.2.3,MacIntel,62.11180124,120763,,,,,,,
,,,,,,3.995260417,4.5279,space,0.3774,0,10,10,27,1,28,image/28.jpg,0,0,,R_7mRgBYfm8mjMQG1,2,2024-05-30_15h46.15.648,face trait task,2021.2.3,MacIntel,62.11180124,120763,,,,,,,
,,,,,,5.005416667,4.0917,space,0.5074,0,11,11,7,1,8,image/8.jpg,0,0,,R_7mRgBYfm8mjMQG1,2,2024-05-30_15h46.15.648,face trait task,2021.2.3,MacIntel,62.11180124,120763,,,,,,,
,,,,,,4.008229167,4.5123,space,0.4753,0,12,12,37,1,38,image/38.jpg,0,0,,R_7mRgBYfm8mjMQG1,2,2024-05-30_15h46.15.648,face trait task,2021.2.3,MacIntel,62.11180124,120763,,,,,,,
,,,,,,4.002057292,5.7811,space,0.4494,0,13,13,40,1,41,image/41.jpg,0,0,,R_7mRgBYfm8mjMQG1,2,2024-05-30_15h46.15.648,face trait task,2021.2.3,MacIntel,62.11180124,120763,,,,,,,
,,,,,,4.010833333,6.0769,space,0.2941,0,14,14,36,1,37,image/37.jpg,0,0,,R_7mRgBYfm8mjMQG1,2,2024-05-30_15h46.15.648,face trait task,2021.2.3,MacIntel,62.11180124,120763,,,,,,,
,,,,,,3.994479167,4.7003,space,0.3186,0,15,15,48,1,49,image/49.jpg,0,0,,R_7mRgBYfm8mjMQG1,2,2024-05-30_15h46.15.648,face trait task,2021.2.3,MacIntel,62.11180124,120763,,,,,,,
,,,,,,3.998932292,4.2806,space,2.1854,0,16,16,23,1,24,image/24.jpg,0,0,,R_7mRgBYfm8mjMQG1,2,2024-05-30_15h46.15.648,face trait task,2021.2.3,MacIntel,62.11180124,120763,,,,,,,
,,,,,,6.996171875,3.2479,space,0.7686,0,17,17,52,1,61,image/fill_img.png,1,7,Please move the slider all the way to the RIGHT to show that you are paying attention.,R_7mRgBYfm8mjMQG1,2,2024-05-30_15h46.15.648,face trait task,2021.2.3,MacIntel,62.11180124,120763,,,,,,,
,,,,,,4.001875,5.9796,space,2.0016,0,18,18,39,1,40,image/40.jpg,0,0,,R_7mRgBYfm8mjMQG1,2,2024-05-30_15h46.15.648,face trait task,2021.2.3,MacIntel,62.11180124,120763,,,,,,,
,,,,,,3.990729167,5.5627,space,0.2892,0,19,19,43,1,44,image/44.jpg,0,0,,R_7mRgBYfm8mjMQG1,2,2024-05-30_15h46.15.648,face trait task,2021.2.3,MacIntel,62.11180124,120763,,,,,,,
,,,,,,5.023020833,4.0172,space,0.7016,0,20,20,31,1,32,image/32.jpg,0,0,,R_7mRgBYfm8mjMQG1,2,2024-05-30_15h46.15.648,face trait task,2021.2.3,MacIntel,62.11180124,120763,,,,,,,
,,,,,,4.997864583,3.1735,space,0.3145,0,21,21,9,1,10,image/10.jpg,0,0,,R_7mRgBYfm8mjMQG1,2,2024-05-30_15h46.15.648,face trait task,2021.2.3,MacIntel,62.11180124,120763,,,,,,,
,,,,,,2.980677083,2.5842,space,0.5006,0,22,22,13,1,14,image/14.jpg,0,0,,R_7mRgBYfm8mjMQG1,2,2024-05-30_15h46.15.648,face trait task,2021.2.3,MacIntel,62.11180124,120763,,,,,,,
,,,,,,2.9934375,3.5545,space,1.2981,0,23,23,28,1,29,image/29.jpg,0,0,,R_7mRgBYfm8mjMQG1,2,2024-05-30_15h46.15.648,face trait task,2021.2.3,MacIntel,62.11180124,120763,,,,,,,
,,,,,,3.99921875,2.3666,space,0.4877,0,24,24,33,1,34,image/34.jpg,0,0,,R_7mRgBYfm8mjMQG1,2,2024-05-30_15h46.15.648,face trait task,2021.2.3,MacIntel,62.11180124,120763,,,,,,,
,,,,,,7,5.4465,space,2.3184,0,25,25,50,1,60,image/fill_img.png,1,7,Please move the slider all the way to the RIGHT to show that you are paying attention.,R_7mRgBYfm8mjMQG1,2,2024-05-30_15h46.15.648,face trait task,2021.2.3,MacIntel,62.11180124,120763,,,,,,,
,,,,,,3.998229167,4.8312,space,0.7664,0,26,26,10,1,11,image/11.jpg,0,0,,R_7mRgBYfm8mjMQG1,2,2024-05-30_15h46.15.648,face trait task,2021.2.3,MacIntel,62.11180124,120763,,,,,,,
,,,,,,4.003802083,4.2959,space,0.3464,0,27,27,21,1,22,image/22.jpg,0,0,,R_7mRgBYfm8mjMQG1,2,2024-05-30_15h46.15.648,face trait task,2021.2.3,MacIntel,62.11180124,120763,,,,,,,
,,,,,,4.002916667,4.6342,space,0.4836,0,28,28,46,1,47,image/47.jpg,0,0,,R_7mRgBYfm8mjMQG1,2,2024-05-30_15h46.15.648,face trait task,2021.2.3,MacIntel,62.11180124,120763,,,,,,,
,,,,,,2.975989583,3.2948,space,0.5644,0,29,29,12,1,13,image/13.jpg,0,0,,R_7mRgBYfm8mjMQG1,2,2024-05-30_15h46.15.648,face trait task,2021.2.3,MacIntel,62.11180124,120763,,,,,,,
,,,,,,5.026510417,2.1971,space,0.8378,0,30,30,8,1,9,image/9.jpg,0,0,,R_7mRgBYfm8mjMQG1,2,2024-05-30_15h46.15.648,face trait task,2021.2.3,MacIntel,62.11180124,120763,,,,,,,
,,,,,,4.138671875,2.3947,space,1.0857,0,31,31,11,1,12,image/12.jpg,0,0,,R_7mRgBYfm8mjMQG1,2,2024-05-30_15h46.15.648,face trait task,2021.2.3,MacIntel,62.11180124,120763,,,,,,,
,,,,,,1,4.726,space,1.4639,0,32,32,51,1,51,image/fill_img.png,1,1,Please move the slider all the way to the LEFT to show that you are paying attention.,R_7mRgBYfm8mjMQG1,2,2024-05-30_15h46.15.648,face trait task,2021.2.3,MacIntel,62.11180124,120763,,,,,,,
,,,,,,4.439505208,3.6271,space,0.5706,0,33,33,0,1,1,image/1.jpg,0,0,,R_7mRgBYfm8mjMQG1,2,2024-05-30_15h46.15.648,face trait task,2021.2.3,MacIntel,62.11180124,120763,,,,,,,
,,,,,,3.697473958,3.5598,space,0.4883,0,34,34,4,1,5,image/5.jpg,0,0,,R_7mRgBYfm8mjMQG1,2,2024-05-30_15h46.15.648,face trait task,2021.2.3,MacIntel,62.11180124,120763,,,,,,,
,,,,,,4.630208333,4.6591,space,0.6346,0,35,35,34,1,35,image/35.jpg,0,0,,R_7mRgBYfm8mjMQG1,2,2024-05-30_15h46.15.648,face trait task,2021.2.3,MacIntel,62.11180124,120763,,,,,,,
,,,,,,5.732473958,6.0123,space,4.162,0,36,36,44,1,45,image/45.jpg,0,0,,R_7mRgBYfm8mjMQG1,2,2024-05-30_15h46.15.648,face trait task,2021.2.3,MacIntel,62.11180124,120763,,,,,,,
,,,,,,4.004973958,3.7965,space,0.279,0,37,37,32,1,33,image/33.jpg,0,0,,R_7mRgBYfm8mjMQG1,2,2024-05-30_15h46.15.648,face trait task,2021.2.3,MacIntel,62.11180124,120763,,,,,,,
,,,,,,4.2984375,3.9818,space,0.318,0,38,38,25,1,26,image/26.jpg,0,0,,R_7mRgBYfm8mjMQG1,2,2024-05-30_15h46.15.648,face trait task,2021.2.3,MacIntel,62.11180124,120763,,,,,,,
,,,,,,4.285104167,2.9838,space,0.2868,0,39,39,18,1,19,image/19.jpg,0,0,,R_7mRgBYfm8mjMQG1,2,2024-05-30_15h46.15.648,face trait task,2021.2.3,MacIntel,62.11180124,120763,,,,,,,
,,,,,,3.99609375,3.6782,space,0.2779,0,40,40,5,1,6,image/6.jpg,0,0,,R_7mRgBYfm8mjMQG1,2,2024-05-30_15h46.15.648,face trait task,2021.2.3,MacIntel,62.11180124,120763,,,,,,,
,,,,,,2.574010417,3.1363,space,0.5972,0,41,41,24,1,25,image/25.jpg,0,0,,R_7mRgBYfm8mjMQG1,2,2024-05-30_15h46.15.648,face trait task,2021.2.3,MacIntel,62.11180124,120763,,,,,,,
,,,,,,4.004557292,4.1492,space,0.2516,0,42,42,26,1,27,image/27.jpg,0,0,,R_7mRgBYfm8mjMQG1,2,2024-05-30_15h46.15.648,face trait task,2021.2.3,MacIntel,62.11180124,120763,,,,,,,
,,,,,,4.302838542,6.211,space,1.7482,0,43,43,6,1,7,image/7.jpg,0,0,,R_7mRgBYfm8mjMQG1,2,2024-05-30_15h46.15.648,face trait task,2021.2.3,MacIntel,62.11180124,120763,,,,,,,
,,,,,,4.371953125,8.0744,space,0.3448,0,44,44,35,1,36,image/36.jpg,0,0,,R_7mRgBYfm8mjMQG1,2,2024-05-30_15h46.15.648,face trait task,2021.2.3,MacIntel,62.11180124,120763,,,,,,,
,,,,,,3.804557292,4.2596,space,1.3517,0,45,45,38,1,39,image/39.jpg,0,0,,R_7mRgBYfm8mjMQG1,2,2024-05-30_15h46.15.648,face trait task,2021.2.3,MacIntel,62.11180124,120763,,,,,,,
,,,,,,2.991822917,3.9581,space,0.6657,0,46,46,14,1,15,image/15.jpg,0,0,,R_7mRgBYfm8mjMQG1,2,2024-05-30_15h46.15.648,face trait task,2021.2.3,MacIntel,62.11180124,120763,,,,,,,
,,,,,,3.99109375,4.9352,space,2.4343,0,47,47,16,1,17,image/17.jpg,0,0,,R_7mRgBYfm8mjMQG1,2,2024-05-30_15h46.15.648,face trait task,2021.2.3,MacIntel,62.11180124,120763,,,,,,,
,,,,,,4.188515625,4.7916,space,0.5592,0,48,48,42,1,43,image/43.jpg,0,0,,R_7mRgBYfm8mjMQG1,2,2024-05-30_15h46.15.648,face trait task,2021.2.3,MacIntel,62.11180124,120763,,,,,,,
,,,,,,4.004036458,4.1801,space,0.4222,0,49,49,41,1,42,image/42.jpg,0,0,,R_7mRgBYfm8mjMQG1,2,2024-05-30_15h46.15.648,face trait task,2021.2.3,MacIntel,62.11180124,120763,,,,,,,
,,,,,,3.556901042,7.3795,space,1.3403,0,50,50,2,1,3,image/3.jpg,0,0,,R_7mRgBYfm8mjMQG1,2,2024-05-30_15h46.15.648,face trait task,2021.2.3,MacIntel,62.11180124,120763,,,,,,,
,,,,,,4.983072917,3.0813,space,0.6167,0,51,51,49,1,50,image/50.jpg,0,0,,R_7mRgBYfm8mjMQG1,2,2024-05-30_15h46.15.648,face trait task,2021.2.3,MacIntel,62.11180124,120763,,,,,,,
,,,,,,4.229348958,3.3968,space,1.4657,0,52,52,17,1,18,image/18.jpg,0,0,,R_7mRgBYfm8mjMQG1,2,2024-05-30_15h46.15.648,face trait task,2021.2.3,MacIntel,62.11180124,120763,,,,,,,
,,,,,,,,,,,,,,,,,,,,R_7mRgBYfm8mjMQG1,2,2024-05-30_15h46.15.648,face trait task,2021.2.3,MacIntel,62.11180124,120763,0,0,0,0,1,0,critical.png
,,,,,trustworthy,4.001432292,10.78,space,1.7798,0,0,0,15,1,16,image/16.jpg,0,0,,R_7mRgBYfm8mjMQG1,2,2024-05-30_15h46.15.648,face trait task,2021.2.3,MacIntel,62.11180124,120763,,,,,,,
,,,,,,3.003541667,3.5546,space,1.9151,0,1,1,32,1,33,image/33.jpg,0,0,,R_7mRgBYfm8mjMQG1,2,2024-05-30_15h46.15.648,face trait task,2021.2.3,MacIntel,62.11180124,120763,,,,,,,
,,,,,,2.994322917,3.5122,space,0.5056,0,2,2,40,1,41,image/41.jpg,0,0,,R_7mRgBYfm8mjMQG1,2,2024-05-30_15h46.15.648,face trait task,2021.2.3,MacIntel,62.11180124,120763,,,,,,,
,,,,,,2.062552083,4.3418,space,1.1602,0,3,3,49,1,50,image/50.jpg,0,0,,R_7mRgBYfm8mjMQG1,2,2024-05-30_15h46.15.648,face trait task,2021.2.3,MacIntel,62.11180124,120763,,,,,,,
,,,,,,4.393359375,3.5426,space,0.756,0,4,4,42,1,43,image/43.jpg,0,0,,R_7mRgBYfm8mjMQG1,2,2024-05-30_15h46.15.648,face trait task,2021.2.3,MacIntel,62.11180124,120763,,,,,,,
,,,,,,2.979921875,5.9806,space,1.5807,0,5,5,38,1,39,image/39.jpg,0,0,,R_7mRgBYfm8mjMQG1,2,2024-05-30_15h46.15.648,face trait task,2021.2.3,MacIntel,62.11180124,120763,,,,,,,
,,,,,,3.059817708,3.0502,space,0.4322,0,6,6,22,1,23,image/23.jpg,0,0,,R_7mRgBYfm8mjMQG1,2,2024-05-30_15h46.15.648,face trait task,2021.2.3,MacIntel,62.11180124,120763,,,,,,,
,,,,,,1.9840625,2.9814,space,1.0204,0,7,7,33,1,34,image/34.jpg,0,0,,R_7mRgBYfm8mjMQG1,2,2024-05-30_15h46.15.648,face trait task,2021.2.3,MacIntel,62.11180124,120763,,,,,,,
,,,,,,3.034739583,3.3603,space,0.5739,0,8,8,45,1,46,image/46.jpg,0,0,,R_7mRgBYfm8mjMQG1,2,2024-05-30_15h46.15.648,face trait task,2021.2.3,MacIntel,62.11180124,120763,,,,,,,
,,,,,,4.437708333,5.2076,space,0.2882,0,9,9,27,1,28,image/28.jpg,0,0,,R_7mRgBYfm8mjMQG1,2,2024-05-30_15h46.15.648,face trait task,2021.2.3,MacIntel,62.11180124,120763,,,,,,,
,,,,,,2.728463542,4.1079,space,0.2896,0,10,10,48,1,49,image/49.jpg,0,0,,R_7mRgBYfm8mjMQG1,2,2024-05-30_15h46.15.648,face trait task,2021.2.3,MacIntel,62.11180124,120763,,,,,,,
,,,,,,3.998307292,5.8619,space,0.2362,0,11,11,4,1,5,image/5.jpg,0,0,,R_7mRgBYfm8mjMQG1,2,2024-05-30_15h46.15.648,face trait task,2021.2.3,MacIntel,62.11180124,120763,,,,,,,
,,,,,,3.801328125,5.4624,space,0.3625,0,12,12,13,1,14,image/14.jpg,0,0,,R_7mRgBYfm8mjMQG1,2,2024-05-30_15h46.15.648,face trait task,2021.2.3,MacIntel,62.11180124,120763,,,,,,,
,,,,,,3.995442708,6.0464,space,0.3935,0,13,13,36,1,37,image/37.jpg,0,0,,R_7mRgBYfm8mjMQG1,2,2024-05-30_15h46.15.648,face trait task,2021.2.3,MacIntel,62.11180124,120763,,,,,,,
,,,,,,3.997447917,4.5973,space,1.1444,0,14,14,7,1,8,image/8.jpg,0,0,,R_7mRgBYfm8mjMQG1,2,2024-05-30_15h46.15.648,face trait task,2021.2.3,MacIntel,62.11180124,120763,,,,,,,
,,,,,,3.315,3.626,space,0.9516,0,15,15,37,1,38,image/38.jpg,0,0,,R_7mRgBYfm8mjMQG1,2,2024-05-30_15h46.15.648,face trait task,2021.2.3,MacIntel,62.11180124,120763,,,,,,,
,,,,,,2.996953125,2.5003,space,1.0311,0,16,16,3,1,4,image/4.jpg,0,0,,R_7mRgBYfm8mjMQG1,2,2024-05-30_15h46.15.648,face trait task,2021.2.3,MacIntel,62.11180124,120763,,,,,,,
,,,,,,4.376119792,3.2136,space,2.163,0,17,17,18,1,19,image/19.jpg,0,0,,R_7mRgBYfm8mjMQG1,2,2024-05-30_15h46.15.648,face trait task,2021.2.3,MacIntel,62.11180124,120763,,,,,,,
,,,,,,4.003359375,3.4181,space,0.3034,0,18,18,12,1,13,image/13.jpg,0,0,,R_7mRgBYfm8mjMQG1,2,2024-05-30_15h46.15.648,face trait task,2021.2.3,MacIntel,62.11180124,120763,,,,,,,
,,,,,,3.750182292,3.3657,space,0.5845,0,19,19,0,1,1,image/1.jpg,0,0,,R_7mRgBYfm8mjMQG1,2,2024-05-30_15h46.15.648,face trait task,2021.2.3,MacIntel,62.11180124,120763,,,,,,,
,,,,,,7,4.0435,space,1.477,0,20,20,52,1,61,image/fill_img.png,1,7,Please move the slider all the way to the RIGHT to show that you are paying attention.,R_7mRgBYfm8mjMQG1,2,2024-05-30_15h46.15.648,face trait task,2021.2.3,MacIntel,62.11180124,120763,,,,,,,
,,,,,,3.795807292,5.4896,space,0.4785,0,21,21,34,1,35,image/35.jpg,0,0,,R_7mRgBYfm8mjMQG1,2,2024-05-30_15h46.15.648,face trait task,2021.2.3,MacIntel,62.11180124,120763,,,,,,,
,,,,,,3.819635417,3.8634,space,0.2525,0,22,22,46,1,47,image/47.jpg,0,0,,R_7mRgBYfm8mjMQG1,2,2024-05-30_15h46.15.648,face trait task,2021.2.3,MacIntel,62.11180124,120763,,,,,,,
,,,,,,1,2.8318,space,1.1749,0,23,23,51,1,51,image/fill_img.png,1,1,Please move the slider all the way to the LEFT to show that you are paying attention.,R_7mRgBYfm8mjMQG1,2,2024-05-30_15h46.15.648,face trait task,2021.2.3,MacIntel,62.11180124,120763,,,,,,,
,,,,,,4.00765625,5.8973,space,0.3747,0,24,24,35,1,36,image/36.jpg,0,0,,R_7mRgBYfm8mjMQG1,2,2024-05-30_15h46.15.648,face trait task,2021.2.3,MacIntel,62.11180124,120763,,,,,,,
,,,,,,3.740859375,4.2214,space,0.7618,0,25,25,26,1,27,image/27.jpg,0,0,,R_7mRgBYfm8mjMQG1,2,2024-05-30_15h46.15.648,face trait task,2021.2.3,MacIntel,62.11180124,120763,,,,,,,
,,,,,,3.633151042,4.8081,space,0.54,0,26,26,47,1,48,image/48.jpg,0,0,,R_7mRgBYfm8mjMQG1,2,2024-05-30_15h46.15.648,face trait task,2021.2.3,MacIntel,62.11180124,120763,,,,,,,
,,,,,,3.402057292,4.6465,space,0.2512,0,27,27,5,1,6,image/6.jpg,0,0,,R_7mRgBYfm8mjMQG1,2,2024-05-30_15h46.15.648,face trait task,2021.2.3,MacIntel,62.11180124,120763,,,,,,,
,,,,,,3.996796875,4.3951,space,0.2979,0,28,28,24,1,25,image/25.jpg,0,0,,R_7mRgBYfm8mjMQG1,2,2024-05-30_15h46.15.648,face trait task,2021.2.3,MacIntel,62.11180124,120763,,,,,,,
,,,,,,3.815677083,4.2575,space,0.592,0,29,29,29,1,30,image/30.jpg,0,0,,R_7mRgBYfm8mjMQG1,2,2024-05-30_15h46.15.648,face trait task,2021.2.3,MacIntel,62.11180124,120763,,,,,,,
,,,,,,4.128307292,5.8469,space,2.0571,0,30,30,43,1,44,image/44.jpg,0,0,,R_7mRgBYfm8mjMQG1,2,2024-05-30_15h46.15.648,face trait task,2021.2.3,MacIntel,62.11180124,120763,,,,,,,
,,,,,,3.994635417,5.8116,space,3.4408,0,31,31,21,1,22,image/22.jpg,0,0,,R_7mRgBYfm8mjMQG1,2,2024-05-30_15h46.15.648,face trait task,2021.2.3,MacIntel,62.11180124,120763,,,,,,,
,,,,,,3.960442708,5.8785,space,2.8937,0,32,32,19,1,20,image/20.jpg,0,0,,R_7mRgBYfm8mjMQG1,2,2024-05-30_15h46.15.648,face trait task,2021.2.3,MacIntel,62.11180124,120763,,,,,,,
,,,,,,4.321302083,4.3896,space,1.1792,0,33,33,30,1,31,image/31.jpg,0,0,,R_7mRgBYfm8mjMQG1,2,2024-05-30_15h46.15.648,face trait task,2021.2.3,MacIntel,62.11180124,120763,,,,,,,
,,,,,,3.243229167,5.8748,space,0.3065,0,34,34,10,1,11,image/11.jpg,0,0,,R_7mRgBYfm8mjMQG1,2,2024-05-30_15h46.15.648,face trait task,2021.2.3,MacIntel,62.11180124,120763,,,,,,,
,,,,,,4.11,5.7283,space,0.4686,0,35,35,20,1,21,image/21.jpg,0,0,,R_7mRgBYfm8mjMQG1,2,2024-05-30_15h46.15.648,face trait task,2021.2.3,MacIntel,62.11180124,120763,,,,,,,
,,,,,,3.768567708,3.4545,space,0.3668,0,36,36,39,1,40,image/40.jpg,0,0,,R_7mRgBYfm8mjMQG1,2,2024-05-30_15h46.15.648,face trait task,2021.2.3,MacIntel,62.11180124,120763,,,,,,,
,,,,,,3.004479167,3.9689,space,0.4688,0,37,37,11,1,12,image/12.jpg,0,0,,R_7mRgBYfm8mjMQG1,2,2024-05-30_15h46.15.648,face trait task,2021.2.3,MacIntel,62.11180124,120763,,,,,,,
,,,,,,3.198802083,7.0912,space,3.7193,0,38,38,25,1,26,image/26.jpg,0,0,,R_7mRgBYfm8mjMQG1,2,2024-05-30_15h46.15.648,face trait task,2021.2.3,MacIntel,62.11180124,120763,,,,,,,
,,,,,,2.943854167,7.0469,space,3.6001,0,39,39,6,1,7,image/7.jpg,0,0,,R_7mRgBYfm8mjMQG1,2,2024-05-30_15h46.15.648,face trait task,2021.2.3,MacIntel,62.11180124,120763,,,,,,,
,,,,,,3.923463542,3.1456,space,1.4678,0,40,40,16,1,17,image/17.jpg,0,0,,R_7mRgBYfm8mjMQG1,2,2024-05-30_15h46.15.648,face trait task,2021.2.3,MacIntel,62.11180124,120763,,,,,,,
,,,,,,7,2.9513,space,1.4849,0,41,41,50,1,60,image/fill_img.png,1,7,Please move the slider all the way to the RIGHT to show that you are paying attention.,R_7mRgBYfm8mjMQG1,2,2024-05-30_15h46.15.648,face trait task,2021.2.3,MacIntel,62.11180124,120763,,,,,,,
,,,,,,3.925130208,4.8488,space,1.9687,0,42,42,31,1,32,image/32.jpg,0,0,,R_7mRgBYfm8mjMQG1,2,2024-05-30_15h46.15.648,face trait task,2021.2.3,MacIntel,62.11180124,120763,,,,,,,
,,,,,,3.492239583,3.5909,space,0.9235,0,43,43,23,1,24,image/24.jpg,0,0,,R_7mRgBYfm8mjMQG1,2,2024-05-30_15h46.15.648,face trait task,2021.2.3,MacIntel,62.11180124,120763,,,,,,,
,,,,,,3.930104167,4.7894,space,0.6595,0,44,44,8,1,9,image/9.jpg,0,0,,R_7mRgBYfm8mjMQG1,2,2024-05-30_15h46.15.648,face trait task,2021.2.3,MacIntel,62.11180124,120763,,,,,,,
,,,,,,3.666458333,2.7946,space,2.619,0,45,45,28,1,29,image/29.jpg,0,0,,R_7mRgBYfm8mjMQG1,2,2024-05-30_15h46.15.648,face trait task,2021.2.3,MacIntel,62.11180124,120763,,,,,,,
,,,,,,2.978932292,10.5957,space,0.3419,0,46,46,2,1,3,image/3.jpg,0,0,,R_7mRgBYfm8mjMQG1,2,2024-05-30_15h46.15.648,face trait task,2021.2.3,MacIntel,62.11180124,120763,,,,,,,
,,,,,,3.855260417,4.4916,space,0.5174,0,47,47,41,1,42,image/42.jpg,0,0,,R_7mRgBYfm8mjMQG1,2,2024-05-30_15h46.15.648,face trait task,2021.2.3,MacIntel,62.11180124,120763,,,,,,,
,,,,,,4.004322917,2.9028,space,0.5515,0,48,48,17,1,18,image/18.jpg,0,0,,R_7mRgBYfm8mjMQG1,2,2024-05-30_15h46.15.648,face trait task,2021.2.3,MacIntel,62.11180124,120763,,,,,,,
,,,,,,3.45328125,3.8234,space,0.4493,0,49,49,1,1,2,image/2.jpg,0,0,,R_7mRgBYfm8mjMQG1,2,2024-05-30_15h46.15.648,face trait task,2021.2.3,MacIntel,62.11180124,120763,,,,,,,
,,,,,,3.290052083,2.4796,space,0.2859,0,50,50,9,1,10,image/10.jpg,0,0,,R_7mRgBYfm8mjMQG1,2,2024-05-30_15h46.15.648,face trait task,2021.2.3,MacIntel,62.11180124,120763,,,,,,,
,,,,,,3.686197917,4.8099,space,0.3128,0,51,51,44,1,45,image/45.jpg,0,0,,R_7mRgBYfm8mjMQG1,2,2024-05-30_15h46.15.648,face trait task,2021.2.3,MacIntel,62.11180124,120763,,,,,,,
,,,,,,3.909322917,3.1135,space,2.3239,0,52,52,14,1,15,image/15.jpg,0,0,,R_7mRgBYfm8mjMQG1,2,2024-05-30_15h46.15.648,face trait task,2021.2.3,MacIntel,62.11180124,120763,,,,,,,
,,,,,,,,,,,,,,,,,,,,R_7mRgBYfm8mjMQG1,2,2024-05-30_15h46.15.648,face trait task,2021.2.3,MacIntel,62.11180124,120763,0,1,1,2,1,2,trustworthy.png
,,,,,competent,1,2.6594,space,1.7022,0,0,0,51,1,51,image/fill_img.png,1,1,Please move the slider all the way to the LEFT to show that you are paying attention.,R_7mRgBYfm8mjMQG1,2,2024-05-30_15h46.15.648,face trait task,2021.2.3,MacIntel,62.11180124,120763,,,,,,,
,,,,,,4.352421875,2.9136,space,2.8197,0,1,1,20,1,21,image/21.jpg,0,0,,R_7mRgBYfm8mjMQG1,2,2024-05-30_15h46.15.648,face trait task,2021.2.3,MacIntel,62.11180124,120763,,,,,,,
,,,,,,3.782708333,1.9216,space,1.1138,0,2,2,49,1,50,image/50.jpg,0,0,,R_7mRgBYfm8mjMQG1,2,2024-05-30_15h46.15.648,face trait task,2021.2.3,MacIntel,62.11180124,120763,,,,,,,
,,,,,,4.558151042,6.0347,space,0.5181,0,3,3,26,1,27,image/27.jpg,0,0,,R_7mRgBYfm8mjMQG1,2,2024-05-30_15h46.15.648,face trait task,2021.2.3,MacIntel,62.11180124,120763,,,,,,,
,,,,,,7,3.1809,space,1.3679,0,4,4,50,1,60,image/fill_img.png,1,7,Please move the slider all the way to the RIGHT to show that you are paying attention.,R_7mRgBYfm8mjMQG1,2,2024-05-30_15h46.15.648,face trait task,2021.2.3,MacIntel,62.11180124,120763,,,,,,,
,,,,,,4.2575,3.577,space,1.1357,0,5,5,10,1,11,image/11.jpg,0,0,,R_7mRgBYfm8mjMQG1,2,2024-05-30_15h46.15.648,face trait task,2021.2.3,MacIntel,62.11180124,120763,,,,,,,
,,,,,,3.286848958,2.3303,space,0.6146,0,6,6,23,1,24,image/24.jpg,0,0,,R_7mRgBYfm8mjMQG1,2,2024-05-30_15h46.15.648,face trait task,2021.2.3,MacIntel,62.11180124,120763,,,,,,,
,,,,,,3.708307292,3.4932,space,1.777,0,7,7,41,1,42,image/42.jpg,0,0,,R_7mRgBYfm8mjMQG1,2,2024-05-30_15h46.15.648,face trait task,2021.2.3,MacIntel,62.11180124,120763,,,,,,,
,,,,,,3.995807292,3.5292,space,0.3566,0,8,8,19,1,20,image/20.jpg,0,0,,R_7mRgBYfm8mjMQG1,2,2024-05-30_15h46.15.648,face trait task,2021.2.3,MacIntel,62.11180124,120763,,,,,,,
,,,,,,2.794088542,2.3505,space,1.7518,0,9,9,47,1,48,image/48.jpg,0,0,,R_7mRgBYfm8mjMQG1,2,2024-05-30_15h46.15.648,face trait task,2021.2.3,MacIntel,62.11180124,120763,,,,,,,
,,,,,,3.9925,4.7774,space,0.3999,0,10,10,9,1,10,image/10.jpg,0,0,,R_7mRgBYfm8mjMQG1,2,2024-05-30_15h46.15.648,face trait task,2021.2.3,MacIntel,62.11180124,120763,,,,,,,
,,,,,,3.139036458,2.58,space,1.18,0,11,11,38,1,39,image/39.jpg,0,0,,R_7mRgBYfm8mjMQG1,2,2024-05-30_15h46.15.648,face trait task,2021.2.3,MacIntel,62.11180124,120763,,,,,,,
,,,,,,2.764635417,1.769,space,0.4881,0,12,12,2,1,3,image/3.jpg,0,0,,R_7mRgBYfm8mjMQG1,2,2024-05-30_15h46.15.648,face trait task,2021.2.3,MacIntel,62.11180124,120763,,,,,,,
,,,,,,4.006354167,2.2455,space,0.9535,0,13,13,21,1,22,image/22.jpg,0,0,,R_7mRgBYfm8mjMQG1,2,2024-05-30_15h46.15.648,face trait task,2021.2.3,MacIntel,62.11180124,120763,,,,,,,
,,,,,,4.186927083,3.8144,space,1.9074,0,14,14,17,1,18,image/18.jpg,0,0,,R_7mRgBYfm8mjMQG1,2,2024-05-30_15h46.15.648,face trait task,2021.2.3,MacIntel,62.11180124,120763,,,,,,,
,,,,,,3.675885417,10.7747,space,3.5767,0,15,15,16,1,17,image/17.jpg,0,0,,R_7mRgBYfm8mjMQG1,2,2024-05-30_15h46.15.648,face trait task,2021.2.3,MacIntel,62.11180124,120763,,,,,,,
,,,,,,3.599583333,3.546,space,0.4845,0,16,16,42,1,43,image/43.jpg,0,0,,R_7mRgBYfm8mjMQG1,2,2024-05-30_15h46.15.648,face trait task,2021.2.3,MacIntel,62.11180124,120763,,,,,,,
,,,,,,3.985885417,3.6124,space,0.3435,0,17,17,4,1,5,image/5.jpg,0,0,,R_7mRgBYfm8mjMQG1,2,2024-05-30_15h46.15.648,face trait task,2021.2.3,MacIntel,62.11180124,120763,,,,,,,
,,,,,,7,2.78,space,1.2183,0,18,18,52,1,61,image/fill_img.png,1,7,Please move the slider all the way to the RIGHT to show that you are paying attention.,R_7mRgBYfm8mjMQG1,2,2024-05-30_15h46.15.648,face trait task,2021.2.3,MacIntel,62.11180124,120763,,,,,,,
,,,,,,3.984973958,4.4177,space,1.3046,0,19,19,5,1,6,image/6.jpg,0,0,,R_7mRgBYfm8mjMQG1,2,2024-05-30_15h46.15.648,face trait task,2021.2.3,MacIntel,62.11180124,120763,,,,,,,
,,,,,,2.478307292,2.2962,space,0.7518,0,20,20,33,1,34,image/34.jpg,0,0,,R_7mRgBYfm8mjMQG1,2,2024-05-30_15h46.15.648,face trait task,2021.2.3,MacIntel,62.11180124,120763,,,,,,,
,,,,,,4.003125,6.403,space,0.3718,0,21,21,25,1,26,image/26.jpg,0,0,,R_7mRgBYfm8mjMQG1,2,2024-05-30_15h46.15.648,face trait task,2021.2.3,MacIntel,62.11180124,120763,,,,,,,
,,,,,,2.916640625,4.7417,space,0.2228,0,22,22,24,1,25,image/25.jpg,0,0,,R_7mRgBYfm8mjMQG1,2,2024-05-30_15h46.15.648,face trait task,2021.2.3,MacIntel,62.11180124,120763,,,,,,,
,,,,,,4.293385417,4.6268,space,0.3021,0,23,23,30,1,31,image/31.jpg,0,0,,R_7mRgBYfm8mjMQG1,2,2024-05-30_15h46.15.648,face trait task,2021.2.3,MacIntel,62.11180124,120763,,,,,,,
,,,,,,2.71421875,3.5907,space,0.5915,0,24,24,32,1,33,image/33.jpg,0,0,,R_7mRgBYfm8mjMQG1,2,2024-05-30_15h46.15.648,face trait task,2021.2.3,MacIntel,62.11180124,120763,,,,,,,
,,,,,,4.170078125,3.9633,space,0.6246,0,25,25,7,1,8,image/8.jpg,0,0,,R_7mRgBYfm8mjMQG1,2,2024-05-30_15h46.15.648,face trait task,2021.2.3,MacIntel,62.11180124,120763,,,,,,,
,,,,,,3.668307292,3.7408,space,0.4293,0,26,26,44,1,45,image/45.jpg,0,0,,R_7mRgBYfm8mjMQG1,2,2024-05-30_15h46.15.648,face trait task,2021.2.3,MacIntel,62.11180124,120763,,,,,,,
,,,,,,3.506927083,3.8622,space,1.2355,0,27,27,14,1,15,image/15.jpg,0,0,,R_7mRgBYfm8mjMQG1,2,2024-05-30_15h46.15.648,face trait task,2021.2.3,MacIntel,62.11180124,120763,,,,,,,
,,,,,,3.152916667,6.4396,space,0.3444,0,28,28,48,1,49,image/49.jpg,0,0,,R_7mRgBYfm8mjMQG1,2,2024-05-30_15h46.15.648,face trait task,2021.2.3,MacIntel,62.11180124,120763,,,,,,,
,,,,,,3.7209375,3.0088,space,1.7371,0,29,29,45,1,46,image/46.jpg,0,0,,R_7mRgBYfm8mjMQG1,2,2024-05-30_15h46.15.648,face trait task,2021.2.3,MacIntel,62.11180124,120763,,,,,,,
,,,,,,2.998697917,3.8915,space,0.1894,0,30,30,15,1,16,image/16.jpg,0,0,,R_7mRgBYfm8mjMQG1,2,2024-05-30_15h46.15.648,face trait task,2021.2.3,MacIntel,62.11180124,120763,,,,,,,
,,,,,,4.573125,6.2068,space,0.7595,0,31,31,8,1,9,image/9.jpg,0,0,,R_7mRgBYfm8mjMQG1,2,2024-05-30_15h46.15.648,face trait task,2021.2.3,MacIntel,62.11180124,120763,,,,,,,
,,,,,,4.455390625,3.9256,space,0.4684,0,32,32,34,1,35,image/35.jpg,0,0,,R_7mRgBYfm8mjMQG1,2,2024-05-30_15h46.15.648,face trait task,2021.2.3,MacIntel,62.11180124,120763,,,,,,,
,,,,,,4.568203125,4.397,space,0.539,0,33,33,1,1,2,image/2.jpg,0,0,,R_7mRgBYfm8mjMQG1,2,2024-05-30_15h46.15.648,face trait task,2021.2.3,MacIntel,62.11180124,120763,,,,,,,
,,,,,,3.567447917,4.0397,space,0.6086,0,34,34,37,1,38,image/38.jpg,0,0,,R_7mRgBYfm8mjMQG1,2,2024-05-30_15h46.15.648,face trait task,2021.2.3,MacIntel,62.11180124,120763,,,,,,,
,,,,,,3.687916667,3.8271,space,0.3901,0,35,35,0,1,1,image/1.jpg,0,0,,R_7mRgBYfm8mjMQG1,2,2024-05-30_15h46.15.648,face trait task,2021.2.3,MacIntel,62.11180124,120763,,,,,,,
,,,,,,3.344895833,4.3637,space,0.3688,0,36,36,40,1,41,image/41.jpg,0,0,,R_7mRgBYfm8mjMQG1,2,2024-05-30_15h46.15.648,face trait task,2021.2.3,MacIntel,62.11180124,120763,,,,,,,
,,,,,,3.981328125,8.7308,space,0.3693,0,37,37,28,1,29,image/29.jpg,0,0,,R_7mRgBYfm8mjMQG1,2,2024-05-30_15h46.15.648,face trait task,2021.2.3,MacIntel,62.11180124,120763,,,,,,,
,,,,,,5.021822917,6.013,space,1.74,0,38,38,35,1,36,image/36.jpg,0,0,,R_7mRgBYfm8mjMQG1,2,2024-05-30_15h46.15.648,face trait task,2021.2.3,MacIntel,62.11180124,120763,,,,,,,
,,,,,,4.071354167,2.9074,space,0.2902,0,39,39,12,1,13,image/13.jpg,0,0,,R_7mRgBYfm8mjMQG1,2,2024-05-30_15h46.15.648,face trait task,2021.2.3,MacIntel,62.11180124,120763,,,,,,,
,,,,,,3.386979167,1.9961,space,0.4642,0,40,40,13,1,14,image/14.jpg,0,0,,R_7mRgBYfm8mjMQG1,2,2024-05-30_15h46.15.648,face trait task,2021.2.3,MacIntel,62.11180124,120763,,,,,,,
,,,,,,4.168854167,5.4593,space,0.4252,0,41,41,46,1,47,image/47.jpg,0,0,,R_7mRgBYfm8mjMQG1,2,2024-05-30_15h46.15.648,face trait task,2021.2.3,MacIntel,62.11180124,120763,,,,,,,
,,,,,,4.501145833,3.2284,space,0.568,0,42,42,18,1,19,image/19.jpg,0,0,,R_7mRgBYfm8mjMQG1,2,2024-05-30_15h46.15.648,face trait task,2021.2.3,MacIntel,62.11180124,120763,,,,,,,
,,,,,,3.988932292,3.5983,space,0.2888,0,43,43,27,1,28,image/28.jpg,0,0,,R_7mRgBYfm8mjMQG1,2,2024-05-30_15h46.15.648,face trait task,2021.2.3,MacIntel,62.11180124,120763,,,,,,,
,,,,,,3.582447917,3.9898,space,0.4465,0,44,44,6,1,7,image/7.jpg,0,0,,R_7mRgBYfm8mjMQG1,2,2024-05-30_15h46.15.648,face trait task,2021.2.3,MacIntel,62.11180124,120763,,,,,,,
,,,,,,3.567239583,5.3076,space,0.4776,0,45,45,36,1,37,image/37.jpg,0,0,,R_7mRgBYfm8mjMQG1,2,2024-05-30_15h46.15.648,face trait task,2021.2.3,MacIntel,62.11180124,120763,,,,,,,
,,,,,,4.001614583,4.1518,space,0.3049,0,46,46,3,1,4,image/4.jpg,0,0,,R_7mRgBYfm8mjMQG1,2,2024-05-30_15h46.15.648,face trait task,2021.2.3,MacIntel,62.11180124,120763,,,,,,,
,,,,,,3.257604167,2.7483,space,0.4842,0,47,47,11,1,12,image/12.jpg,0,0,,R_7mRgBYfm8mjMQG1,2,2024-05-30_15h46.15.648,face trait task,2021.2.3,MacIntel,62.11180124,120763,,,,,,,
,,,,,,4.082005208,4.8082,space,0.6706,0,48,48,39,1,40,image/40.jpg,0,0,,R_7mRgBYfm8mjMQG1,2,2024-05-30_15h46.15.648,face trait task,2021.2.3,MacIntel,62.11180124,120763,,,,,,,
,,,,,,3.904921875,3.8763,space,0.2547,0,49,49,31,1,32,image/32.jpg,0,0,,R_7mRgBYfm8mjMQG1,2,2024-05-30_15h46.15.648,face trait task,2021.2.3,MacIntel,62.11180124,120763,,,,,,,
,,,,,,3.779713542,4.5795,space,0.3309,0,50,50,29,1,30,image/30.jpg,0,0,,R_7mRgBYfm8mjMQG1,2,2024-05-30_15h46.15.648,face trait task,2021.2.3,MacIntel,62.11180124,120763,,,,,,,
,,,,,,3.513958333,6.5516,space,1.4025,0,51,51,22,1,23,image/23.jpg,0,0,,R_7mRgBYfm8mjMQG1,2,2024-05-30_15h46.15.648,face trait task,2021.2.3,MacIntel,62.11180124,120763,,,,,,,
,,,,,,4.103880208,2.6655,space,0.5018,0,52,52,43,1,44,image/44.jpg,0,0,,R_7mRgBYfm8mjMQG1,2,2024-05-30_15h46.15.648,face trait task,2021.2.3,MacIntel,62.11180124,120763,,,,,,,
,,,,,,,,,,,,,,,,,,,,R_7mRgBYfm8mjMQG1,2,2024-05-30_15h46.15.648,face trait task,2021.2.3,MacIntel,62.11180124,120763,0,2,2,1,1,1,competent.png
,,,,,friendly,2.978958333,5.3038,space,2.9531,0,0,0,13,1,14,image/14.jpg,0,0,,R_7mRgBYfm8mjMQG1,2,2024-05-30_15h46.15.648,face trait task,2021.2.3,MacIntel,62.11180124,120763,,,,,,,
,,,,,,3.798307292,3.598,space,0.7009,0,1,1,20,1,21,image/21.jpg,0,0,,R_7mRgBYfm8mjMQG1,2,2024-05-30_15h46.15.648,face trait task,2021.2.3,MacIntel,62.11180124,120763,,,,,,,
,,,,,,3.997734375,3.8136,space,0.2947,0,2,2,41,1,42,image/42.jpg,0,0,,R_7mRgBYfm8mjMQG1,2,2024-05-30_15h46.15.648,face trait task,2021.2.3,MacIntel,62.11180124,120763,,,,,,,
,,,,,,3.521067708,4.7278,space,0.593,0,3,3,30,1,31,image/31.jpg,0,0,,R_7mRgBYfm8mjMQG1,2,2024-05-30_15h46.15.648,face trait task,2021.2.3,MacIntel,62.11180124,120763,,,,,,,
,,,,,,3.983697917,3.4851,space,0.3686,0,4,4,43,1,44,image/44.jpg,0,0,,R_7mRgBYfm8mjMQG1,2,2024-05-30_15h46.15.648,face trait task,2021.2.3,MacIntel,62.11180124,120763,,,,,,,
,,,,,,4.994427083,2.8276,space,0.4013,0,5,5,24,1,25,image/25.jpg,0,0,,R_7mRgBYfm8mjMQG1,2,2024-05-30_15h46.15.648,face trait task,2021.2.3,MacIntel,62.11180124,120763,,,,,,,
,,,,,,3.017630208,2.4978,space,0.4864,0,6,6,1,1,2,image/2.jpg,0,0,,R_7mRgBYfm8mjMQG1,2,2024-05-30_15h46.15.648,face trait task,2021.2.3,MacIntel,62.11180124,120763,,,,,,,
,,,,,,3.609609375,2.4808,space,0.5546,0,7,7,48,1,49,image/49.jpg,0,0,,R_7mRgBYfm8mjMQG1,2,2024-05-30_15h46.15.648,face trait task,2021.2.3,MacIntel,62.11180124,120763,,,,,,,
,,,,,,3.181354167,2.3835,space,0.3735,0,8,8,15,1,16,image/16.jpg,0,0,,R_7mRgBYfm8mjMQG1,2,2024-05-30_15h46.15.648,face trait task,2021.2.3,MacIntel,62.11180124,120763,,,,,,,
,,,,,,7,2.8648,space,1.9688,0,9,9,52,1,61,image/fill_img.png,1,7,Please move the slider all the way to the RIGHT to show that you are paying attention.,R_7mRgBYfm8mjMQG1,2,2024-05-30_15h46.15.648,face trait task,2021.2.3,MacIntel,62.11180124,120763,,,,,,,
,,,,,,3.355416667,1.9938,space,0.641,0,10,10,45,1,46,image/46.jpg,0,0,,R_7mRgBYfm8mjMQG1,2,2024-05-30_15h46.15.648,face trait task,2021.2.3,MacIntel,62.11180124,120763,,,,,,,
,,,,,,3.476432292,4.4474,space,1.8151,0,11,11,25,1,26,image/26.jpg,0,0,,R_7mRgBYfm8mjMQG1,2,2024-05-30_15h46.15.648,face trait task,2021.2.3,MacIntel,62.11180124,120763,,,,,,,
,,,,,,4.241848958,2.5679,space,0.6358,0,12,12,28,1,29,image/29.jpg,0,0,,R_7mRgBYfm8mjMQG1,2,2024-05-30_15h46.15.648,face trait task,2021.2.3,MacIntel,62.11180124,120763,,,,,,,
,,,,,,3.615494792,3.2477,space,0.598,0,13,13,37,1,38,image/38.jpg,0,0,,R_7mRgBYfm8mjMQG1,2,2024-05-30_15h46.15.648,face trait task,2021.2.3,MacIntel,62.11180124,120763,,,,,,,
,,,,,,3.994296875,2.6831,space,0.3184,0,14,14,5,1,6,image/6.jpg,0,0,,R_7mRgBYfm8mjMQG1,2,2024-05-30_15h46.15.648,face trait task,2021.2.3,MacIntel,62.11180124,120763,,,,,,,
,,,,,,3.682161458,3.8022,space,0.4632,0,15,15,14,1,15,image/15.jpg,0,0,,R_7mRgBYfm8mjMQG1,2,2024-05-30_15h46.15.648,face trait task,2021.2.3,MacIntel,62.11180124,120763,,,,,,,
,,,,,,4.422578125,3.0147,space,0.5065,0,16,16,10,1,11,image/11.jpg,0,0,,R_7mRgBYfm8mjMQG1,2,2024-05-30_15h46.15.648,face trait task,2021.2.3,MacIntel,62.11180124,120763,,,,,,,
,,,,,,3.605598958,2.1511,space,0.5542,0,17,17,4,1,5,image/5.jpg,0,0,,R_7mRgBYfm8mjMQG1,2,2024-05-30_15h46.15.648,face trait task,2021.2.3,MacIntel,62.11180124,120763,,,,,,,
,,,,,,3.739791667,6.5797,space,4.8525,0,18,18,9,1,10,image/10.jpg,0,0,,R_7mRgBYfm8mjMQG1,2,2024-05-30_15h46.15.648,face trait task,2021.2.3,MacIntel,62.11180124,120763,,,,,,,
,,,,,,4.002317708,3.3675,space,0.3169,0,19,19,17,1,18,image/18.jpg,0,0,,R_7mRgBYfm8mjMQG1,2,2024-05-30_15h46.15.648,face trait task,2021.2.3,MacIntel,62.11180124,120763,,,,,,,
,,,,,,3.676432292,2.7309,space,0.4208,0,20,20,21,1,22,image/22.jpg,0,0,,R_7mRgBYfm8mjMQG1,2,2024-05-30_15h46.15.648,face trait task,2021.2.3,MacIntel,62.11180124,120763,,,,,,,
,,,,,,3.451302083,3.6634,space,0.5647,0,21,21,34,1,35,image/35.jpg,0,0,,R_7mRgBYfm8mjMQG1,2,2024-05-30_15h46.15.648,face trait task,2021.2.3,MacIntel,62.11180124,120763,,,,,,,
,,,,,,3.462395833,2.5792,space,0.6312,0,22,22,19,1,20,image/20.jpg,0,0,,R_7mRgBYfm8mjMQG1,2,2024-05-30_15h46.15.648,face trait task,2021.2.3,MacIntel,62.11180124,120763,,,,,,,
,,,,,,7,2.7263,space,1.7867,0,23,23,50,1,60,image/fill_img.png,1,7,Please move the slider all the way to the RIGHT to show that you are paying attention.,R_7mRgBYfm8mjMQG1,2,2024-05-30_15h46.15.648,face trait task,2021.2.3,MacIntel,62.11180124,120763,,,,,,,
,,,,,,3.985911458,3.369,space,0.7484,0,24,24,36,1,37,image/37.jpg,0,0,,R_7mRgBYfm8mjMQG1,2,2024-05-30_15h46.15.648,face trait task,2021.2.3,MacIntel,62.11180124,120763,,,,,,,
,,,,,,4.162057292,3.2121,space,0.4669,0,25,25,22,1,23,image/23.jpg,0,0,,R_7mRgBYfm8mjMQG1,2,2024-05-30_15h46.15.648,face trait task,2021.2.3,MacIntel,62.11180124,120763,,,,,,,
,,,,,,4.559947917,3.5865,space,1.5132,0,26,26,26,1,27,image/27.jpg,0,0,,R_7mRgBYfm8mjMQG1,2,2024-05-30_15h46.15.648,face trait task,2021.2.3,MacIntel,62.11180124,120763,,,,,,,
,,,,,,4.159114583,3.8617,space,1.5152,0,27,27,23,1,24,image/24.jpg,0,0,,R_7mRgBYfm8mjMQG1,2,2024-05-30_15h46.15.648,face trait task,2021.2.3,MacIntel,62.11180124,120763,,,,,,,
,,,,,,3.2528125,2.8609,space,0.4611,0,28,28,8,1,9,image/9.jpg,0,0,,R_7mRgBYfm8mjMQG1,2,2024-05-30_15h46.15.648,face trait task,2021.2.3,MacIntel,62.11180124,120763,,,,,,,
,,,,,,3.369635417,2.5119,space,0.6416,0,29,29,2,1,3,image/3.jpg,0,0,,R_7mRgBYfm8mjMQG1,2,2024-05-30_15h46.15.648,face trait task,2021.2.3,MacIntel,62.11180124,120763,,,,,,,
,,,,,,3.3909375,2.5128,space,0.4847,0,30,30,0,1,1,image/1.jpg,0,0,,R_7mRgBYfm8mjMQG1,2,2024-05-30_15h46.15.648,face trait task,2021.2.3,MacIntel,62.11180124,120763,,,,,,,
,,,,,,3.906276042,2.4799,space,0.5805,0,31,31,35,1,36,image/36.jpg,0,0,,R_7mRgBYfm8mjMQG1,2,2024-05-30_15h46.15.648,face trait task,2021.2.3,MacIntel,62.11180124,120763,,,,,,,
,,,,,,3.790104167,2.7315,space,0.8542,0,32,32,44,1,45,image/45.jpg,0,0,,R_7mRgBYfm8mjMQG1,2,2024-05-30_15h46.15.648,face trait task,2021.2.3,MacIntel,62.11180124,120763,,,,,,,
,,,,,,4.18125,3.3456,space,0.5682,0,33,33,47,1,48,image/48.jpg,0,0,,R_7mRgBYfm8mjMQG1,2,2024-05-30_15h46.15.648,face trait task,2021.2.3,MacIntel,62.11180124,120763,,,,,,,
,,,,,,3.996223958,4.1123,space,0.3239,0,34,34,12,1,13,image/13.jpg,0,0,,R_7mRgBYfm8mjMQG1,2,2024-05-30_15h46.15.648,face trait task,2021.2.3,MacIntel,62.11180124,120763,,,,,,,
,,,,,,3.603541667,2.8513,space,0.4014,0,35,35,40,1,41,image/41.jpg,0,0,,R_7mRgBYfm8mjMQG1,2,2024-05-30_15h46.15.648,face trait task,2021.2.3,MacIntel,62.11180124,120763,,,,,,,
,,,,,,4.005260417,3.0194,space,0.39,0,36,36,42,1,43,image/43.jpg,0,0,,R_7mRgBYfm8mjMQG1,2,2024-05-30_15h46.15.648,face trait task,2021.2.3,MacIntel,62.11180124,120763,,,,,,,
,,,,,,3.82765625,2.3961,space,0.4605,0,37,37,29,1,30,image/30.jpg,0,0,,R_7mRgBYfm8mjMQG1,2,2024-05-30_15h46.15.648,face trait task,2021.2.3,MacIntel,62.11180124,120763,,,,,,,
,,,,,,4.203255208,3.0108,space,0.4142,0,38,38,49,1,50,image/50.jpg,0,0,,R_7mRgBYfm8mjMQG1,2,2024-05-30_15h46.15.648,face trait task,2021.2.3,MacIntel,62.11180124,120763,,,,,,,
,,,,,,3.913776042,2.9592,space,1.3563,0,39,39,16,1,17,image/17.jpg,0,0,,R_7mRgBYfm8mjMQG1,2,2024-05-30_15h46.15.648,face trait task,2021.2.3,MacIntel,62.11180124,120763,,,,,,,
,,,,,,3.772786458,2.1951,space,0.3313,0,40,40,18,1,19,image/19.jpg,0,0,,R_7mRgBYfm8mjMQG1,2,2024-05-30_15h46.15.648,face trait task,2021.2.3,MacIntel,62.11180124,120763,,,,,,,
,,,,,,3.992942708,4.1464,space,0.3064,0,41,41,3,1,4,image/4.jpg,0,0,,R_7mRgBYfm8mjMQG1,2,2024-05-30_15h46.15.648,face trait task,2021.2.3,MacIntel,62.11180124,120763,,,,,,,
,,,,,,3.840442708,3.4444,space,0.3727,0,42,42,39,1,40,image/40.jpg,0,0,,R_7mRgBYfm8mjMQG1,2,2024-05-30_15h46.15.648,face trait task,2021.2.3,MacIntel,62.11180124,120763,,,,,,,
,,,,,,1,2.6112,space,1.4738,0,43,43,51,1,51,image/fill_img.png,1,1,Please move the slider all the way to the LEFT to show that you are paying attention.,R_7mRgBYfm8mjMQG1,2,2024-05-30_15h46.15.648,face trait task,2021.2.3,MacIntel,62.11180124,120763,,,,,,,
,,,,,,3.680078125,2.7855,space,0.4308,0,44,44,32,1,33,image/33.jpg,0,0,,R_7mRgBYfm8mjMQG1,2,2024-05-30_15h46.15.648,face trait task,2021.2.3,MacIntel,62.11180124,120763,,,,,,,
,,,,,,3.570260417,5.8414,space,0.3926,0,45,45,6,1,7,image/7.jpg,0,0,,R_7mRgBYfm8mjMQG1,2,2024-05-30_15h46.15.648,face trait task,2021.2.3,MacIntel,62.11180124,120763,,,,,,,
,,,,,,3.553255208,2.2513,space,0.6153,0,46,46,11,1,12,image/12.jpg,0,0,,R_7mRgBYfm8mjMQG1,2,2024-05-30_15h46.15.648,face trait task,2021.2.3,MacIntel,62.11180124,120763,,,,,,,
,,,,,,4.262291667,2.6806,space,0.4964,0,47,47,27,1,28,image/28.jpg,0,0,,R_7mRgBYfm8mjMQG1,2,2024-05-30_15h46.15.648,face trait task,2021.2.3,MacIntel,62.11180124,120763,,,,,,,
,,,,,,4.35390625,2.6136,space,0.3972,0,48,48,33,1,34,image/34.jpg,0,0,,R_7mRgBYfm8mjMQG1,2,2024-05-30_15h46.15.648,face trait task,2021.2.3,MacIntel,62.11180124,120763,,,,,,,
,,,,,,4.007265625,3.5505,space,1.0153,0,49,49,46,1,47,image/47.jpg,0,0,,R_7mRgBYfm8mjMQG1,2,2024-05-30_15h46.15.648,face trait task,2021.2.3,MacIntel,62.11180124,120763,,,,,,,
,,,,,,3.98890625,5.1781,space,1.1231,0,50,50,38,1,39,image/39.jpg,0,0,,R_7mRgBYfm8mjMQG1,2,2024-05-30_15h46.15.648,face trait task,2021.2.3,MacIntel,62.11180124,120763,,,,,,,
,,,,,,3.8634375,3.9378,space,0.279,0,51,51,7,1,8,image/8.jpg,0,0,,R_7mRgBYfm8mjMQG1,2,2024-05-30_15h46.15.648,face trait task,2021.2.3,MacIntel,62.11180124,120763,,,,,,,
,,,,,,4.01765625,3.3188,space,0.5481,0,52,52,31,1,32,image/32.jpg,0,0,,R_7mRgBYfm8mjMQG1,2,2024-05-30_15h46.15.648,face trait task,2021.2.3,MacIntel,62.11180124,120763,,,,,,,
,,,,,,,,,,,,,,,,,,,,R_7mRgBYfm8mjMQG1,2,2024-05-30_15h46.15.648,face trait task,2021.2.3,MacIntel,62.11180124,120763,0,3,3,3,1,3,friendly.png
