choose_trial,key_resp.keys,key_resp.rt,key_resp_4.keys,key_resp_4.rt,session_trait,slider_face_judge.response,slider_face_judge.rt,key_resp_3.keys,key_resp_3.rt,face_loop.thisRepN,face_loop.thisTrialN,face_loop.thisN,face_loop.thisIndex,face_loop.ran,face_serial,image_name,isCheck,answer,check_question,participant,session,date,expName,psychopyVersion,OS,frameRate,SONAid,session.thisRepN,session.thisTrialN,session.thisN,session.thisIndex,session.ran,session_serial,slider_judge_img
"[0,1,2,3,4,5,6,7,8,9,10,11,12,13,14,15,16,17,18,19,20,21,22,23,24,25,26,27,28,29,30,31,32,33,34,35,36,37,38,39,40,41,42,43,44,45,46,47,48,49,52,56,53]",space,12.2168,space,14.2501,trustworthy,2.987114258,6.2166,space,1.3192,0,0,0,44,1,45,image/45.jpg,0,0,,R_7PRxMH8tgtcALpe,2,2024-05-24_11h38.20.869,face trait task,2021.2.3,MacIntel,30.95975232,120284,,,,,,,
,,,,,,3.969763184,2.8254,space,0.7232,0,1,1,7,1,8,image/8.jpg,0,0,,R_7PRxMH8tgtcALpe,2,2024-05-24_11h38.20.869,face trait task,2021.2.3,MacIntel,30.95975232,120284,,,,,,,
,,,,,,3.421118571,2.9705,space,1.2317,0,2,2,0,1,1,image/1.jpg,0,0,,R_7PRxMH8tgtcALpe,2,2024-05-24_11h38.20.869,face trait task,2021.2.3,MacIntel,30.95975232,120284,,,,,,,
,,,,,,1.029106242,6.5608,space,4.2921,0,3,3,50,1,53,image/fill_img.png,1,1,Please move the slider all the way to the LEFT to show that you are paying attention.,R_7PRxMH8tgtcALpe,2,2024-05-24_11h38.20.869,face trait task,2021.2.3,MacIntel,30.95975232,120284,,,,,,,
,,,,,,4.010430908,2.9019,space,0.7975,0,4,4,21,1,22,image/22.jpg,0,0,,R_7PRxMH8tgtcALpe,2,2024-05-24_11h38.20.869,face trait task,2021.2.3,MacIntel,30.95975232,120284,,,,,,,
,,,,,,4.991242269,2.6658,space,1.2071,0,5,5,33,1,34,image/34.jpg,0,0,,R_7PRxMH8tgtcALpe,2,2024-05-24_11h38.20.869,face trait task,2021.2.3,MacIntel,30.95975232,120284,,,,,,,
,,,,,,4.571082764,2.7036,space,0.8794,0,6,6,25,1,26,image/26.jpg,0,0,,R_7PRxMH8tgtcALpe,2,2024-05-24_11h38.20.869,face trait task,2021.2.3,MacIntel,30.95975232,120284,,,,,,,
,,,,,,5.364961344,3.1698,space,0.9723,0,7,7,31,1,32,image/32.jpg,0,0,,R_7PRxMH8tgtcALpe,2,2024-05-24_11h38.20.869,face trait task,2021.2.3,MacIntel,30.95975232,120284,,,,,,,
,,,,,,3.193739421,2.6023,space,0.7394,0,8,8,2,1,3,image/3.jpg,0,0,,R_7PRxMH8tgtcALpe,2,2024-05-24_11h38.20.869,face trait task,2021.2.3,MacIntel,30.95975232,120284,,,,,,,
,,,,,,2.408160807,2.5425,space,1.2361,0,9,9,36,1,37,image/37.jpg,0,0,,R_7PRxMH8tgtcALpe,2,2024-05-24_11h38.20.869,face trait task,2021.2.3,MacIntel,30.95975232,120284,,,,,,,
,,,,,,3.47316569,2.2902,space,0.6115,0,10,10,29,1,30,image/30.jpg,0,0,,R_7PRxMH8tgtcALpe,2,2024-05-24_11h38.20.869,face trait task,2021.2.3,MacIntel,30.95975232,120284,,,,,,,
,,,,,,4.484056396,2.4019,space,0.8119,0,11,11,20,1,21,image/21.jpg,0,0,,R_7PRxMH8tgtcALpe,2,2024-05-24_11h38.20.869,face trait task,2021.2.3,MacIntel,30.95975232,120284,,,,,,,
,,,,,,3.835704753,7.2706,space,0.8404,0,12,12,6,1,7,image/7.jpg,0,0,,R_7PRxMH8tgtcALpe,2,2024-05-24_11h38.20.869,face trait task,2021.2.3,MacIntel,30.95975232,120284,,,,,,,
,,,,,,3.916516113,3.8696,space,0.8473,0,13,13,5,1,6,image/6.jpg,0,0,,R_7PRxMH8tgtcALpe,2,2024-05-24_11h38.20.869,face trait task,2021.2.3,MacIntel,30.95975232,120284,,,,,,,
,,,,,,4.58779541,4.2714,space,1.2757,0,14,14,27,1,28,image/28.jpg,0,0,,R_7PRxMH8tgtcALpe,2,2024-05-24_11h38.20.869,face trait task,2021.2.3,MacIntel,30.95975232,120284,,,,,,,
,,,,,,5.818191732,3.3413,space,1.0127,0,15,15,10,1,11,image/11.jpg,0,0,,R_7PRxMH8tgtcALpe,2,2024-05-24_11h38.20.869,face trait task,2021.2.3,MacIntel,30.95975232,120284,,,,,,,
,,,,,,5.009374186,2.4538,space,0.6313,0,16,16,23,1,24,image/24.jpg,0,0,,R_7PRxMH8tgtcALpe,2,2024-05-24_11h38.20.869,face trait task,2021.2.3,MacIntel,30.95975232,120284,,,,,,,
,,,,,,4.386899414,3.3721,space,0.5359,0,17,17,46,1,47,image/47.jpg,0,0,,R_7PRxMH8tgtcALpe,2,2024-05-24_11h38.20.869,face trait task,2021.2.3,MacIntel,30.95975232,120284,,,,,,,
,,,,,,3.174549561,3.5667,space,0.6022,0,18,18,37,1,38,image/38.jpg,0,0,,R_7PRxMH8tgtcALpe,2,2024-05-24_11h38.20.869,face trait task,2021.2.3,MacIntel,30.95975232,120284,,,,,,,
,,,,,,5.885755208,3.3181,space,1.1792,0,19,19,48,1,49,image/49.jpg,0,0,,R_7PRxMH8tgtcALpe,2,2024-05-24_11h38.20.869,face trait task,2021.2.3,MacIntel,30.95975232,120284,,,,,,,
,,,,,,5.425111084,2.3611,space,0.7959,0,20,20,24,1,25,image/25.jpg,0,0,,R_7PRxMH8tgtcALpe,2,2024-05-24_11h38.20.869,face trait task,2021.2.3,MacIntel,30.95975232,120284,,,,,,,
,,,,,,4.684014893,2.9346,space,0.8349,0,21,21,13,1,14,image/14.jpg,0,0,,R_7PRxMH8tgtcALpe,2,2024-05-24_11h38.20.869,face trait task,2021.2.3,MacIntel,30.95975232,120284,,,,,,,
,,,,,,5.533077799,6.3181,space,3.8884,0,22,22,28,1,29,image/29.jpg,0,0,,R_7PRxMH8tgtcALpe,2,2024-05-24_11h38.20.869,face trait task,2021.2.3,MacIntel,30.95975232,120284,,,,,,,
,,,,,,3.432396647,3.0584,space,0.551,0,23,23,3,1,4,image/4.jpg,0,0,,R_7PRxMH8tgtcALpe,2,2024-05-24_11h38.20.869,face trait task,2021.2.3,MacIntel,30.95975232,120284,,,,,,,
,,,,,,5.974660645,3.1237,space,1.3387,0,24,24,11,1,12,image/12.jpg,0,0,,R_7PRxMH8tgtcALpe,2,2024-05-24_11h38.20.869,face trait task,2021.2.3,MacIntel,30.95975232,120284,,,,,,,
,,,,,,4.664277344,2.8091,space,1.0136,0,25,25,22,1,23,image/23.jpg,0,0,,R_7PRxMH8tgtcALpe,2,2024-05-24_11h38.20.869,face trait task,2021.2.3,MacIntel,30.95975232,120284,,,,,,,
,,,,,,4.8353007,3.9022,space,1.8657,0,26,26,32,1,33,image/33.jpg,0,0,,R_7PRxMH8tgtcALpe,2,2024-05-24_11h38.20.869,face trait task,2021.2.3,MacIntel,30.95975232,120284,,,,,,,
,,,,,,4.8353007,2.7708,space,0.422,0,27,27,4,1,5,image/5.jpg,0,0,,R_7PRxMH8tgtcALpe,2,2024-05-24_11h38.20.869,face trait task,2021.2.3,MacIntel,30.95975232,120284,,,,,,,
,,,,,,4.8353007,2.5825,space,1.0351,0,28,28,26,1,27,image/27.jpg,0,0,,R_7PRxMH8tgtcALpe,2,2024-05-24_11h38.20.869,face trait task,2021.2.3,MacIntel,30.95975232,120284,,,,,,,
,,,,,,5.989414469,2.5484,space,0.5553,0,29,29,35,1,36,image/36.jpg,0,0,,R_7PRxMH8tgtcALpe,2,2024-05-24_11h38.20.869,face trait task,2021.2.3,MacIntel,30.95975232,120284,,,,,,,
,,,,,,4.126236165,2.7356,space,0.3706,0,30,30,34,1,35,image/35.jpg,0,0,,R_7PRxMH8tgtcALpe,2,2024-05-24_11h38.20.869,face trait task,2021.2.3,MacIntel,30.95975232,120284,,,,,,,
,,,,,,4.217668864,4.6143,space,1.6806,0,31,31,39,1,40,image/40.jpg,0,0,,R_7PRxMH8tgtcALpe,2,2024-05-24_11h38.20.869,face trait task,2021.2.3,MacIntel,30.95975232,120284,,,,,,,
,,,,,,5.804309082,3.1502,space,0.6661,0,32,32,43,1,44,image/44.jpg,0,0,,R_7PRxMH8tgtcALpe,2,2024-05-24_11h38.20.869,face trait task,2021.2.3,MacIntel,30.95975232,120284,,,,,,,
,,,,,,4.35178182,5.2584,space,1.0645,0,33,33,1,1,2,image/2.jpg,0,0,,R_7PRxMH8tgtcALpe,2,2024-05-24_11h38.20.869,face trait task,2021.2.3,MacIntel,30.95975232,120284,,,,,,,
,,,,,,2.032319946,3.6076,space,0.6083,0,34,34,42,1,43,image/43.jpg,0,0,,R_7PRxMH8tgtcALpe,2,2024-05-24_11h38.20.869,face trait task,2021.2.3,MacIntel,30.95975232,120284,,,,,,,
,,,,,,4.005708822,3.4413,space,0.4375,0,35,35,38,1,39,image/39.jpg,0,0,,R_7PRxMH8tgtcALpe,2,2024-05-24_11h38.20.869,face trait task,2021.2.3,MacIntel,30.95975232,120284,,,,,,,
,,,,,,6.968740234,4.422,space,1.4413,0,36,36,51,1,57,image/fill_img.png,1,7,Please move the slider all the way to the RIGHT to show that you are paying attention.,R_7PRxMH8tgtcALpe,2,2024-05-24_11h38.20.869,face trait task,2021.2.3,MacIntel,30.95975232,120284,,,,,,,
,,,,,,3.849275716,4.2577,space,0.7345,0,37,37,47,1,48,image/48.jpg,0,0,,R_7PRxMH8tgtcALpe,2,2024-05-24_11h38.20.869,face trait task,2021.2.3,MacIntel,30.95975232,120284,,,,,,,
,,,,,,3.802617594,4.5249,space,1.488,0,38,38,41,1,42,image/42.jpg,0,0,,R_7PRxMH8tgtcALpe,2,2024-05-24_11h38.20.869,face trait task,2021.2.3,MacIntel,30.95975232,120284,,,,,,,
,,,,,,4.153878988,4.0668,space,0.9519,0,39,39,15,1,16,image/16.jpg,0,0,,R_7PRxMH8tgtcALpe,2,2024-05-24_11h38.20.869,face trait task,2021.2.3,MacIntel,30.95975232,120284,,,,,,,
,,,,,,3.377118327,3.1487,space,0.6011,0,40,40,30,1,31,image/31.jpg,0,0,,R_7PRxMH8tgtcALpe,2,2024-05-24_11h38.20.869,face trait task,2021.2.3,MacIntel,30.95975232,120284,,,,,,,
,,,,,,4.223149414,3.4831,space,0.4271,0,41,41,19,1,20,image/20.jpg,0,0,,R_7PRxMH8tgtcALpe,2,2024-05-24_11h38.20.869,face trait task,2021.2.3,MacIntel,30.95975232,120284,,,,,,,
,,,,,,4.260479329,2.659,space,4.6103,0,42,42,16,1,17,image/17.jpg,0,0,,R_7PRxMH8tgtcALpe,2,2024-05-24_11h38.20.869,face trait task,2021.2.3,MacIntel,30.95975232,120284,,,,,,,
,,,,,,4.282859701,2.1182,space,0.4197,0,43,43,12,1,13,image/13.jpg,0,0,,R_7PRxMH8tgtcALpe,2,2024-05-24_11h38.20.869,face trait task,2021.2.3,MacIntel,30.95975232,120284,,,,,,,
,,,,,,3.579632975,2.9136,space,0.3247,0,44,44,9,1,10,image/10.jpg,0,0,,R_7PRxMH8tgtcALpe,2,2024-05-24_11h38.20.869,face trait task,2021.2.3,MacIntel,30.95975232,120284,,,,,,,
,,,,,,6.532381185,3.4169,space,1.0613,0,45,45,17,1,18,image/18.jpg,0,0,,R_7PRxMH8tgtcALpe,2,2024-05-24_11h38.20.869,face trait task,2021.2.3,MacIntel,30.95975232,120284,,,,,,,
,,,,,,4.868614909,3.2555,space,0.3841,0,46,46,18,1,19,image/19.jpg,0,0,,R_7PRxMH8tgtcALpe,2,2024-05-24_11h38.20.869,face trait task,2021.2.3,MacIntel,30.95975232,120284,,,,,,,
,,,,,,4.08254069,3.1272,space,0.5358,0,47,47,45,1,46,image/46.jpg,0,0,,R_7PRxMH8tgtcALpe,2,2024-05-24_11h38.20.869,face trait task,2021.2.3,MacIntel,30.95975232,120284,,,,,,,
,,,,,,3.352418213,2.4663,space,0.4836,0,48,48,8,1,9,image/9.jpg,0,0,,R_7PRxMH8tgtcALpe,2,2024-05-24_11h38.20.869,face trait task,2021.2.3,MacIntel,30.95975232,120284,,,,,,,
,,,,,,3.998672282,3.6068,space,0.5411,0,49,49,14,1,15,image/15.jpg,0,0,,R_7PRxMH8tgtcALpe,2,2024-05-24_11h38.20.869,face trait task,2021.2.3,MacIntel,30.95975232,120284,,,,,,,
,,,,,,5.032805583,3.1088,space,0.884,0,50,50,40,1,41,image/41.jpg,0,0,,R_7PRxMH8tgtcALpe,2,2024-05-24_11h38.20.869,face trait task,2021.2.3,MacIntel,30.95975232,120284,,,,,,,
,,,,,,1.010417887,3.7192,space,1.6602,0,51,51,52,1,54,image/fill_img.png,1,1,Please move the slider all the way to the LEFT to show that you are paying attention.,R_7PRxMH8tgtcALpe,2,2024-05-24_11h38.20.869,face trait task,2021.2.3,MacIntel,30.95975232,120284,,,,,,,
,,,,,,4.190967204,2.9409,space,0.8293,0,52,52,49,1,50,image/50.jpg,0,0,,R_7PRxMH8tgtcALpe,2,2024-05-24_11h38.20.869,face trait task,2021.2.3,MacIntel,30.95975232,120284,,,,,,,
,,,,,,,,,,,,,,,,,,,,R_7PRxMH8tgtcALpe,2,2024-05-24_11h38.20.869,face trait task,2021.2.3,MacIntel,30.95975232,120284,0,0,0,2,1,2,trustworthy.png
,,,,,friendly,3.465472819,7.7388,space,1.2077,0,0,0,15,1,16,image/16.jpg,0,0,,R_7PRxMH8tgtcALpe,2,2024-05-24_11h38.20.869,face trait task,2021.2.3,MacIntel,30.95975232,120284,,,,,,,
,,,,,,3.670811361,2.5231,space,0.7745,0,1,1,18,1,19,image/19.jpg,0,0,,R_7PRxMH8tgtcALpe,2,2024-05-24_11h38.20.869,face trait task,2021.2.3,MacIntel,30.95975232,120284,,,,,,,
,,,,,,2.766835124,2.0327,space,0.5421,0,2,2,28,1,29,image/29.jpg,0,0,,R_7PRxMH8tgtcALpe,2,2024-05-24_11h38.20.869,face trait task,2021.2.3,MacIntel,30.95975232,120284,,,,,,,
,,,,,,3.600552979,2.3367,space,0.3066,0,3,3,6,1,7,image/7.jpg,0,0,,R_7PRxMH8tgtcALpe,2,2024-05-24_11h38.20.869,face trait task,2021.2.3,MacIntel,30.95975232,120284,,,,,,,
,,,,,,1.017690837,3.0555,space,0.7245,0,4,4,52,1,54,image/fill_img.png,1,1,Please move the slider all the way to the LEFT to show that you are paying attention.,R_7PRxMH8tgtcALpe,2,2024-05-24_11h38.20.869,face trait task,2021.2.3,MacIntel,30.95975232,120284,,,,,,,
,,,,,,4.106211751,2.9926,space,0.4211,0,5,5,44,1,45,image/45.jpg,0,0,,R_7PRxMH8tgtcALpe,2,2024-05-24_11h38.20.869,face trait task,2021.2.3,MacIntel,30.95975232,120284,,,,,,,
,,,,,,4.341503092,2.1393,space,0.4086,0,6,6,49,1,50,image/50.jpg,0,0,,R_7PRxMH8tgtcALpe,2,2024-05-24_11h38.20.869,face trait task,2021.2.3,MacIntel,30.95975232,120284,,,,,,,
,,,,,,5.190110677,2.2782,space,0.3745,0,7,7,26,1,27,image/27.jpg,0,0,,R_7PRxMH8tgtcALpe,2,2024-05-24_11h38.20.869,face trait task,2021.2.3,MacIntel,30.95975232,120284,,,,,,,
,,,,,,6.027207845,2.3949,space,0.3875,0,8,8,35,1,36,image/36.jpg,0,0,,R_7PRxMH8tgtcALpe,2,2024-05-24_11h38.20.869,face trait task,2021.2.3,MacIntel,30.95975232,120284,,,,,,,
,,,,,,4.566676839,2.3844,space,0.4039,0,9,9,24,1,25,image/25.jpg,0,0,,R_7PRxMH8tgtcALpe,2,2024-05-24_11h38.20.869,face trait task,2021.2.3,MacIntel,30.95975232,120284,,,,,,,
,,,,,,5.115832926,2.0589,space,0.3521,0,10,10,10,1,11,image/11.jpg,0,0,,R_7PRxMH8tgtcALpe,2,2024-05-24_11h38.20.869,face trait task,2021.2.3,MacIntel,30.95975232,120284,,,,,,,
,,,,,,3.271843262,2.1201,space,0.3396,0,11,11,39,1,40,image/40.jpg,0,0,,R_7PRxMH8tgtcALpe,2,2024-05-24_11h38.20.869,face trait task,2021.2.3,MacIntel,30.95975232,120284,,,,,,,
,,,,,,3.409275309,2.0501,space,0.4041,0,12,12,25,1,26,image/26.jpg,0,0,,R_7PRxMH8tgtcALpe,2,2024-05-24_11h38.20.869,face trait task,2021.2.3,MacIntel,30.95975232,120284,,,,,,,
,,,,,,6.945290527,2.5978,space,0.8168,0,13,13,17,1,18,image/18.jpg,0,0,,R_7PRxMH8tgtcALpe,2,2024-05-24_11h38.20.869,face trait task,2021.2.3,MacIntel,30.95975232,120284,,,,,,,
,,,,,,4.31313151,2.3121,space,0.6868,0,14,14,46,1,47,image/47.jpg,0,0,,R_7PRxMH8tgtcALpe,2,2024-05-24_11h38.20.869,face trait task,2021.2.3,MacIntel,30.95975232,120284,,,,,,,
,,,,,,2.331309408,2.085,space,0.4207,0,15,15,30,1,31,image/31.jpg,0,0,,R_7PRxMH8tgtcALpe,2,2024-05-24_11h38.20.869,face trait task,2021.2.3,MacIntel,30.95975232,120284,,,,,,,
,,,,,,3.990336914,2.1444,space,0.283,0,16,16,4,1,5,image/5.jpg,0,0,,R_7PRxMH8tgtcALpe,2,2024-05-24_11h38.20.869,face trait task,2021.2.3,MacIntel,30.95975232,120284,,,,,,,
,,,,,,4.28780721,2.754,space,0.2775,0,17,17,27,1,28,image/28.jpg,0,0,,R_7PRxMH8tgtcALpe,2,2024-05-24_11h38.20.869,face trait task,2021.2.3,MacIntel,30.95975232,120284,,,,,,,
,,,,,,4.306792399,2.0232,space,0.4017,0,18,18,29,1,30,image/30.jpg,0,0,,R_7PRxMH8tgtcALpe,2,2024-05-24_11h38.20.869,face trait task,2021.2.3,MacIntel,30.95975232,120284,,,,,,,
,,,,,,4.62930013,3.064,space,0.3267,0,19,19,22,1,23,image/23.jpg,0,0,,R_7PRxMH8tgtcALpe,2,2024-05-24_11h38.20.869,face trait task,2021.2.3,MacIntel,30.95975232,120284,,,,,,,
,,,,,,1.038675537,2.5076,space,1.1418,0,20,20,50,1,53,image/fill_img.png,1,1,Please move the slider all the way to the LEFT to show that you are paying attention.,R_7PRxMH8tgtcALpe,2,2024-05-24_11h38.20.869,face trait task,2021.2.3,MacIntel,30.95975232,120284,,,,,,,
,,,,,,4.436641032,3.0639,space,0.3453,0,21,21,31,1,32,image/32.jpg,0,0,,R_7PRxMH8tgtcALpe,2,2024-05-24_11h38.20.869,face trait task,2021.2.3,MacIntel,30.95975232,120284,,,,,,,
,,,,,,4.436641032,1.6525,space,0.39,0,22,22,37,1,38,image/38.jpg,0,0,,R_7PRxMH8tgtcALpe,2,2024-05-24_11h38.20.869,face trait task,2021.2.3,MacIntel,30.95975232,120284,,,,,,,
,,,,,,4.058874512,2.0283,space,0.4007,0,23,23,45,1,46,image/46.jpg,0,0,,R_7PRxMH8tgtcALpe,2,2024-05-24_11h38.20.869,face trait task,2021.2.3,MacIntel,30.95975232,120284,,,,,,,
,,,,,,3.80949707,1.943,space,0.4301,0,24,24,0,1,1,image/1.jpg,0,0,,R_7PRxMH8tgtcALpe,2,2024-05-24_11h38.20.869,face trait task,2021.2.3,MacIntel,30.95975232,120284,,,,,,,
,,,,,,4.014278158,2.3874,space,0.3826,0,25,25,20,1,21,image/21.jpg,0,0,,R_7PRxMH8tgtcALpe,2,2024-05-24_11h38.20.869,face trait task,2021.2.3,MacIntel,30.95975232,120284,,,,,,,
,,,,,,3.449671224,3.4134,space,0.251,0,26,26,2,1,3,image/3.jpg,0,0,,R_7PRxMH8tgtcALpe,2,2024-05-24_11h38.20.869,face trait task,2021.2.3,MacIntel,30.95975232,120284,,,,,,,
,,,,,,3.946296387,1.7317,space,0.4096,0,27,27,5,1,6,image/6.jpg,0,0,,R_7PRxMH8tgtcALpe,2,2024-05-24_11h38.20.869,face trait task,2021.2.3,MacIntel,30.95975232,120284,,,,,,,
,,,,,,5.102947998,2.3976,space,0.4819,0,28,28,40,1,41,image/41.jpg,0,0,,R_7PRxMH8tgtcALpe,2,2024-05-24_11h38.20.869,face trait task,2021.2.3,MacIntel,30.95975232,120284,,,,,,,
,,,,,,3.944765625,2.3202,space,0.3334,0,29,29,38,1,39,image/39.jpg,0,0,,R_7PRxMH8tgtcALpe,2,2024-05-24_11h38.20.869,face trait task,2021.2.3,MacIntel,30.95975232,120284,,,,,,,
,,,,,,4.056034342,4.8358,space,0.2783,0,30,30,47,1,48,image/48.jpg,0,0,,R_7PRxMH8tgtcALpe,2,2024-05-24_11h38.20.869,face trait task,2021.2.3,MacIntel,30.95975232,120284,,,,,,,
,,,,,,3.125158691,2.0486,space,0.2354,0,31,31,36,1,37,image/37.jpg,0,0,,R_7PRxMH8tgtcALpe,2,2024-05-24_11h38.20.869,face trait task,2021.2.3,MacIntel,30.95975232,120284,,,,,,,
,,,,,,6.974020182,2.606,space,1.0432,0,32,32,51,1,57,image/fill_img.png,1,7,Please move the slider all the way to the RIGHT to show that you are paying attention.,R_7PRxMH8tgtcALpe,2,2024-05-24_11h38.20.869,face trait task,2021.2.3,MacIntel,30.95975232,120284,,,,,,,
,,,,,,3.460325521,2.6493,space,0.4405,0,33,33,21,1,22,image/22.jpg,0,0,,R_7PRxMH8tgtcALpe,2,2024-05-24_11h38.20.869,face trait task,2021.2.3,MacIntel,30.95975232,120284,,,,,,,
,,,,,,4.057545573,1.9761,space,0.3518,0,34,34,19,1,20,image/20.jpg,0,0,,R_7PRxMH8tgtcALpe,2,2024-05-24_11h38.20.869,face trait task,2021.2.3,MacIntel,30.95975232,120284,,,,,,,
,,,,,,3.667791748,2.0541,space,0.2349,0,35,35,14,1,15,image/15.jpg,0,0,,R_7PRxMH8tgtcALpe,2,2024-05-24_11h38.20.869,face trait task,2021.2.3,MacIntel,30.95975232,120284,,,,,,,
,,,,,,4.02425415,2.1702,space,0.2574,0,36,36,12,1,13,image/13.jpg,0,0,,R_7PRxMH8tgtcALpe,2,2024-05-24_11h38.20.869,face trait task,2021.2.3,MacIntel,30.95975232,120284,,,,,,,
,,,,,,3.918144124,1.7337,space,0.4554,0,37,37,13,1,14,image/14.jpg,0,0,,R_7PRxMH8tgtcALpe,2,2024-05-24_11h38.20.869,face trait task,2021.2.3,MacIntel,30.95975232,120284,,,,,,,
,,,,,,4.225914714,2.2887,space,0.3652,0,38,38,34,1,35,image/35.jpg,0,0,,R_7PRxMH8tgtcALpe,2,2024-05-24_11h38.20.869,face trait task,2021.2.3,MacIntel,30.95975232,120284,,,,,,,
,,,,,,4.088210856,2.6095,space,1.1105,0,39,39,8,1,9,image/9.jpg,0,0,,R_7PRxMH8tgtcALpe,2,2024-05-24_11h38.20.869,face trait task,2021.2.3,MacIntel,30.95975232,120284,,,,,,,
,,,,,,5.461135661,2.5133,space,0.6899,0,40,40,43,1,44,image/44.jpg,0,0,,R_7PRxMH8tgtcALpe,2,2024-05-24_11h38.20.869,face trait task,2021.2.3,MacIntel,30.95975232,120284,,,,,,,
,,,,,,4.305371094,1.9558,space,0.3052,0,41,41,41,1,42,image/42.jpg,0,0,,R_7PRxMH8tgtcALpe,2,2024-05-24_11h38.20.869,face trait task,2021.2.3,MacIntel,30.95975232,120284,,,,,,,
,,,,,,3.995047607,1.7386,space,0.2092,0,42,42,42,1,43,image/43.jpg,0,0,,R_7PRxMH8tgtcALpe,2,2024-05-24_11h38.20.869,face trait task,2021.2.3,MacIntel,30.95975232,120284,,,,,,,
,,,,,,4.766464437,1.7172,space,0.2571,0,43,43,23,1,24,image/24.jpg,0,0,,R_7PRxMH8tgtcALpe,2,2024-05-24_11h38.20.869,face trait task,2021.2.3,MacIntel,30.95975232,120284,,,,,,,
,,,,,,4.862993164,2.2382,space,0.331,0,44,44,7,1,8,image/8.jpg,0,0,,R_7PRxMH8tgtcALpe,2,2024-05-24_11h38.20.869,face trait task,2021.2.3,MacIntel,30.95975232,120284,,,,,,,
,,,,,,4.362277832,2.5716,space,0.2926,0,45,45,16,1,17,image/17.jpg,0,0,,R_7PRxMH8tgtcALpe,2,2024-05-24_11h38.20.869,face trait task,2021.2.3,MacIntel,30.95975232,120284,,,,,,,
,,,,,,4.516664225,2.0718,space,0.4406,0,46,46,33,1,34,image/34.jpg,0,0,,R_7PRxMH8tgtcALpe,2,2024-05-24_11h38.20.869,face trait task,2021.2.3,MacIntel,30.95975232,120284,,,,,,,
,,,,,,5.159210612,5.9713,space,0.3535,0,47,47,48,1,49,image/49.jpg,0,0,,R_7PRxMH8tgtcALpe,2,2024-05-24_11h38.20.869,face trait task,2021.2.3,MacIntel,30.95975232,120284,,,,,,,
,,,,,,6.104686686,2.0751,space,0.5764,0,48,48,11,1,12,image/12.jpg,0,0,,R_7PRxMH8tgtcALpe,2,2024-05-24_11h38.20.869,face trait task,2021.2.3,MacIntel,30.95975232,120284,,,,,,,
,,,,,,3.713255208,2.2454,space,0.3922,0,49,49,1,1,2,image/2.jpg,0,0,,R_7PRxMH8tgtcALpe,2,2024-05-24_11h38.20.869,face trait task,2021.2.3,MacIntel,30.95975232,120284,,,,,,,
,,,,,,3.98386556,5.1357,space,1.6754,0,50,50,3,1,4,image/4.jpg,0,0,,R_7PRxMH8tgtcALpe,2,2024-05-24_11h38.20.869,face trait task,2021.2.3,MacIntel,30.95975232,120284,,,,,,,
,,,,,,3.991664632,1.7529,space,0.6905,0,51,51,32,1,33,image/33.jpg,0,0,,R_7PRxMH8tgtcALpe,2,2024-05-24_11h38.20.869,face trait task,2021.2.3,MacIntel,30.95975232,120284,,,,,,,
,,,,,,4.108294678,1.7288,space,0.1991,0,52,52,9,1,10,image/10.jpg,0,0,,R_7PRxMH8tgtcALpe,2,2024-05-24_11h38.20.869,face trait task,2021.2.3,MacIntel,30.95975232,120284,,,,,,,
,,,,,,,,,,,,,,,,,,,,R_7PRxMH8tgtcALpe,2,2024-05-24_11h38.20.869,face trait task,2021.2.3,MacIntel,30.95975232,120284,0,1,1,3,1,3,friendly.png
,,,,,critical,4.324073893,2.5597,space,0.7211,0,0,0,17,1,18,image/18.jpg,0,0,,R_7PRxMH8tgtcALpe,2,2024-05-24_11h38.20.869,face trait task,2021.2.3,MacIntel,30.95975232,120284,,,,,,,
,,,,,,3.510747884,2.3704,space,0.4181,0,1,1,2,1,3,image/3.jpg,0,0,,R_7PRxMH8tgtcALpe,2,2024-05-24_11h38.20.869,face trait task,2021.2.3,MacIntel,30.95975232,120284,,,,,,,
,,,,,,3.768412272,2.3628,space,0.3135,0,2,2,4,1,5,image/5.jpg,0,0,,R_7PRxMH8tgtcALpe,2,2024-05-24_11h38.20.869,face trait task,2021.2.3,MacIntel,30.95975232,120284,,,,,,,
,,,,,,5.532720133,2.3449,space,0.4717,0,3,3,28,1,29,image/29.jpg,0,0,,R_7PRxMH8tgtcALpe,2,2024-05-24_11h38.20.869,face trait task,2021.2.3,MacIntel,30.95975232,120284,,,,,,,
,,,,,,4.012302653,4.0162,space,2.1515,0,4,4,5,1,6,image/6.jpg,0,0,,R_7PRxMH8tgtcALpe,2,2024-05-24_11h38.20.869,face trait task,2021.2.3,MacIntel,30.95975232,120284,,,,,,,
,,,,,,4.82603597,1.708,space,0.7222,0,5,5,15,1,16,image/16.jpg,0,0,,R_7PRxMH8tgtcALpe,2,2024-05-24_11h38.20.869,face trait task,2021.2.3,MacIntel,30.95975232,120284,,,,,,,
,,,,,,3.490248617,3.2054,space,0.168,0,6,6,3,1,4,image/4.jpg,0,0,,R_7PRxMH8tgtcALpe,2,2024-05-24_11h38.20.869,face trait task,2021.2.3,MacIntel,30.95975232,120284,,,,,,,
,,,,,,5.031955973,2.5654,space,0.459,0,7,7,14,1,15,image/15.jpg,0,0,,R_7PRxMH8tgtcALpe,2,2024-05-24_11h38.20.869,face trait task,2021.2.3,MacIntel,30.95975232,120284,,,,,,,
,,,,,,1.97516215,2.2193,space,0.9861,0,8,8,40,1,41,image/41.jpg,0,0,,R_7PRxMH8tgtcALpe,2,2024-05-24_11h38.20.869,face trait task,2021.2.3,MacIntel,30.95975232,120284,,,,,,,
,,,,,,6.418775228,2.1759,space,0.3718,0,9,9,18,1,19,image/19.jpg,0,0,,R_7PRxMH8tgtcALpe,2,2024-05-24_11h38.20.869,face trait task,2021.2.3,MacIntel,30.95975232,120284,,,,,,,
,,,,,,4.987344564,2.2832,space,0.221,0,10,10,41,1,42,image/42.jpg,0,0,,R_7PRxMH8tgtcALpe,2,2024-05-24_11h38.20.869,face trait task,2021.2.3,MacIntel,30.95975232,120284,,,,,,,
,,,,,,4.917646077,1.7637,space,0.1979,0,11,11,32,1,33,image/33.jpg,0,0,,R_7PRxMH8tgtcALpe,2,2024-05-24_11h38.20.869,face trait task,2021.2.3,MacIntel,30.95975232,120284,,,,,,,
,,,,,,6.991665039,2.7217,space,1.1381,0,12,12,19,1,20,image/20.jpg,0,0,,R_7PRxMH8tgtcALpe,2,2024-05-24_11h38.20.869,face trait task,2021.2.3,MacIntel,30.95975232,120284,,,,,,,
,,,,,,4.907814128,3.9468,space,0.4705,0,13,13,49,1,50,image/50.jpg,0,0,,R_7PRxMH8tgtcALpe,2,2024-05-24_11h38.20.869,face trait task,2021.2.3,MacIntel,30.95975232,120284,,,,,,,
,,,,,,2.259531453,2.7431,space,0.5874,0,14,14,0,1,1,image/1.jpg,0,0,,R_7PRxMH8tgtcALpe,2,2024-05-24_11h38.20.869,face trait task,2021.2.3,MacIntel,30.95975232,120284,,,,,,,
,,,,,,3.458572591,2.2077,space,0.3109,0,15,15,23,1,24,image/24.jpg,0,0,,R_7PRxMH8tgtcALpe,2,2024-05-24_11h38.20.869,face trait task,2021.2.3,MacIntel,30.95975232,120284,,,,,,,
,,,,,,4.958154704,2.7245,space,0.3404,0,16,16,8,1,9,image/9.jpg,0,0,,R_7PRxMH8tgtcALpe,2,2024-05-24_11h38.20.869,face trait task,2021.2.3,MacIntel,30.95975232,120284,,,,,,,
,,,,,,4.951604004,1.8489,space,0.3169,0,17,17,9,1,10,image/10.jpg,0,0,,R_7PRxMH8tgtcALpe,2,2024-05-24_11h38.20.869,face trait task,2021.2.3,MacIntel,30.95975232,120284,,,,,,,
,,,,,,3.014665527,1.9711,space,0.2879,0,18,18,11,1,12,image/12.jpg,0,0,,R_7PRxMH8tgtcALpe,2,2024-05-24_11h38.20.869,face trait task,2021.2.3,MacIntel,30.95975232,120284,,,,,,,
,,,,,,6.928793945,2.826,space,1.3611,0,19,19,36,1,37,image/37.jpg,0,0,,R_7PRxMH8tgtcALpe,2,2024-05-24_11h38.20.869,face trait task,2021.2.3,MacIntel,30.95975232,120284,,,,,,,
,,,,,,5.959442139,4.1613,space,0.7094,0,20,20,20,1,21,image/21.jpg,0,0,,R_7PRxMH8tgtcALpe,2,2024-05-24_11h38.20.869,face trait task,2021.2.3,MacIntel,30.95975232,120284,,,,,,,
,,,,,,2.484502767,1.9122,space,0.3806,0,21,21,33,1,34,image/34.jpg,0,0,,R_7PRxMH8tgtcALpe,2,2024-05-24_11h38.20.869,face trait task,2021.2.3,MacIntel,30.95975232,120284,,,,,,,
,,,,,,2.484502767,1.1925,space,0.5364,0,22,22,13,1,14,image/14.jpg,0,0,,R_7PRxMH8tgtcALpe,2,2024-05-24_11h38.20.869,face trait task,2021.2.3,MacIntel,30.95975232,120284,,,,,,,
,,,,,,3.085914307,2.0308,space,0.5793,0,23,23,10,1,11,image/11.jpg,0,0,,R_7PRxMH8tgtcALpe,2,2024-05-24_11h38.20.869,face trait task,2021.2.3,MacIntel,30.95975232,120284,,,,,,,
,,,,,,6.441296387,3.1872,space,0.3854,0,24,24,27,1,28,image/28.jpg,0,0,,R_7PRxMH8tgtcALpe,2,2024-05-24_11h38.20.869,face trait task,2021.2.3,MacIntel,30.95975232,120284,,,,,,,
,,,,,,3.762432861,2.1526,space,0.6012,0,25,25,44,1,45,image/45.jpg,0,0,,R_7PRxMH8tgtcALpe,2,2024-05-24_11h38.20.869,face trait task,2021.2.3,MacIntel,30.95975232,120284,,,,,,,
,,,,,,6.962041016,2.1999,space,0.3953,0,26,26,21,1,22,image/22.jpg,0,0,,R_7PRxMH8tgtcALpe,2,2024-05-24_11h38.20.869,face trait task,2021.2.3,MacIntel,30.95975232,120284,,,,,,,
,,,,,,4.507010905,2.4019,space,0.2639,0,27,27,46,1,47,image/47.jpg,0,0,,R_7PRxMH8tgtcALpe,2,2024-05-24_11h38.20.869,face trait task,2021.2.3,MacIntel,30.95975232,120284,,,,,,,
,,,,,,1.932019653,1.9313,space,0.7642,0,28,28,35,1,36,image/36.jpg,0,0,,R_7PRxMH8tgtcALpe,2,2024-05-24_11h38.20.869,face trait task,2021.2.3,MacIntel,30.95975232,120284,,,,,,,
,,,,,,1.296845296,2.1253,space,0.5849,0,29,29,43,1,44,image/44.jpg,0,0,,R_7PRxMH8tgtcALpe,2,2024-05-24_11h38.20.869,face trait task,2021.2.3,MacIntel,30.95975232,120284,,,,,,,
,,,,,,4.025110677,2.059,space,0.5535,0,30,30,45,1,46,image/46.jpg,0,0,,R_7PRxMH8tgtcALpe,2,2024-05-24_11h38.20.869,face trait task,2021.2.3,MacIntel,30.95975232,120284,,,,,,,
,,,,,,3.99105835,2.5392,space,0.2774,0,31,31,31,1,32,image/32.jpg,0,0,,R_7PRxMH8tgtcALpe,2,2024-05-24_11h38.20.869,face trait task,2021.2.3,MacIntel,30.95975232,120284,,,,,,,
,,,,,,1.086369425,2.2713,space,0.3445,0,32,32,50,1,53,image/fill_img.png,1,1,Please move the slider all the way to the LEFT to show that you are paying attention.,R_7PRxMH8tgtcALpe,2,2024-05-24_11h38.20.869,face trait task,2021.2.3,MacIntel,30.95975232,120284,,,,,,,
,,,,,,3.355835368,3.6738,space,0.1846,0,33,33,38,1,39,image/39.jpg,0,0,,R_7PRxMH8tgtcALpe,2,2024-05-24_11h38.20.869,face trait task,2021.2.3,MacIntel,30.95975232,120284,,,,,,,
,,,,,,5.001898193,5.3407,space,1.1482,0,34,34,1,1,2,image/2.jpg,0,0,,R_7PRxMH8tgtcALpe,2,2024-05-24_11h38.20.869,face trait task,2021.2.3,MacIntel,30.95975232,120284,,,,,,,
,,,,,,3.021788737,2.7413,space,0.3014,0,35,35,42,1,43,image/43.jpg,0,0,,R_7PRxMH8tgtcALpe,2,2024-05-24_11h38.20.869,face trait task,2021.2.3,MacIntel,30.95975232,120284,,,,,,,
,,,,,,6.896724447,4.1521,space,0.3781,0,36,36,16,1,17,image/17.jpg,0,0,,R_7PRxMH8tgtcALpe,2,2024-05-24_11h38.20.869,face trait task,2021.2.3,MacIntel,30.95975232,120284,,,,,,,
,,,,,,3.76091512,1.8757,space,1.103,0,37,37,6,1,7,image/7.jpg,0,0,,R_7PRxMH8tgtcALpe,2,2024-05-24_11h38.20.869,face trait task,2021.2.3,MacIntel,30.95975232,120284,,,,,,,
,,,,,,3.994905599,1.9332,space,0.2859,0,38,38,47,1,48,image/48.jpg,0,0,,R_7PRxMH8tgtcALpe,2,2024-05-24_11h38.20.869,face trait task,2021.2.3,MacIntel,30.95975232,120284,,,,,,,
,,,,,,3.976823324,2.0324,space,0.9067,0,39,39,37,1,38,image/38.jpg,0,0,,R_7PRxMH8tgtcALpe,2,2024-05-24_11h38.20.869,face trait task,2021.2.3,MacIntel,30.95975232,120284,,,,,,,
,,,,,,5.08177124,2.3517,space,0.3458,0,40,40,39,1,40,image/40.jpg,0,0,,R_7PRxMH8tgtcALpe,2,2024-05-24_11h38.20.869,face trait task,2021.2.3,MacIntel,30.95975232,120284,,,,,,,
,,,,,,2.959806315,2.0584,space,0.3426,0,41,41,34,1,35,image/35.jpg,0,0,,R_7PRxMH8tgtcALpe,2,2024-05-24_11h38.20.869,face trait task,2021.2.3,MacIntel,30.95975232,120284,,,,,,,
,,,,,,1.969935303,9.546,space,2.8667,0,42,42,24,1,25,image/25.jpg,0,0,,R_7PRxMH8tgtcALpe,2,2024-05-24_11h38.20.869,face trait task,2021.2.3,MacIntel,30.95975232,120284,,,,,,,
,,,,,,6.971771647,2.2379,space,1.0424,0,43,43,51,1,57,image/fill_img.png,1,7,Please move the slider all the way to the RIGHT to show that you are paying attention.,R_7PRxMH8tgtcALpe,2,2024-05-24_11h38.20.869,face trait task,2021.2.3,MacIntel,30.95975232,120284,,,,,,,
,,,,,,6.967691243,4.7256,space,1.1031,0,44,44,30,1,31,image/31.jpg,0,0,,R_7PRxMH8tgtcALpe,2,2024-05-24_11h38.20.869,face trait task,2021.2.3,MacIntel,30.95975232,120284,,,,,,,
,,,,,,5.028323975,2.1981,space,0.2056,0,45,45,25,1,26,image/26.jpg,0,0,,R_7PRxMH8tgtcALpe,2,2024-05-24_11h38.20.869,face trait task,2021.2.3,MacIntel,30.95975232,120284,,,,,,,
,,,,,,4.02274292,1.6974,space,0.3151,0,46,46,7,1,8,image/8.jpg,0,0,,R_7PRxMH8tgtcALpe,2,2024-05-24_11h38.20.869,face trait task,2021.2.3,MacIntel,30.95975232,120284,,,,,,,
,,,,,,3.006976318,1.7999,space,0.1608,0,47,47,22,1,23,image/23.jpg,0,0,,R_7PRxMH8tgtcALpe,2,2024-05-24_11h38.20.869,face trait task,2021.2.3,MacIntel,30.95975232,120284,,,,,,,
,,,,,,1.032815959,2.6977,space,0.7307,0,48,48,52,1,54,image/fill_img.png,1,1,Please move the slider all the way to the LEFT to show that you are paying attention.,R_7PRxMH8tgtcALpe,2,2024-05-24_11h38.20.869,face trait task,2021.2.3,MacIntel,30.95975232,120284,,,,,,,
,,,,,,4.308391927,2.0706,space,0.3376,0,49,49,29,1,30,image/30.jpg,0,0,,R_7PRxMH8tgtcALpe,2,2024-05-24_11h38.20.869,face trait task,2021.2.3,MacIntel,30.95975232,120284,,,,,,,
,,,,,,5.986712646,2.1227,space,0.3849,0,50,50,12,1,13,image/13.jpg,0,0,,R_7PRxMH8tgtcALpe,2,2024-05-24_11h38.20.869,face trait task,2021.2.3,MacIntel,30.95975232,120284,,,,,,,
,,,,,,1.032867839,2.977,space,0.5145,0,51,51,48,1,49,image/49.jpg,0,0,,R_7PRxMH8tgtcALpe,2,2024-05-24_11h38.20.869,face trait task,2021.2.3,MacIntel,30.95975232,120284,,,,,,,
,,,,,,3.435310872,2.4893,space,0.4358,0,52,52,26,1,27,image/27.jpg,0,0,,R_7PRxMH8tgtcALpe,2,2024-05-24_11h38.20.869,face trait task,2021.2.3,MacIntel,30.95975232,120284,,,,,,,
,,,,,,,,,,,,,,,,,,,,R_7PRxMH8tgtcALpe,2,2024-05-24_11h38.20.869,face trait task,2021.2.3,MacIntel,30.95975232,120284,0,2,2,0,1,0,critical.png
,,,,,competent,2.982721761,5.6678,space,1.1162,0,0,0,39,1,40,image/40.jpg,0,0,,R_7PRxMH8tgtcALpe,2,2024-05-24_11h38.20.869,face trait task,2021.2.3,MacIntel,30.95975232,120284,,,,,,,
,,,,,,4.968736979,1.8227,space,0.2851,0,1,1,18,1,19,image/19.jpg,0,0,,R_7PRxMH8tgtcALpe,2,2024-05-24_11h38.20.869,face trait task,2021.2.3,MacIntel,30.95975232,120284,,,,,,,
,,,,,,4.564321696,1.7452,space,0.3952,0,2,2,23,1,24,image/24.jpg,0,0,,R_7PRxMH8tgtcALpe,2,2024-05-24_11h38.20.869,face trait task,2021.2.3,MacIntel,30.95975232,120284,,,,,,,
,,,,,,4.457803955,2.207,space,0.3146,0,3,3,45,1,46,image/46.jpg,0,0,,R_7PRxMH8tgtcALpe,2,2024-05-24_11h38.20.869,face trait task,2021.2.3,MacIntel,30.95975232,120284,,,,,,,
,,,,,,5.572007243,3.6892,space,0.1644,0,4,4,27,1,28,image/28.jpg,0,0,,R_7PRxMH8tgtcALpe,2,2024-05-24_11h38.20.869,face trait task,2021.2.3,MacIntel,30.95975232,120284,,,,,,,
,,,,,,2.272501221,2.5503,space,0.613,0,5,5,42,1,43,image/43.jpg,0,0,,R_7PRxMH8tgtcALpe,2,2024-05-24_11h38.20.869,face trait task,2021.2.3,MacIntel,30.95975232,120284,,,,,,,
,,,,,,4.99339681,2.2867,space,0.6503,0,6,6,20,1,21,image/21.jpg,0,0,,R_7PRxMH8tgtcALpe,2,2024-05-24_11h38.20.869,face trait task,2021.2.3,MacIntel,30.95975232,120284,,,,,,,
,,,,,,3.904866943,2.1091,space,0.3574,0,7,7,12,1,13,image/13.jpg,0,0,,R_7PRxMH8tgtcALpe,2,2024-05-24_11h38.20.869,face trait task,2021.2.3,MacIntel,30.95975232,120284,,,,,,,
,,,,,,4.504567057,2.7779,space,0.387,0,8,8,26,1,27,image/27.jpg,0,0,,R_7PRxMH8tgtcALpe,2,2024-05-24_11h38.20.869,face trait task,2021.2.3,MacIntel,30.95975232,120284,,,,,,,
,,,,,,4.396084391,2.2058,space,0.4142,0,9,9,9,1,10,image/10.jpg,0,0,,R_7PRxMH8tgtcALpe,2,2024-05-24_11h38.20.869,face trait task,2021.2.3,MacIntel,30.95975232,120284,,,,,,,
,,,,,,3.550499268,2.0345,space,0.6247,0,10,10,8,1,9,image/9.jpg,0,0,,R_7PRxMH8tgtcALpe,2,2024-05-24_11h38.20.869,face trait task,2021.2.3,MacIntel,30.95975232,120284,,,,,,,
,,,,,,3.545683187,2.0794,space,0.4545,0,11,11,24,1,25,image/25.jpg,0,0,,R_7PRxMH8tgtcALpe,2,2024-05-24_11h38.20.869,face trait task,2021.2.3,MacIntel,30.95975232,120284,,,,,,,
,,,,,,3.081631673,2.21,space,0.3646,0,12,12,40,1,41,image/41.jpg,0,0,,R_7PRxMH8tgtcALpe,2,2024-05-24_11h38.20.869,face trait task,2021.2.3,MacIntel,30.95975232,120284,,,,,,,
,,,,,,3.544441732,2.3534,space,0.2373,0,13,13,28,1,29,image/29.jpg,0,0,,R_7PRxMH8tgtcALpe,2,2024-05-24_11h38.20.869,face trait task,2021.2.3,MacIntel,30.95975232,120284,,,,,,,
,,,,,,2.77419515,1.7379,space,0.601,0,14,14,38,1,39,image/39.jpg,0,0,,R_7PRxMH8tgtcALpe,2,2024-05-24_11h38.20.869,face trait task,2021.2.3,MacIntel,30.95975232,120284,,,,,,,
,,,,,,1.039366048,2.561,space,1.0109,0,15,15,52,1,54,image/fill_img.png,1,1,Please move the slider all the way to the LEFT to show that you are paying attention.,R_7PRxMH8tgtcALpe,2,2024-05-24_11h38.20.869,face trait task,2021.2.3,MacIntel,30.95975232,120284,,,,,,,
,,,,,,1.068680827,2.089,space,0.4597,0,16,16,50,1,53,image/fill_img.png,1,1,Please move the slider all the way to the LEFT to show that you are paying attention.,R_7PRxMH8tgtcALpe,2,2024-05-24_11h38.20.869,face trait task,2021.2.3,MacIntel,30.95975232,120284,,,,,,,
,,,,,,3.974264323,2.3961,space,0.2922,0,17,17,7,1,8,image/8.jpg,0,0,,R_7PRxMH8tgtcALpe,2,2024-05-24_11h38.20.869,face trait task,2021.2.3,MacIntel,30.95975232,120284,,,,,,,
,,,,,,5.124061279,1.8758,space,0.4043,0,18,18,31,1,32,image/32.jpg,0,0,,R_7PRxMH8tgtcALpe,2,2024-05-24_11h38.20.869,face trait task,2021.2.3,MacIntel,30.95975232,120284,,,,,,,
,,,,,,5.572932536,1.7256,space,0.3749,0,19,19,49,1,50,image/50.jpg,0,0,,R_7PRxMH8tgtcALpe,2,2024-05-24_11h38.20.869,face trait task,2021.2.3,MacIntel,30.95975232,120284,,,,,,,
,,,,,,6.928533529,1.9801,space,0.3997,0,20,20,17,1,18,image/18.jpg,0,0,,R_7PRxMH8tgtcALpe,2,2024-05-24_11h38.20.869,face trait task,2021.2.3,MacIntel,30.95975232,120284,,,,,,,
,,,,,,4.240835775,2.2933,space,0.438,0,21,21,34,1,35,image/35.jpg,0,0,,R_7PRxMH8tgtcALpe,2,2024-05-24_11h38.20.869,face trait task,2021.2.3,MacIntel,30.95975232,120284,,,,,,,
,,,,,,4.377637126,1.9703,space,0.2068,0,22,22,33,1,34,image/34.jpg,0,0,,R_7PRxMH8tgtcALpe,2,2024-05-24_11h38.20.869,face trait task,2021.2.3,MacIntel,30.95975232,120284,,,,,,,
,,,,,,3.60546224,2.9113,space,0.1775,0,23,23,16,1,17,image/17.jpg,0,0,,R_7PRxMH8tgtcALpe,2,2024-05-24_11h38.20.869,face trait task,2021.2.3,MacIntel,30.95975232,120284,,,,,,,
,,,,,,6.017941488,2.2097,space,0.3039,0,24,24,35,1,36,image/36.jpg,0,0,,R_7PRxMH8tgtcALpe,2,2024-05-24_11h38.20.869,face trait task,2021.2.3,MacIntel,30.95975232,120284,,,,,,,
,,,,,,3.292586263,1.813,space,0.3845,0,25,25,13,1,14,image/14.jpg,0,0,,R_7PRxMH8tgtcALpe,2,2024-05-24_11h38.20.869,face trait task,2021.2.3,MacIntel,30.95975232,120284,,,,,,,
,,,,,,4.574081624,2.2718,space,0.5655,0,26,26,21,1,22,image/22.jpg,0,0,,R_7PRxMH8tgtcALpe,2,2024-05-24_11h38.20.869,face trait task,2021.2.3,MacIntel,30.95975232,120284,,,,,,,
,,,,,,6.942097168,2.3948,space,0.448,0,27,27,51,1,57,image/fill_img.png,1,7,Please move the slider all the way to the RIGHT to show that you are paying attention.,R_7PRxMH8tgtcALpe,2,2024-05-24_11h38.20.869,face trait task,2021.2.3,MacIntel,30.95975232,120284,,,,,,,
,,,,,,4.030085856,2.3868,space,0.3058,0,28,28,46,1,47,image/47.jpg,0,0,,R_7PRxMH8tgtcALpe,2,2024-05-24_11h38.20.869,face trait task,2021.2.3,MacIntel,30.95975232,120284,,,,,,,
,,,,,,4.396153158,1.6648,space,0.2066,0,29,29,43,1,44,image/44.jpg,0,0,,R_7PRxMH8tgtcALpe,2,2024-05-24_11h38.20.869,face trait task,2021.2.3,MacIntel,30.95975232,120284,,,,,,,
,,,,,,1.755346069,2.5417,space,0.3777,0,30,30,2,1,3,image/3.jpg,0,0,,R_7PRxMH8tgtcALpe,2,2024-05-24_11h38.20.869,face trait task,2021.2.3,MacIntel,30.95975232,120284,,,,,,,
,,,,,,4.003578288,3.0592,space,0.181,0,31,31,41,1,42,image/42.jpg,0,0,,R_7PRxMH8tgtcALpe,2,2024-05-24_11h38.20.869,face trait task,2021.2.3,MacIntel,30.95975232,120284,,,,,,,
,,,,,,3.616104736,2.4747,space,0.2064,0,32,32,14,1,15,image/15.jpg,0,0,,R_7PRxMH8tgtcALpe,2,2024-05-24_11h38.20.869,face trait task,2021.2.3,MacIntel,30.95975232,120284,,,,,,,
,,,,,,4.215849202,1.7678,space,0.4792,0,33,33,4,1,5,image/5.jpg,0,0,,R_7PRxMH8tgtcALpe,2,2024-05-24_11h38.20.869,face trait task,2021.2.3,MacIntel,30.95975232,120284,,,,,,,
,,,,,,3.992027995,4.4517,space,0.1251,0,34,34,37,1,38,image/38.jpg,0,0,,R_7PRxMH8tgtcALpe,2,2024-05-24_11h38.20.869,face trait task,2021.2.3,MacIntel,30.95975232,120284,,,,,,,
,,,,,,4.210159912,2.5542,space,0.4063,0,35,35,19,1,20,image/20.jpg,0,0,,R_7PRxMH8tgtcALpe,2,2024-05-24_11h38.20.869,face trait task,2021.2.3,MacIntel,30.95975232,120284,,,,,,,
,,,,,,4.252825521,2.1456,space,0.8115,0,36,36,29,1,30,image/30.jpg,0,0,,R_7PRxMH8tgtcALpe,2,2024-05-24_11h38.20.869,face trait task,2021.2.3,MacIntel,30.95975232,120284,,,,,,,
,,,,,,2.361595866,2.2047,space,0.3631,0,37,37,0,1,1,image/1.jpg,0,0,,R_7PRxMH8tgtcALpe,2,2024-05-24_11h38.20.869,face trait task,2021.2.3,MacIntel,30.95975232,120284,,,,,,,
,,,,,,4.796074626,2.4907,space,0.3547,0,38,38,22,1,23,image/23.jpg,0,0,,R_7PRxMH8tgtcALpe,2,2024-05-24_11h38.20.869,face trait task,2021.2.3,MacIntel,30.95975232,120284,,,,,,,
,,,,,,3.509300944,1.9094,space,0.3362,0,39,39,5,1,6,image/6.jpg,0,0,,R_7PRxMH8tgtcALpe,2,2024-05-24_11h38.20.869,face trait task,2021.2.3,MacIntel,30.95975232,120284,,,,,,,
,,,,,,4.470768636,2.1114,space,0.2445,0,40,40,32,1,33,image/33.jpg,0,0,,R_7PRxMH8tgtcALpe,2,2024-05-24_11h38.20.869,face trait task,2021.2.3,MacIntel,30.95975232,120284,,,,,,,
,,,,,,3.159324544,1.989,space,0.234,0,41,41,47,1,48,image/48.jpg,0,0,,R_7PRxMH8tgtcALpe,2,2024-05-24_11h38.20.869,face trait task,2021.2.3,MacIntel,30.95975232,120284,,,,,,,
,,,,,,5.100745443,2.5057,space,0.3705,0,42,42,25,1,26,image/26.jpg,0,0,,R_7PRxMH8tgtcALpe,2,2024-05-24_11h38.20.869,face trait task,2021.2.3,MacIntel,30.95975232,120284,,,,,,,
,,,,,,5.276739502,2.8541,space,0.318,0,43,43,11,1,12,image/12.jpg,0,0,,R_7PRxMH8tgtcALpe,2,2024-05-24_11h38.20.869,face trait task,2021.2.3,MacIntel,30.95975232,120284,,,,,,,
,,,,,,4.624530436,3.1501,space,0.3872,0,44,44,10,1,11,image/11.jpg,0,0,,R_7PRxMH8tgtcALpe,2,2024-05-24_11h38.20.869,face trait task,2021.2.3,MacIntel,30.95975232,120284,,,,,,,
,,,,,,4.908928223,2.2782,space,0.3174,0,45,45,30,1,31,image/31.jpg,0,0,,R_7PRxMH8tgtcALpe,2,2024-05-24_11h38.20.869,face trait task,2021.2.3,MacIntel,30.95975232,120284,,,,,,,
,,,,,,3.183249512,1.9557,space,0.2395,0,46,46,6,1,7,image/7.jpg,0,0,,R_7PRxMH8tgtcALpe,2,2024-05-24_11h38.20.869,face trait task,2021.2.3,MacIntel,30.95975232,120284,,,,,,,
,,,,,,3.974066162,2.2673,space,0.4914,0,47,47,44,1,45,image/45.jpg,0,0,,R_7PRxMH8tgtcALpe,2,2024-05-24_11h38.20.869,face trait task,2021.2.3,MacIntel,30.95975232,120284,,,,,,,
,,,,,,2.411216838,2.1299,space,0.6857,0,48,48,1,1,2,image/2.jpg,0,0,,R_7PRxMH8tgtcALpe,2,2024-05-24_11h38.20.869,face trait task,2021.2.3,MacIntel,30.95975232,120284,,,,,,,
,,,,,,2.160223796,2.363,space,0.3898,0,49,49,48,1,49,image/49.jpg,0,0,,R_7PRxMH8tgtcALpe,2,2024-05-24_11h38.20.869,face trait task,2021.2.3,MacIntel,30.95975232,120284,,,,,,,
,,,,,,3.518447266,1.5714,space,0.2547,0,50,50,15,1,16,image/16.jpg,0,0,,R_7PRxMH8tgtcALpe,2,2024-05-24_11h38.20.869,face trait task,2021.2.3,MacIntel,30.95975232,120284,,,,,,,
,,,,,,3.885444743,1.7187,space,0.2069,0,51,51,3,1,4,image/4.jpg,0,0,,R_7PRxMH8tgtcALpe,2,2024-05-24_11h38.20.869,face trait task,2021.2.3,MacIntel,30.95975232,120284,,,,,,,
,,,,,,3.820225016,2.9359,space,0.1993,0,52,52,36,1,37,image/37.jpg,0,0,,R_7PRxMH8tgtcALpe,2,2024-05-24_11h38.20.869,face trait task,2021.2.3,MacIntel,30.95975232,120284,,,,,,,
,,,,,,,,,,,,,,,,,,,,R_7PRxMH8tgtcALpe,2,2024-05-24_11h38.20.869,face trait task,2021.2.3,MacIntel,30.95975232,120284,0,3,3,1,1,1,competent.png
