chooserow,ParID,pre_instru_resp_2.keys,pre_instru_resp_2.rt,pre_instru_resp_3.keys,pre_instru_resp_3.rt,pre_instru_resp_9.keys,pre_instru_resp_9.rt,pre_instru_resp_8.keys,pre_instru_resp_8.rt,pre_instru_resp_4.keys,pre_instru_resp_4.rt,pre_instru_resp_5.keys,pre_instru_resp_5.rt,pre_instru_resp_6.keys,pre_instru_resp_6.rt,key_resp_3.keys,key_resp_3.rt,key_resp_4.keys,key_resp_4.rt,key_resp_5.keys,key_resp_5.rt,key_resp_6.keys,key_resp_6.rt,key_resp_7.keys,key_resp_7.rt,trials_2.thisRepN,trials_2.thisTrialN,trials_2.thisN,trials_2.thisIndex,trials_2.ran,participant,session,date,expName,psychopyVersion,OS,frameRate,SONAid,pre_instru_resp.keys,pre_instru_resp.rt,clicked,judge_2.x,judge_2.y,judge_2.leftButton,judge_2.midButton,judge_2.rightButton,trials.thisRepN,trials.thisTrialN,trials.thisN,trials.thisIndex,trials.ran,prac_answer,prac_dot_sti,dotlefttext,dotrighttext,judge_2.clicked_name,prac_acc,judge.x,judge.y,judge.leftButton,judge.midButton,judge.rightButton,judge.clicked_name,clicked_guilt,slider_guilt.response,slider_guilt.rt,key_guilt.keys,share_slider.response,share_slider.rt,key_share.keys,slider_apology.response,slider_apology.rt,key_apology.keys,slider_hide.response,slider_hide.rt,slider_forgiveness.response,slider_forgiveness.rt,key_forgiveness.keys,key_forgiveness.rt,slider_mad.response,slider_mad.rt,trialseq.thisRepN,trialseq.thisTrialN,trialseq.thisN,trialseq.thisIndex,trialseq.ran,type_trial,stipic,DV,picture,answer,number,key_guilt.rt,key_apology.rt,incompleteTrials,key_share.rt,trials_redo.thisRepN,trials_redo.thisTrialN,trials_redo.thisN,trials_redo.thisIndex,trials_redo.ran
"[84,146,133,76,199,182,155,170,66,63,30,196,67,42,176,111,161,129,2,156,185,116,163,134,186,175,126,152,102,121,92,55,98,73,89,14,141,58,80,101,57,118]",R_7smoBYcMfiEmyTu,space,1.7218,space,10.1706,space,28.4335,space,16.6093,space,337.5487,space,30.2461,space,53.0221,2,7.7464,3,7.2138,2,15.4727,2,15.6986,3,5.1272,0,0,0,0,1,R_7smoBYcMfiEmyTu,1,2024-05-20_14h55.21.197,interaction task,2021.2.3,MacIntel,58.47953216,120750,,,,,,,,,,,,,,,,,,,,,,,,,,,,,,,,,,,,,,,,,,,,,,,,,,,,,,,,,,,,,,,
,,,,space,1.0083,space,0.4714,space,5.7032,space,12.2637,space,2.9518,space,1.3334,1,3.3403,1,6.2842,3,6.0306,2,3.0813,2,1.7326,1,0,1,0,1,R_7smoBYcMfiEmyTu,1,2024-05-20_14h55.21.197,interaction task,2021.2.3,MacIntel,58.47953216,120750,,,,,,,,,,,,,,,,,,,,,,,,,,,,,,,,,,,,,,,,,,,,,,,,,,,,,,,,,,,,,,,
,,,,space,0.8123,space,7.9431,space,0.3243,space,0.4639,space,1.2826,space,1.1631,3,1.603,1,31.9919,3,2.6971,2,4.0468,2,0.618,2,0,2,0,1,R_7smoBYcMfiEmyTu,1,2024-05-20_14h55.21.197,interaction task,2021.2.3,MacIntel,58.47953216,120750,,,,,,,,,,,,,,,,,,,,,,,,,,,,,,,,,,,,,,,,,,,,,,,,,,,,,,,,,,,,,,,
,,,,,,,,,,,,,,,,,,,,,,,,,,,,,,,R_7smoBYcMfiEmyTu,1,2024-05-20_14h55.21.197,interaction task,2021.2.3,MacIntel,58.47953216,120750,space,0.9765,[],0.124390685,-0.300629845,0,0,0,0,0,0,2,1,RightButton_2,11dot1.png,Smaller,Greater,,,,,,,,,,,,,,,,,,,,,,,,,,,,,,,,,,,,,,,,,,,,,,
,,,,,,,,,,,,,,,,,,,,,,,,,,,,,,,R_7smoBYcMfiEmyTu,1,2024-05-20_14h55.21.197,interaction task,2021.2.3,MacIntel,58.47953216,120750,,,"[""LeftButton_2""]",-0.306430985,-0.340853117,1,0,0,0,1,1,1,1,LeftButton_2,9dot2.png,Smaller,Greater,LeftButton_2,,,,,,,,,,,,,,,,,,,,,,,,,,,,,,,,,,,,,,,,,,,,,
,,,,,,,,,,,,,,,,,,,,,,,,,,,,,,,R_7smoBYcMfiEmyTu,1,2024-05-20_14h55.21.197,interaction task,2021.2.3,MacIntel,58.47953216,120750,,,"[""LeftButton_2""]",-0.250349903,-0.302729328,1,0,0,0,2,2,0,1,RightButton_2,9dot2.png,Greater,Smaller,LeftButton_2,,,,,,,,,,,,,,,,,,,,,,,,,,,,,,,,,,,,,,,,,,,,,
,,,,,,,,,,,,,,,,,,,,,,,,,,,,,,,R_7smoBYcMfiEmyTu,1,2024-05-20_14h55.21.197,interaction task,2021.2.3,MacIntel,58.47953216,120750,,,,,,,,,,,,,,,,Greater,Smaller,,0.2,-0.26245777,-0.49969719,1,0,0,LeftButton,"[""LeftButton""]",,,,,,,,,,,,99.83595609,5.8121,space,1.1612,79.23479486,8.9528,0,0,0,0,1,1,both_wrong.png,3,RandomDot6.png,No answer,20,,,,,,,,,
,,,,,,,,,,,,,,,,,,,,,,,,,,,,,,,R_7smoBYcMfiEmyTu,1,2024-05-20_14h55.21.197,interaction task,2021.2.3,MacIntel,58.47953216,120750,,,,,,,,,,,,,,,,Greater,Smaller,,,0.261993243,-0.530240633,1,0,0,RightButton,"[""RightButton""]",61,2.7051,space,,,,,,,,,,,,,,,0,1,1,1,1,3,only_sub_wrong.png,0,RandomDot38.png,No answer,21,0.8506,,,,,,,,
,,,,,,,,,,,,,,,,,,,,,,,,,,,,,,,R_7smoBYcMfiEmyTu,1,2024-05-20_14h55.21.197,interaction task,2021.2.3,MacIntel,58.47953216,120750,,,,,,,,,,,,,,,,Greater,Smaller,,,-0.260581564,-0.518966005,1,0,0,LeftButton,"[""LeftButton""]",,,,,,,,,,,,99.97611248,3.7192,space,0.4209,0,5.1349,0,2,2,2,1,2,only_sub_right.png,3,RandomDot36.png,No answer,20,,,,,,,,,
,,,,,,,,,,,,,,,,,,,,,,,,,,,,,,,R_7smoBYcMfiEmyTu,1,2024-05-20_14h55.21.197,interaction task,2021.2.3,MacIntel,58.47953216,120750,,,,,,,,,,,,,,,,Greater,Smaller,,,0.272267133,-0.537528262,1,0,0,RightButton,"[""RightButton""]",,,,,,,0,5.5122,space,60,13.3879,,,,,,,0,3,3,3,1,1,both_wrong.png,2,RandomDot9.png,No answer,21,,3.1448,,,,,,,
,,,,,,,,,,,,,,,,,,,,,,,,,,,,,,,R_7smoBYcMfiEmyTu,1,2024-05-20_14h55.21.197,interaction task,2021.2.3,MacIntel,58.47953216,120750,,,,,,,,,,,,,,,,Greater,Smaller,,,0.118671573,-0.514070575,0,0,0,,[],,,,,,,,,,,,,,,,,,0,4,4,4,1,5,both_right.png,10,RandomDot42.png,RightButton,19,,,199,,,,,,
,,,,,,,,,,,,,,,,,,,,,,,,,,,,,,,R_7smoBYcMfiEmyTu,1,2024-05-20_14h55.21.197,interaction task,2021.2.3,MacIntel,58.47953216,120750,,,,,,,,,,,,,,,,Greater,Smaller,,,-0.225808398,-0.513293362,1,0,0,LeftButton,"[""LeftButton""]",,,,,,,,,,,,61.57143345,4.1703,space,1.9003,38.65830116,7.0368,0,5,5,5,1,3,only_sub_wrong.png,3,RandomDot8.png,No answer,21,,,,,,,,,
,,,,,,,,,,,,,,,,,,,,,,,,,,,,,,,R_7smoBYcMfiEmyTu,1,2024-05-20_14h55.21.197,interaction task,2021.2.3,MacIntel,58.47953216,120750,,,,,,,,,,,,,,,,Smaller,Greater,,,0.306412886,-0.506136951,1,0,0,RightButton,"[""RightButton""]",40,1.4543,space,,,,,,,,,,,,,,,0,6,6,6,1,3,only_sub_wrong.png,0,RandomDot2.png,No answer,20,1.0182,,,,,,,,
,,,,,,,,,,,,,,,,,,,,,,,,,,,,,,,R_7smoBYcMfiEmyTu,1,2024-05-20_14h55.21.197,interaction task,2021.2.3,MacIntel,58.47953216,120750,,,,,,,,,,,,,,,,Greater,Smaller,,,0.098727075,-0.263384205,0,0,0,,[],,,,,,,,,,,,,,,,,,0,7,7,7,1,3,only_sub_wrong.png,2,RandomDot39.png,No answer,20,,,170,,,,,,
,,,,,,,,,,,,,,,,,,,,,,,,,,,,,,,R_7smoBYcMfiEmyTu,1,2024-05-20_14h55.21.197,interaction task,2021.2.3,MacIntel,58.47953216,120750,,,,,,,,,,,,,,,,Smaller,Greater,,,-0.284519788,-0.510184512,1,0,0,LeftButton,"[""LeftButton""]",,,,0.459580116,10.5077,space,,,,,,,,,,,,0,8,8,8,1,1,both_wrong.png,1,RandomDot10.png,No answer,19,,,,4.4155,,,,,
,,,,,,,,,,,,,,,,,,,,,,,,,,,,,,,R_7smoBYcMfiEmyTu,1,2024-05-20_14h55.21.197,interaction task,2021.2.3,MacIntel,58.47953216,120750,,,,,,,,,,,,,,,,Greater,Smaller,,,0.28754223,-0.538295381,1,0,0,RightButton,"[""RightButton""]",,,,0,7.3377,space,,,,,,,,,,,,0,9,9,9,1,1,both_wrong.png,1,RandomDot27.png,No answer,19,,,,3.002,,,,,
,,,,,,,,,,,,,,,,,,,,,,,,,,,,,,,R_7smoBYcMfiEmyTu,1,2024-05-20_14h55.21.197,interaction task,2021.2.3,MacIntel,58.47953216,120750,,,,,,,,,,,,,,,,Smaller,Greater,,,0.349638031,-0.527939276,1,0,0,RightButton,"[""RightButton""]",,,,,,,,,,,,,,,,,,0,10,10,10,1,0,both_right.png,2,RandomDot24.png,No answer,21,,,,,,,,,
,,,,,,,,,,,,,,,,,,,,,,,,,,,,,,,R_7smoBYcMfiEmyTu,1,2024-05-20_14h55.21.197,interaction task,2021.2.3,MacIntel,58.47953216,120750,,,,,,,,,,,,,,,,Smaller,Greater,,,0.253040541,-0.514595446,1,0,0,RightButton,"[""RightButton""]",,,,,,,,,,,,,,,,,,0,11,11,11,1,4,both_right.png,10,RandomDot41.png,RightButton,5,,,,,,,,,
,,,,,,,,,,,,,,,,,,,,,,,,,,,,,,,R_7smoBYcMfiEmyTu,1,2024-05-20_14h55.21.197,interaction task,2021.2.3,MacIntel,58.47953216,120750,,,,,,,,,,,,,,,,Smaller,Greater,,,-0.293333736,-0.509599079,1,0,0,LeftButton,"[""LeftButton""]",,,,0.011944981,2.2616,space,,,,,,,,,,,,0,12,12,12,1,1,both_wrong.png,1,RandomDot17.png,No answer,20,,,,0.7441,,,,,
,,,,,,,,,,,,,,,,,,,,,,,,,,,,,,,R_7smoBYcMfiEmyTu,1,2024-05-20_14h55.21.197,interaction task,2021.2.3,MacIntel,58.47953216,120750,,,,,,,,,,,,,,,,Smaller,Greater,,,0.300729971,-0.530654474,1,0,0,RightButton,"[""RightButton""]",,,,,,,,,,,,,,,,,,0,13,13,13,1,0,both_right.png,3,RandomDot11.png,No answer,20,,,,,,,,,
,,,,,,,,,,,,,,,,,,,,,,,,,,,,,,,R_7smoBYcMfiEmyTu,1,2024-05-20_14h55.21.197,interaction task,2021.2.3,MacIntel,58.47953216,120750,,,,,,,,,,,,,,,,Smaller,Greater,,,-0.322146477,-0.574460998,0,0,0,,[],,,,,,,,,,,,,,,,,,0,14,14,14,1,3,only_sub_wrong.png,2,RandomDot40.png,No answer,20,,,176,,,,,,
,,,,,,,,,,,,,,,,,,,,,,,,,,,,,,,R_7smoBYcMfiEmyTu,1,2024-05-20_14h55.21.197,interaction task,2021.2.3,MacIntel,58.47953216,120750,,,,,,,,,,,,,,,,Greater,Smaller,,,0.273877896,-0.50208939,1,0,0,RightButton,"[""RightButton""]",,,,0,2.8041,space,,,,,,,,,,,,0,15,15,15,1,2,only_sub_right.png,1,RandomDot4.png,No answer,19,,,,2.0269,,,,,
,,,,,,,,,,,,,,,,,,,,,,,,,,,,,,,R_7smoBYcMfiEmyTu,1,2024-05-20_14h55.21.197,interaction task,2021.2.3,MacIntel,58.47953216,120750,,,,,,,,,,,,,,,,Greater,Smaller,,,-0.268267375,-0.507550065,1,0,0,LeftButton,"[""LeftButton""]",,,,0.325681708,2.3717,space,,,,,,,,,,,,0,16,16,16,1,3,only_sub_wrong.png,1,RandomDot36.png,No answer,19,,,,2.1661,,,,,
,,,,,,,,,,,,,,,,,,,,,,,,,,,,,,,R_7smoBYcMfiEmyTu,1,2024-05-20_14h55.21.197,interaction task,2021.2.3,MacIntel,58.47953216,120750,,,,,,,,,,,,,,,,Smaller,Greater,,,-0.286383929,-0.513757671,1,0,0,LeftButton,"[""LeftButton""]",,,,,,,0,4.9703,space,20,9.2037,,,,,,,0,17,17,17,1,2,only_sub_right.png,2,RandomDot37.png,No answer,19,,2.9477,,,,,,,
,,,,,,,,,,,,,,,,,,,,,,,,,,,,,,,R_7smoBYcMfiEmyTu,1,2024-05-20_14h55.21.197,interaction task,2021.2.3,MacIntel,58.47953216,120750,,,,,,,,,,,,,,,,Greater,Smaller,,,-0.5668014,-0.150294735,0,0,0,,[],,,,,,,,,,,,,,,,,,0,18,18,18,1,0,both_right.png,0,RandomDot3.png,No answer,21,,,2,,,,,,
,,,,,,,,,,,,,,,,,,,,,,,,,,,,,,,R_7smoBYcMfiEmyTu,1,2024-05-20_14h55.21.197,interaction task,2021.2.3,MacIntel,58.47953216,120750,,,,,,,,,,,,,,,,Greater,Smaller,,,-0.28508084,-0.516745397,1,0,0,LeftButton,"[""LeftButton""]",,,,0.018671573,3.8953,space,,,,,,,,,,,,0,19,19,19,1,3,only_sub_wrong.png,1,RandomDot4.png,No answer,20,,,,0.8081,,,,,
,,,,,,,,,,,,,,,,,,,,,,,,,,,,,,,R_7smoBYcMfiEmyTu,1,2024-05-20_14h55.21.197,interaction task,2021.2.3,MacIntel,58.47953216,120750,,,,,,,,,,,,,,,,Greater,Smaller,,,-0.299052847,-0.488412468,1,0,0,LeftButton,"[""LeftButton""]",,,,,,,,,,,,39.22623923,2.6523,space,0.6388,50.05850006,4.4523,0,20,20,20,1,3,only_sub_wrong.png,3,RandomDot34.png,No answer,20,,,,,,,,,
,,,,,,,,,,,,,,,,,,,,,,,,,,,,,,,R_7smoBYcMfiEmyTu,1,2024-05-20_14h55.21.197,interaction task,2021.2.3,MacIntel,58.47953216,120750,,,,,,,,,,,,,,,,Smaller,Greater,,,0.339901062,-0.52002584,1,0,0,RightButton,"[""RightButton""]",,,,0,8.9082,space,,,,,,,,,,,,0,21,21,21,1,2,only_sub_right.png,1,RandomDot25.png,No answer,19,,,,1.2369,,,,,
,,,,,,,,,,,,,,,,,,,,,,,,,,,,,,,R_7smoBYcMfiEmyTu,1,2024-05-20_14h55.21.197,interaction task,2021.2.3,MacIntel,58.47953216,120750,,,,,,,,,,,,,,,,Smaller,Greater,,,0.326701255,-0.521489422,1,0,0,RightButton,"[""RightButton""]",,,,1.007691844,3.4148,space,,,,,,,,,,,,0,22,22,22,1,3,only_sub_wrong.png,1,RandomDot6.png,No answer,20,,,,0.4179,,,,,
,,,,,,,,,,,,,,,,,,,,,,,,,,,,,,,R_7smoBYcMfiEmyTu,1,2024-05-20_14h55.21.197,interaction task,2021.2.3,MacIntel,58.47953216,120750,,,,,,,,,,,,,,,,Greater,Smaller,,,0.254132481,-0.515251534,1,0,0,RightButton,"[""RightButton""]",,,,,,,,,,,,100,2.4029,space,1.3169,0,5.8214,0,23,23,23,1,2,only_sub_right.png,3,RandomDot22.png,No answer,20,,,,,,,,,
,,,,,,,,,,,,,,,,,,,,,,,,,,,,,,,R_7smoBYcMfiEmyTu,1,2024-05-20_14h55.21.197,interaction task,2021.2.3,MacIntel,58.47953216,120750,,,,,,,,,,,,,,,,Smaller,Greater,,,-0.288579875,-0.538275194,0,0,0,,[],,,,,,,,,,,,,,,,,,0,24,24,24,1,3,only_sub_wrong.png,3,RandomDot9.png,No answer,19,,,186,,,,,,
,,,,,,,,,,,,,,,,,,,,,,,,,,,,,,,R_7smoBYcMfiEmyTu,1,2024-05-20_14h55.21.197,interaction task,2021.2.3,MacIntel,58.47953216,120750,,,,,,,,,,,,,,,,Smaller,Greater,,,-0.255658784,-0.517875888,1,0,0,LeftButton,"[""LeftButton""]",,,,,,,0,6.2879,space,89,13.4633,,,,,,,0,25,25,25,1,3,only_sub_wrong.png,2,RandomDot17.png,No answer,19,,1.165,,,,,,,
,,,,,,,,,,,,,,,,,,,,,,,,,,,,,,,R_7smoBYcMfiEmyTu,1,2024-05-20_14h55.21.197,interaction task,2021.2.3,MacIntel,58.47953216,120750,,,,,,,,,,,,,,,,Smaller,Greater,,,0.295294402,-0.508821867,1,0,0,RightButton,"[""RightButton""]",,,,,,,0,2.12,space,100,5.7614,,,,,,,0,26,26,26,1,2,only_sub_right.png,2,RandomDot34.png,No answer,20,,0.612,,,,,,,
,,,,,,,,,,,,,,,,,,,,,,,,,,,,,,,R_7smoBYcMfiEmyTu,1,2024-05-20_14h55.21.197,interaction task,2021.2.3,MacIntel,58.47953216,120750,,,,,,,,,,,,,,,,Smaller,Greater,,,0.31074445,-0.51603884,1,0,0,RightButton,"[""RightButton""]",38,4.713,space,,,,,,,,,,,,,,,0,27,27,27,1,3,only_sub_wrong.png,0,RandomDot9.png,No answer,19,0.4552,,,,,,,,
,,,,,,,,,,,,,,,,,,,,,,,,,,,,,,,R_7smoBYcMfiEmyTu,1,2024-05-20_14h55.21.197,interaction task,2021.2.3,MacIntel,58.47953216,120750,,,,,,,,,,,,,,,,Smaller,Greater,,,0.293973214,-0.50599564,1,0,0,RightButton,"[""RightButton""]",0,6.6799,space,,,,,,,,,,,,,,,0,28,28,28,1,2,only_sub_right.png,0,RandomDot16.png,No answer,21,0.6673,,,,,,,,
,,,,,,,,,,,,,,,,,,,,,,,,,,,,,,,R_7smoBYcMfiEmyTu,1,2024-05-20_14h55.21.197,interaction task,2021.2.3,MacIntel,58.47953216,120750,,,,,,,,,,,,,,,,Greater,Smaller,,,0.260014479,-0.538113695,1,0,0,RightButton,"[""RightButton""]",,,,,,,0,1.7725,space,100,3.5893,,,,,,,0,29,29,29,1,2,only_sub_right.png,2,RandomDot18.png,No answer,19,,0.6705,,,,,,,
,,,,,,,,,,,,,,,,,,,,,,,,,,,,,,,R_7smoBYcMfiEmyTu,1,2024-05-20_14h55.21.197,interaction task,2021.2.3,MacIntel,58.47953216,120750,,,,,,,,,,,,,,,,Smaller,Greater,,,-0.267742519,-0.524315649,1,0,0,LeftButton,"[""LeftButton""]",,,,,,,,,,,,20.78043953,6.9199,space,1.7348,48.75870188,5.7775,0,30,30,30,1,1,both_wrong.png,3,RandomDot7.png,No answer,21,,,,,,,,,
,,,,,,,,,,,,,,,,,,,,,,,,,,,,,,,R_7smoBYcMfiEmyTu,1,2024-05-20_14h55.21.197,interaction task,2021.2.3,MacIntel,58.47953216,120750,,,,,,,,,,,,,,,,Smaller,Greater,,,0.298558156,-0.494024548,1,0,0,RightButton,"[""RightButton""]",21,2.4885,space,,,,,,,,,,,,,,,0,31,31,31,1,1,both_wrong.png,0,RandomDot28.png,No answer,19,0.4624,,,,,,,,
,,,,,,,,,,,,,,,,,,,,,,,,,,,,,,,R_7smoBYcMfiEmyTu,1,2024-05-20_14h55.21.197,interaction task,2021.2.3,MacIntel,58.47953216,120750,,,,,,,,,,,,,,,,Greater,Smaller,,,-0.259411197,-0.514645914,1,0,0,LeftButton,"[""LeftButton""]",0,2.5308,space,,,,,,,,,,,,,,,0,32,32,32,1,2,only_sub_right.png,0,RandomDot16.png,No answer,20,0.6502,,,,,,,,
,,,,,,,,,,,,,,,,,,,,,,,,,,,,,,,R_7smoBYcMfiEmyTu,1,2024-05-20_14h55.21.197,interaction task,2021.2.3,MacIntel,58.47953216,120750,,,,,,,,,,,,,,,,Greater,Smaller,,,-0.303740347,-0.501988453,1,0,0,LeftButton,"[""LeftButton""]",,,,,,,0,7.0744,space,60,8.3233,,,,,,,0,33,33,33,1,1,both_wrong.png,2,RandomDot24.png,No answer,19,,0.8432,,,,,,,
,,,,,,,,,,,,,,,,,,,,,,,,,,,,,,,R_7smoBYcMfiEmyTu,1,2024-05-20_14h55.21.197,interaction task,2021.2.3,MacIntel,58.47953216,120750,,,,,,,,,,,,,,,,Greater,Smaller,,,-0.277214044,-0.512647368,1,0,0,LeftButton,"[""LeftButton""]",,,,,,,,,,,,8.322364572,6.0608,space,2.5966,89.51435201,3.619,0,34,34,34,1,1,both_wrong.png,3,RandomDot6.png,No answer,21,,,,,,,,,
,,,,,,,,,,,,,,,,,,,,,,,,,,,,,,,R_7smoBYcMfiEmyTu,1,2024-05-20_14h55.21.197,interaction task,2021.2.3,MacIntel,58.47953216,120750,,,,,,,,,,,,,,,,Greater,Smaller,,,-0.296645753,-0.494307171,1,0,0,LeftButton,"[""LeftButton""]",,,,,,,,,,,,,,,,,,0,35,35,35,1,0,both_right.png,1,RandomDot29.png,No answer,21,,,,,,,,,
,,,,,,,,,,,,,,,,,,,,,,,,,,,,,,,R_7smoBYcMfiEmyTu,1,2024-05-20_14h55.21.197,interaction task,2021.2.3,MacIntel,58.47953216,120750,,,,,,,,,,,,,,,,Smaller,Greater,,,0.256853282,-0.495730378,1,0,0,RightButton,"[""RightButton""]",,,,,,,,,,,,28.89793202,7.4946,space,0.7527,80.9501872,9.8702,0,36,36,36,1,2,only_sub_right.png,3,RandomDot7.png,No answer,20,,,,,,,,,
,,,,,,,,,,,,,,,,,,,,,,,,,,,,,,,R_7smoBYcMfiEmyTu,1,2024-05-20_14h55.21.197,interaction task,2021.2.3,MacIntel,58.47953216,120750,,,,,,,,,,,,,,,,Smaller,Greater,,,0.330592423,-0.49279312,1,0,0,RightButton,"[""RightButton""]",10,144.6737,space,,,,,,,,,,,,,,,0,37,37,37,1,1,both_wrong.png,0,RandomDot34.png,No answer,19,131.6607,,,,,,,,
,,,,,,,,,,,,,,,,,,,,,,,,,,,,,,,R_7smoBYcMfiEmyTu,1,2024-05-20_14h55.21.197,interaction task,2021.2.3,MacIntel,58.47953216,120750,,,,,,,,,,,,,,,,Smaller,Greater,,,0.303728282,-0.536488614,1,0,0,RightButton,"[""RightButton""]",,,,,,,10,92.4818,space,72,111.3674,,,,,,,0,38,38,38,1,1,both_wrong.png,2,RandomDot8.png,No answer,20,,0.9818,,,,,,,
,,,,,,,,,,,,,,,,,,,,,,,,,,,,,,,R_7smoBYcMfiEmyTu,1,2024-05-20_14h55.21.197,interaction task,2021.2.3,MacIntel,58.47953216,120750,,,,,,,,,,,,,,,,Greater,Smaller,,,-0.252232143,-0.516028747,1,0,0,LeftButton,"[""LeftButton""]",0,11.6471,space,,,,,,,,,,,,,,,0,39,39,39,1,2,only_sub_right.png,0,RandomDot18.png,No answer,21,5.0137,,,,,,,,
,,,,,,,,,,,,,,,,,,,,,,,,,,,,,,,R_7smoBYcMfiEmyTu,1,2024-05-20_14h55.21.197,interaction task,2021.2.3,MacIntel,58.47953216,120750,,,,,,,,,,,,,,,,Smaller,Greater,,,-0.366837597,-0.52825218,0,0,0,,[],,,,,,,,,,,,,,,,,,0,40,40,40,1,1,both_wrong.png,0,RandomDot22.png,No answer,21,,,57,,,,,,
,,,,,,,,,,,,,,,,,,,,,,,,,,,,,,,R_7smoBYcMfiEmyTu,1,2024-05-20_14h55.21.197,interaction task,2021.2.3,MacIntel,58.47953216,120750,,,,,,,,,,,,,,,,Smaller,Greater,,,-0.28077944,-0.497769299,1,0,0,LeftButton,"[""LeftButton""]",,,,0.000241313,6.5291,space,,,,,,,,,,,,0,41,41,41,1,2,only_sub_right.png,1,RandomDot34.png,No answer,19,,,,0.9152,,,,,
,,,,,,,,,,,,,,,,,,,,,,,,,,,,,,,R_7smoBYcMfiEmyTu,1,2024-05-20_14h55.21.197,interaction task,2021.2.3,MacIntel,58.47953216,120750,,,,,,,,,,,,,,,,Greater,Smaller,,,0.324173504,-0.535388404,1,0,0,RightButton,"[""RightButton""]",,,,,,,,,,,,,,,,,,,,,,,0,both_right.png,0,RandomDot3.png,No answer,21,,,,,0,0,0,3,1
,,,,,,,,,,,,,,,,,,,,,,,,,,,,,,,R_7smoBYcMfiEmyTu,1,2024-05-20_14h55.21.197,interaction task,2021.2.3,MacIntel,58.47953216,120750,,,,,,,,,,,,,,,,Smaller,Greater,,,0.291789334,-0.507994186,1,0,0,RightButton,"[""RightButton""]",,,,,,,,,,,,8.917115167,4.01,space,0.8301,79.73509224,5.4542,,,,,,3,only_sub_wrong.png,3,RandomDot9.png,No answer,19,,,,,0,1,1,4,1
,,,,,,,,,,,,,,,,,,,,,,,,,,,,,,,R_7smoBYcMfiEmyTu,1,2024-05-20_14h55.21.197,interaction task,2021.2.3,MacIntel,58.47953216,120750,,,,,,,,,,,,,,,,Smaller,Greater,,,0.257498793,-0.513969638,1,0,0,RightButton,"[""RightButton""]",,,,,,,20,2.9943,space,69,4.7195,,,,,,,,,,,,3,only_sub_wrong.png,2,RandomDot40.png,No answer,20,,0.6969,,,0,2,2,2,1
,,,,,,,,,,,,,,,,,,,,,,,,,,,,,,,R_7smoBYcMfiEmyTu,1,2024-05-20_14h55.21.197,interaction task,2021.2.3,MacIntel,58.47953216,120750,,,,,,,,,,,,,,,,Greater,Smaller,,,-0.266885859,-0.532400678,1,0,0,LeftButton,"[""LeftButton""]",,,,,,,21,1.5697,space,61,2.7699,,,,,,,,,,,,3,only_sub_wrong.png,2,RandomDot39.png,No answer,20,,0.4708,,,0,3,3,1,1
,,,,,,,,,,,,,,,,,,,,,,,,,,,,,,,R_7smoBYcMfiEmyTu,1,2024-05-20_14h55.21.197,interaction task,2021.2.3,MacIntel,58.47953216,120750,,,,,,,,,,,,,,,,Smaller,Greater,,,0.288030888,-0.483365633,1,0,0,RightButton,"[""RightButton""]",6,4.5802,space,,,,,,,,,,,,,,,,,,,,1,both_wrong.png,0,RandomDot22.png,No answer,21,0.4939,,,,0,4,4,5,1
,,,,,,,,,,,,,,,,,,,,,,,,,,,,,,,R_7smoBYcMfiEmyTu,1,2024-05-20_14h55.21.197,interaction task,2021.2.3,MacIntel,58.47953216,120750,,,,,,,,,,,,,,,,Greater,Smaller,,,-0.268442326,-0.535802245,1,0,0,LeftButton,"[""LeftButton""]",,,,,,,,,,,,,,,,,,,,,,,5,both_right.png,10,RandomDot42.png,RightButton,19,,,,,0,5,5,0,1
