chooserow,ParID,pre_instru_resp_2.keys,pre_instru_resp_2.rt,pre_instru_resp_3.keys,pre_instru_resp_3.rt,pre_instru_resp_9.keys,pre_instru_resp_9.rt,pre_instru_resp_8.keys,pre_instru_resp_8.rt,pre_instru_resp_4.keys,pre_instru_resp_4.rt,pre_instru_resp_5.keys,pre_instru_resp_5.rt,pre_instru_resp_6.keys,pre_instru_resp_6.rt,key_resp_3.keys,key_resp_3.rt,key_resp_4.keys,key_resp_4.rt,key_resp_5.keys,key_resp_5.rt,key_resp_6.keys,key_resp_6.rt,key_resp_7.keys,key_resp_7.rt,trials_2.thisRepN,trials_2.thisTrialN,trials_2.thisN,trials_2.thisIndex,trials_2.ran,participant,session,date,expName,psychopyVersion,OS,frameRate,SONAid,pre_instru_resp.keys,pre_instru_resp.rt,clicked,judge_2.x,judge_2.y,judge_2.leftButton,judge_2.midButton,judge_2.rightButton,judge_2.clicked_name,trials.thisRepN,trials.thisTrialN,trials.thisN,trials.thisIndex,trials.ran,prac_answer,prac_dot_sti,dotlefttext,dotrighttext,prac_acc,judge.x,judge.y,judge.leftButton,judge.midButton,judge.rightButton,judge.clicked_name,clicked_guilt,slider_guilt.response,slider_guilt.rt,key_guilt.keys,key_guilt.rt,share_slider.response,share_slider.rt,key_share.keys,slider_apology.response,slider_apology.rt,key_apology.keys,slider_hide.response,slider_hide.rt,slider_forgiveness.response,slider_forgiveness.rt,key_forgiveness.keys,slider_mad.response,slider_mad.rt,trialseq.thisRepN,trialseq.thisTrialN,trialseq.thisN,trialseq.thisIndex,trialseq.ran,type_trial,stipic,DV,picture,answer,number,key_apology.rt,incompleteTrials,key_forgiveness.rt,key_share.rt,trials_redo.thisRepN,trials_redo.thisTrialN,trials_redo.thisN,trials_redo.thisIndex,trials_redo.ran
"[146,57,33,17,53,75,177,48,191,154,139,159,68,199,109,192,91,11,98,186,73,125,101,69,168,124,115,136,170,162,158,99,79,150,85,62,142,40,130,84,117,190]",R_809hAgXHcl3WkRr,space,1.6855,space,5.0365,space,18.0786,space,27.2195,space,38.4707,space,25.8045,space,6.0891,1,18.3994,1,49.3883,3,12.372,1,17.4847,3,4.5725,0,0,0,0,1,R_809hAgXHcl3WkRr,1,2024-05-20_11h34.54.831,interaction task,2021.2.3,MacIntel,59.88023952,120223,,,,,,,,,,,,,,,,,,,,,,,,,,,,,,,,,,,,,,,,,,,,,,,,,,,,,,,,,,,,,,,
,,,,space,1.2295,space,19.0298,space,1.2246,space,31.4039,space,3.5958,space,0.6279,3,6.9824,1,4.4438,3,3.8986,2,4.6494,2,7.2787,1,0,1,0,1,R_809hAgXHcl3WkRr,1,2024-05-20_11h34.54.831,interaction task,2021.2.3,MacIntel,59.88023952,120223,,,,,,,,,,,,,,,,,,,,,,,,,,,,,,,,,,,,,,,,,,,,,,,,,,,,,,,,,,,,,,,
,,,,,,,,,,,,,,,,,,,,,,,,,,,,,,,R_809hAgXHcl3WkRr,1,2024-05-20_11h34.54.831,interaction task,2021.2.3,MacIntel,59.88023952,120223,space,4.8613,"[""LeftButton_2""]",-0.267777423,-0.328617527,1,0,0,LeftButton_2,0,0,0,2,1,RightButton_2,11dot1.png,Smaller,Greater,,,,,,,,,,,,,,,,,,,,,,,,,,,,,,,,,,,,,,,,,,,,,
,,,,,,,,,,,,,,,,,,,,,,,,,,,,,,,R_809hAgXHcl3WkRr,1,2024-05-20_11h34.54.831,interaction task,2021.2.3,MacIntel,59.88023952,120223,,,"[""LeftButton_2""]",-0.250791879,-0.318316916,1,0,0,LeftButton_2,0,1,1,1,1,RightButton_2,9dot1.png,Greater,Smaller,,,,,,,,,,,,,,,,,,,,,,,,,,,,,,,,,,,,,,,,,,,,,
,,,,,,,,,,,,,,,,,,,,,,,,,,,,,,,R_809hAgXHcl3WkRr,1,2024-05-20_11h34.54.831,interaction task,2021.2.3,MacIntel,59.88023952,120223,,,"[""RightButton_2""]",0.281122449,-0.271238111,1,0,0,RightButton_2,0,2,2,0,1,LeftButton_2,9dot2.png,Smaller,Greater,,,,,,,,,,,,,,,,,,,,,,,,,,,,,,,,,,,,,,,,,,,,,
,,,,,,,,,,,,,,,,,,,,,,,,,,,,,,,R_809hAgXHcl3WkRr,1,2024-05-20_11h34.54.831,interaction task,2021.2.3,MacIntel,59.88023952,120223,,,,,,,,,,,,,,,,,Greater,Smaller,0,-0.232254464,-0.494420856,1,0,0,LeftButton,"[""LeftButton""]",20,16.2928,space,4.8511,,,,,,,,,,,,,,0,0,0,0,1,3,only_sub_wrong.png,0,RandomDot38.png,No answer,21,,,,,,,,,
,,,,,,,,,,,,,,,,,,,,,,,,,,,,,,,R_809hAgXHcl3WkRr,1,2024-05-20_11h34.54.831,interaction task,2021.2.3,MacIntel,59.88023952,120223,,,,,,,,,,,,,,,,,Smaller,Greater,,-0.267171556,-0.536039402,1,0,0,LeftButton,"[""LeftButton""]",0,1.8038,space,0.4474,,,,,,,,,,,,,,0,1,1,1,1,1,both_wrong.png,0,RandomDot22.png,No answer,21,,,,,,,,,
,,,,,,,,,,,,,,,,,,,,,,,,,,,,,,,R_809hAgXHcl3WkRr,1,2024-05-20_11h34.54.831,interaction task,2021.2.3,MacIntel,59.88023952,120223,,,,,,,,,,,,,,,,,Smaller,Greater,,0.332892219,-0.484909986,1,0,0,RightButton,"[""RightButton""]",,,,,,,,,,,,,,,,,,0,2,2,2,1,0,both_right.png,2,RandomDot25.png,No answer,20,,,,,,,,,
,,,,,,,,,,,,,,,,,,,,,,,,,,,,,,,R_809hAgXHcl3WkRr,1,2024-05-20_11h34.54.831,interaction task,2021.2.3,MacIntel,59.88023952,120223,,,,,,,,,,,,,,,,,Greater,Smaller,,0.296492347,-0.506640625,1,0,0,RightButton,"[""RightButton""]",,,,,,,,,,,,,,,,,,0,3,3,3,1,0,both_right.png,1,RandomDot7.png,No answer,21,,,,,,,,,
,,,,,,,,,,,,,,,,,,,,,,,,,,,,,,,R_809hAgXHcl3WkRr,1,2024-05-20_11h34.54.831,interaction task,2021.2.3,MacIntel,59.88023952,120223,,,,,,,,,,,,,,,,,Greater,Smaller,,-0.280351828,-0.503226902,1,0,0,LeftButton,"[""LeftButton""]",0,1.5873,space,0.8512,,,,,,,,,,,,,,0,4,4,4,1,1,both_wrong.png,0,RandomDot32.png,No answer,19,,,,,,,,,
,,,,,,,,,,,,,,,,,,,,,,,,,,,,,,,R_809hAgXHcl3WkRr,1,2024-05-20_11h34.54.831,interaction task,2021.2.3,MacIntel,59.88023952,120223,,,,,,,,,,,,,,,,,Greater,Smaller,,-0.299984056,-0.461897079,1,0,0,LeftButton,"[""LeftButton""]",,,,,,,,10,9.0532,space,50,15.1867,,,,,,0,5,5,5,1,1,both_wrong.png,2,RandomDot10.png,No answer,20,2.5879,,,,,,,,
,,,,,,,,,,,,,,,,,,,,,,,,,,,,,,,R_809hAgXHcl3WkRr,1,2024-05-20_11h34.54.831,interaction task,2021.2.3,MacIntel,59.88023952,120223,,,,,,,,,,,,,,,,,Smaller,Greater,,-0.003204719,-0.309859035,0,0,0,,[],,,,,,,,,,,,,,,,,,0,6,6,6,1,3,only_sub_wrong.png,2,RandomDot31.png,No answer,19,,177,,,,,,,
,,,,,,,,,,,,,,,,,,,,,,,,,,,,,,,R_809hAgXHcl3WkRr,1,2024-05-20_11h34.54.831,interaction task,2021.2.3,MacIntel,59.88023952,120223,,,,,,,,,,,,,,,,,Greater,Smaller,,0.3060321,-0.500560462,1,0,0,RightButton,"[""RightButton""]",0,2.0891,space,1.3083,,,,,,,,,,,,,,0,7,7,7,1,1,both_wrong.png,0,RandomDot24.png,No answer,21,,,,,,,,,
,,,,,,,,,,,,,,,,,,,,,,,,,,,,,,,R_809hAgXHcl3WkRr,1,2024-05-20_11h34.54.831,interaction task,2021.2.3,MacIntel,59.88023952,120223,,,,,,,,,,,,,,,,,Smaller,Greater,,-0.338998724,-0.504347826,1,0,0,LeftButton,"[""LeftButton""]",,,,,,,,,,,,,100,5.0815,space,0,8.3828,0,8,8,8,1,3,only_sub_wrong.png,3,RandomDot36.png,No answer,21,,,0.8611,,,,,,
,,,,,,,,,,,,,,,,,,,,,,,,,,,,,,,R_809hAgXHcl3WkRr,1,2024-05-20_11h34.54.831,interaction task,2021.2.3,MacIntel,59.88023952,120223,,,,,,,,,,,,,,,,,Smaller,Greater,,0.338238733,-0.53469769,1,0,0,RightButton,"[""RightButton""]",0,1.909,space,0.6011,,,,,,,,,,,,,,0,9,9,9,1,3,only_sub_wrong.png,0,RandomDot25.png,No answer,21,,,,,,,,,
,,,,,,,,,,,,,,,,,,,,,,,,,,,,,,,R_809hAgXHcl3WkRr,1,2024-05-20_11h34.54.831,interaction task,2021.2.3,MacIntel,59.88023952,120223,,,,,,,,,,,,,,,,,Smaller,Greater,,-0.254007228,-0.503184443,1,0,0,LeftButton,"[""LeftButton""]",,,,,,,,,,,,,100,4.3234,space,0,6.223,0,10,10,10,1,2,only_sub_right.png,3,RandomDot30.png,No answer,20,,,0.9014,,,,,,
,,,,,,,,,,,,,,,,,,,,,,,,,,,,,,,R_809hAgXHcl3WkRr,1,2024-05-20_11h34.54.831,interaction task,2021.2.3,MacIntel,59.88023952,120223,,,,,,,,,,,,,,,,,Greater,Smaller,,-0.310065901,-0.481275476,1,0,0,LeftButton,"[""LeftButton""]",,,,,3.00526148,14.4104,space,,,,,,,,,,,0,11,11,11,1,3,only_sub_wrong.png,1,RandomDot11.png,No answer,20,,,,6.1535,,,,,
,,,,,,,,,,,,,,,,,,,,,,,,,,,,,,,R_809hAgXHcl3WkRr,1,2024-05-20_11h34.54.831,interaction task,2021.2.3,MacIntel,59.88023952,120223,,,,,,,,,,,,,,,,,Smaller,Greater,,0.321922832,-0.492680027,1,0,0,RightButton,"[""RightButton""]",,,,,4.980654762,7.3869,space,,,,,,,,,,,0,12,12,12,1,1,both_wrong.png,1,RandomDot8.png,No answer,21,,,,0.8067,,,,,
,,,,,,,,,,,,,,,,,,,,,,,,,,,,,,,R_809hAgXHcl3WkRr,1,2024-05-20_11h34.54.831,interaction task,2021.2.3,MacIntel,59.88023952,120223,,,,,,,,,,,,,,,,,Greater,Smaller,,0.287303359,-0.526341712,1,0,0,RightButton,"[""RightButton""]",,,,,,,,,,,,,,,,,,0,13,13,13,1,5,both_right.png,10,RandomDot42.png,RightButton,19,,,,,,,,,
,,,,,,,,,,,,,,,,,,,,,,,,,,,,,,,R_809hAgXHcl3WkRr,1,2024-05-20_11h34.54.831,interaction task,2021.2.3,MacIntel,59.88023952,120223,,,,,,,,,,,,,,,,,Greater,Smaller,,-0.303507653,-0.461795177,1,0,0,LeftButton,"[""LeftButton""]",,,,,0.990167942,1.6685,space,,,,,,,,,,,0,14,14,14,1,2,only_sub_right.png,1,RandomDot3.png,No answer,19,,,,1.0332,,,,,
,,,,,,,,,,,,,,,,,,,,,,,,,,,,,,,R_809hAgXHcl3WkRr,1,2024-05-20_11h34.54.831,interaction task,2021.2.3,MacIntel,59.88023952,120223,,,,,,,,,,,,,,,,,Greater,Smaller,,-0.298294005,-0.494955842,1,0,0,LeftButton,"[""LeftButton""]",,,,,,,,,,,,,,,,,,0,15,15,15,1,4,both_right.png,10,RandomDot41.png,LeftButton,5,,,,,,,,,
,,,,,,,,,,,,,,,,,,,,,,,,,,,,,,,R_809hAgXHcl3WkRr,1,2024-05-20_11h34.54.831,interaction task,2021.2.3,MacIntel,59.88023952,120223,,,,,,,,,,,,,,,,,Smaller,Greater,,-0.219223002,-0.499753736,0,0,0,,[],,,,,,,,,,,,,,,,,,0,16,16,16,1,1,both_wrong.png,3,RandomDot23.png,No answer,20,,91,,,,,,,
,,,,,,,,,,,,,,,,,,,,,,,,,,,,,,,R_809hAgXHcl3WkRr,1,2024-05-20_11h34.54.831,interaction task,2021.2.3,MacIntel,59.88023952,120223,,,,,,,,,,,,,,,,,Smaller,Greater,,0.260395408,-0.531734035,1,0,0,RightButton,"[""RightButton""]",,,,,,,,,,,,,,,,,,0,17,17,17,1,0,both_right.png,0,RandomDot38.png,No answer,21,,,,,,,,,
,,,,,,,,,,,,,,,,,,,,,,,,,,,,,,,R_809hAgXHcl3WkRr,1,2024-05-20_11h34.54.831,interaction task,2021.2.3,MacIntel,59.88023952,120223,,,,,,,,,,,,,,,,,Greater,Smaller,,0.254809736,-0.521102242,1,0,0,RightButton,"[""RightButton""]",0,3.4801,space,1.5407,,,,,,,,,,,,,,0,18,18,18,1,2,only_sub_right.png,0,RandomDot16.png,No answer,20,,,,,,,,,
,,,,,,,,,,,,,,,,,,,,,,,,,,,,,,,R_809hAgXHcl3WkRr,1,2024-05-20_11h34.54.831,interaction task,2021.2.3,MacIntel,59.88023952,120223,,,,,,,,,,,,,,,,,Smaller,Greater,,0.271800595,-0.534069293,1,0,0,RightButton,"[""RightButton""]",,,,,,,,,,,,,100,6.5899,space,0,29.9734,0,19,19,19,1,3,only_sub_wrong.png,3,RandomDot9.png,No answer,19,,,16.8476,,,,,,
,,,,,,,,,,,,,,,,,,,,,,,,,,,,,,,R_809hAgXHcl3WkRr,1,2024-05-20_11h34.54.831,interaction task,2021.2.3,MacIntel,59.88023952,120223,,,,,,,,,,,,,,,,,Greater,Smaller,,-0.268563988,-0.50748981,1,0,0,LeftButton,"[""LeftButton""]",,,,,,,,100,4.6126,space,0,8.032,,,,,,0,20,20,20,1,1,both_wrong.png,2,RandomDot24.png,No answer,19,1.3681,,,,,,,,
,,,,,,,,,,,,,,,,,,,,,,,,,,,,,,,R_809hAgXHcl3WkRr,1,2024-05-20_11h34.54.831,interaction task,2021.2.3,MacIntel,59.88023952,120223,,,,,,,,,,,,,,,,,Greater,Smaller,,-0.283094175,-0.523318614,1,0,0,LeftButton,"[""LeftButton""]",,,,,,,,0,3.9723,space,0,8.4845,,,,,,0,21,21,21,1,2,only_sub_right.png,2,RandomDot36.png,No answer,21,3.5507,,,,,,,,
,,,,,,,,,,,,,,,,,,,,,,,,,,,,,,,R_809hAgXHcl3WkRr,1,2024-05-20_11h34.54.831,interaction task,2021.2.3,MacIntel,59.88023952,120223,,,,,,,,,,,,,,,,,Greater,Smaller,,-0.34019983,-0.489818274,1,0,0,LeftButton,"[""LeftButton""]",0,2.4281,space,0.4786,,,,,,,,,,,,,,0,22,22,22,1,2,only_sub_right.png,0,RandomDot18.png,No answer,21,,,,,,,,,
,,,,,,,,,,,,,,,,,,,,,,,,,,,,,,,R_809hAgXHcl3WkRr,1,2024-05-20_11h34.54.831,interaction task,2021.2.3,MacIntel,59.88023952,120223,,,,,,,,,,,,,,,,,Smaller,Greater,,0.28494898,-0.526570992,1,0,0,RightButton,"[""RightButton""]",,,,,0.996572066,6.9356,space,,,,,,,,,,,0,23,23,23,1,1,both_wrong.png,1,RandomDot13.png,No answer,19,,,,0.6177,,,,,
,,,,,,,,,,,,,,,,,,,,,,,,,,,,,,,R_809hAgXHcl3WkRr,1,2024-05-20_11h34.54.831,interaction task,2021.2.3,MacIntel,59.88023952,120223,,,,,,,,,,,,,,,,,Greater,Smaller,,-0.251775085,-0.516448709,1,0,0,LeftButton,"[""LeftButton""]",,,,,,,,49,2.7869,space,50,6.4759,,,,,,0,24,24,24,1,3,only_sub_wrong.png,2,RandomDot13.png,No answer,21,0.7081,,,,,,,,
,,,,,,,,,,,,,,,,,,,,,,,,,,,,,,,R_809hAgXHcl3WkRr,1,2024-05-20_11h34.54.831,interaction task,2021.2.3,MacIntel,59.88023952,120223,,,,,,,,,,,,,,,,,Greater,Smaller,,-0.260910927,-0.514877717,1,0,0,LeftButton,"[""LeftButton""]",,,,,,,,0,3.9487,space,0,7.3868,,,,,,0,25,25,25,1,2,only_sub_right.png,2,RandomDot20.png,No answer,20,0.7726,,,,,,,,
,,,,,,,,,,,,,,,,,,,,,,,,,,,,,,,R_809hAgXHcl3WkRr,1,2024-05-20_11h34.54.831,interaction task,2021.2.3,MacIntel,59.88023952,120223,,,,,,,,,,,,,,,,,Smaller,Greater,,0.331478529,-0.52044837,1,0,0,RightButton,"[""RightButton""]",,,,,1.007573342,1.9902,space,,,,,,,,,,,0,26,26,26,1,2,only_sub_right.png,1,RandomDot14.png,No answer,20,,,,0.7511,,,,,
,,,,,,,,,,,,,,,,,,,,,,,,,,,,,,,R_809hAgXHcl3WkRr,1,2024-05-20_11h34.54.831,interaction task,2021.2.3,MacIntel,59.88023952,120223,,,,,,,,,,,,,,,,,Greater,Smaller,,-0.30227466,-0.523361073,1,0,0,LeftButton,"[""LeftButton""]",,,,,,,,,,,,,100,5.6907,space,0,7.8897,0,27,27,27,1,2,only_sub_right.png,3,RandomDot10.png,No answer,19,,,0.6691,,,,,,
,,,,,,,,,,,,,,,,,,,,,,,,,,,,,,,R_809hAgXHcl3WkRr,1,2024-05-20_11h34.54.831,interaction task,2021.2.3,MacIntel,59.88023952,120223,,,,,,,,,,,,,,,,,Greater,Smaller,,-0.24453125,-0.531725543,1,0,0,LeftButton,"[""LeftButton""]",,,,,,,,100,6.5701,space,50,27.1176,,,,,,0,28,28,28,1,3,only_sub_wrong.png,2,RandomDot39.png,No answer,20,0.985,,,,,,,,
,,,,,,,,,,,,,,,,,,,,,,,,,,,,,,,R_809hAgXHcl3WkRr,1,2024-05-20_11h34.54.831,interaction task,2021.2.3,MacIntel,59.88023952,120223,,,,,,,,,,,,,,,,,Smaller,Greater,,-0.269775723,-0.500883152,1,0,0,LeftButton,"[""LeftButton""]",,,,,3.010257228,6.4545,space,,,,,,,,,,,0,29,29,29,1,3,only_sub_wrong.png,1,RandomDot15.png,No answer,21,,,,0.6676,,,,,
,,,,,,,,,,,,,,,,,,,,,,,,,,,,,,,R_809hAgXHcl3WkRr,1,2024-05-20_11h34.54.831,interaction task,2021.2.3,MacIntel,59.88023952,120223,,,,,,,,,,,,,,,,,Greater,Smaller,,-0.325558036,-0.541109035,1,0,0,LeftButton,"[""LeftButton""]",,,,,4.009194303,2.5552,space,,,,,,,,,,,0,30,30,30,1,3,only_sub_wrong.png,1,RandomDot1.png,No answer,19,,,,0.6507,,,,,
,,,,,,,,,,,,,,,,,,,,,,,,,,,,,,,R_809hAgXHcl3WkRr,1,2024-05-20_11h34.54.831,interaction task,2021.2.3,MacIntel,59.88023952,120223,,,,,,,,,,,,,,,,,Greater,Smaller,,-0.352646684,-0.52196841,1,0,0,LeftButton,"[""LeftButton""]",0,1.8198,space,0.4137,,,,,,,,,,,,,,0,31,31,31,1,2,only_sub_right.png,0,RandomDot21.png,No answer,19,,,,,,,,,
,,,,,,,,,,,,,,,,,,,,,,,,,,,,,,,R_809hAgXHcl3WkRr,1,2024-05-20_11h34.54.831,interaction task,2021.2.3,MacIntel,59.88023952,120223,,,,,,,,,,,,,,,,,Smaller,Greater,,0.235134991,-0.53111413,1,0,0,RightButton,"[""RightButton""]",,,,,,,,0,2.8353,space,0,7.2198,,,,,,0,32,32,32,1,1,both_wrong.png,2,RandomDot24.png,No answer,21,0.3036,,,,,,,,
,,,,,,,,,,,,,,,,,,,,,,,,,,,,,,,R_809hAgXHcl3WkRr,1,2024-05-20_11h34.54.831,interaction task,2021.2.3,MacIntel,59.88023952,120223,,,,,,,,,,,,,,,,,Smaller,Greater,,-0.282350128,-0.514792799,1,0,0,LeftButton,"[""LeftButton""]",86,5.7037,space,0.8522,,,,,,,,,,,,,,0,33,33,33,1,3,only_sub_wrong.png,0,RandomDot16.png,No answer,21,,,,,,,,,
,,,,,,,,,,,,,,,,,,,,,,,,,,,,,,,R_809hAgXHcl3WkRr,1,2024-05-20_11h34.54.831,interaction task,2021.2.3,MacIntel,59.88023952,120223,,,,,,,,,,,,,,,,,Greater,Smaller,,-0.289716199,-0.541915761,1,0,0,LeftButton,"[""LeftButton""]",,,,,,,,,,,,,99.87159005,4.8324,space,0.033390882,7.0696,0,34,34,34,1,1,both_wrong.png,3,RandomDot40.png,No answer,21,,,0.238,,,,,,
,,,,,,,,,,,,,,,,,,,,,,,,,,,,,,,R_809hAgXHcl3WkRr,1,2024-05-20_11h34.54.831,interaction task,2021.2.3,MacIntel,59.88023952,120223,,,,,,,,,,,,,,,,,Greater,Smaller,,-0.281234056,-0.476086957,1,0,0,LeftButton,"[""LeftButton""]",,,,,1.045386905,4.6564,space,,,,,,,,,,,0,35,35,35,1,1,both_wrong.png,1,RandomDot28.png,No answer,21,,,,0.6346,,,,,
,,,,,,,,,,,,,,,,,,,,,,,,,,,,,,,R_809hAgXHcl3WkRr,1,2024-05-20_11h34.54.831,interaction task,2021.2.3,MacIntel,59.88023952,120223,,,,,,,,,,,,,,,,,Smaller,Greater,,-0.252848639,-0.50225034,1,0,0,LeftButton,"[""LeftButton""]",,,,,,,,,,,,,100,4.2417,space,0,6.3049,0,36,36,36,1,2,only_sub_right.png,3,RandomDot18.png,No answer,20,,,0.8863,,,,,,
,,,,,,,,,,,,,,,,,,,,,,,,,,,,,,,R_809hAgXHcl3WkRr,1,2024-05-20_11h34.54.831,interaction task,2021.2.3,MacIntel,59.88023952,120223,,,,,,,,,,,,,,,,,Greater,Smaller,,-0.288616071,-0.525246264,1,0,0,LeftButton,"[""LeftButton""]",,,,,,,,,,,,,,,,,,0,37,37,37,1,0,both_right.png,3,RandomDot36.png,No answer,20,,,,,,,,,
,,,,,,,,,,,,,,,,,,,,,,,,,,,,,,,R_809hAgXHcl3WkRr,1,2024-05-20_11h34.54.831,interaction task,2021.2.3,MacIntel,59.88023952,120223,,,,,,,,,,,,,,,,,Smaller,Greater,,0.305282738,-0.548123302,0,0,0,,[],,,,,,,,,,,,,,,,,,0,38,38,38,1,2,only_sub_right.png,2,RandomDot8.png,No answer,21,,130,,,,,,,
,,,,,,,,,,,,,,,,,,,,,,,,,,,,,,,R_809hAgXHcl3WkRr,1,2024-05-20_11h34.54.831,interaction task,2021.2.3,MacIntel,59.88023952,120223,,,,,,,,,,,,,,,,,Greater,Smaller,,-0.31768176,-0.507379416,1,0,0,LeftButton,"[""LeftButton""]",,,,,,,,,,,,,100,8.9248,space,0,14.0242,0,39,39,39,1,1,both_wrong.png,3,RandomDot6.png,No answer,20,,,2.4019,,,,,,
,,,,,,,,,,,,,,,,,,,,,,,,,,,,,,,R_809hAgXHcl3WkRr,1,2024-05-20_11h34.54.831,interaction task,2021.2.3,MacIntel,59.88023952,120223,,,,,,,,,,,,,,,,,Smaller,Greater,,-0.107110969,-0.435198709,0,0,0,,[],,,,,,,,,,,,,,,,,,0,40,40,40,1,2,only_sub_right.png,1,RandomDot27.png,No answer,21,,117,,,,,,,
,,,,,,,,,,,,,,,,,,,,,,,,,,,,,,,R_809hAgXHcl3WkRr,1,2024-05-20_11h34.54.831,interaction task,2021.2.3,MacIntel,59.88023952,120223,,,,,,,,,,,,,,,,,Smaller,Greater,,0.231276573,-0.532328465,1,0,0,RightButton,"[""RightButton""]",,,,,,,,,,,,,0,5.5783,space,99.78354978,8.3122,0,41,41,41,1,3,only_sub_wrong.png,3,RandomDot7.png,No answer,19,,,1.0526,,,,,,
,,,,,,,,,,,,,,,,,,,,,,,,,,,,,,,R_809hAgXHcl3WkRr,1,2024-05-20_11h34.54.831,interaction task,2021.2.3,MacIntel,59.88023952,120223,,,,,,,,,,,,,,,,,Smaller,Greater,,-0.346343537,-0.528014606,1,0,0,LeftButton,"[""LeftButton""]",,,,,,,,100,3.2188,space,100,6.8514,,,,,,,,,,,3,only_sub_wrong.png,2,RandomDot31.png,No answer,19,1.1522,,,,0,0,0,0,1
,,,,,,,,,,,,,,,,,,,,,,,,,,,,,,,R_809hAgXHcl3WkRr,1,2024-05-20_11h34.54.831,interaction task,2021.2.3,MacIntel,59.88023952,120223,,,,,,,,,,,,,,,,,Smaller,Greater,,-0.36073023,-0.470108696,1,0,0,LeftButton,"[""LeftButton""]",,,,,1.00297619,4.0002,space,,,,,,,,,,,,,,,,2,only_sub_right.png,1,RandomDot27.png,No answer,21,,,,0.63,0,1,1,3,1
,,,,,,,,,,,,,,,,,,,,,,,,,,,,,,,R_809hAgXHcl3WkRr,1,2024-05-20_11h34.54.831,interaction task,2021.2.3,MacIntel,59.88023952,120223,,,,,,,,,,,,,,,,,Smaller,Greater,,0.253364158,-0.47899966,1,0,0,RightButton,"[""RightButton""]",,,,,,,,,,,,,80.0770245,5.8494,space,76.45287913,8.0259,,,,,,1,both_wrong.png,3,RandomDot23.png,No answer,20,,,1.1519,,0,2,2,1,1
,,,,,,,,,,,,,,,,,,,,,,,,,,,,,,,R_809hAgXHcl3WkRr,1,2024-05-20_11h34.54.831,interaction task,2021.2.3,MacIntel,59.88023952,120223,,,,,,,,,,,,,,,,,Smaller,Greater,,-0.286091624,-0.519522758,1,0,0,LeftButton,"[""LeftButton""]",,,,,,,,0,2.5612,space,0,4.9554,,,,,,,,,,,2,only_sub_right.png,2,RandomDot8.png,No answer,21,1.6515,,,,0,3,3,2,1
