choose_trial,key_resp.keys,key_resp.rt,key_resp_4.keys,key_resp_4.rt,session_trait,slider_face_judge.response,slider_face_judge.rt,key_resp_3.keys,key_resp_3.rt,face_loop.thisRepN,face_loop.thisTrialN,face_loop.thisN,face_loop.thisIndex,face_loop.ran,face_serial,image_name,isCheck,answer,check_question,participant,session,date,expName,psychopyVersion,OS,frameRate,SONAid,session.thisRepN,session.thisTrialN,session.thisN,session.thisIndex,session.ran,session_serial,slider_judge_img
"[0,1,2,3,4,5,6,7,8,9,10,11,12,13,14,15,16,17,18,19,20,21,22,23,24,25,26,27,28,29,30,31,32,33,34,35,36,37,38,39,40,41,42,43,44,45,46,47,48,49,54,59,56]",space,11.0396,space,2.6978,trustworthy,3.015370245,7.833,space,0.8531,0,0,0,33,1,34,image/34.jpg,0,0,,R_809hAgXHcl3WkRr,2,2024-05-20_11h55.29.362,face trait task,2021.2.3,MacIntel,59.88023952,120223,,,,,,,
,,,,,,6.985861073,5.0706,space,0.9158,0,1,1,51,1,60,image/fill_img.png,1,7,Please move the slider all the way to the RIGHT to show that you are paying attention.,R_809hAgXHcl3WkRr,2,2024-05-20_11h55.29.362,face trait task,2021.2.3,MacIntel,59.88023952,120223,,,,,,,
,,,,,,5.255052649,12.3897,space,1.7627,0,2,2,17,1,18,image/18.jpg,0,0,,R_809hAgXHcl3WkRr,2,2024-05-20_11h55.29.362,face trait task,2021.2.3,MacIntel,59.88023952,120223,,,,,,,
,,,,,,1.027742867,4.4564,space,0.5709,0,3,3,43,1,44,image/44.jpg,0,0,,R_809hAgXHcl3WkRr,2,2024-05-20_11h55.29.362,face trait task,2021.2.3,MacIntel,59.88023952,120223,,,,,,,
,,,,,,5.995805027,3.9255,space,0.3287,0,4,4,3,1,4,image/4.jpg,0,0,,R_809hAgXHcl3WkRr,2,2024-05-20_11h55.29.362,face trait task,2021.2.3,MacIntel,59.88023952,120223,,,,,,,
,,,,,,6.954679008,1.9833,space,0.4052,0,5,5,26,1,27,image/27.jpg,0,0,,R_809hAgXHcl3WkRr,2,2024-05-20_11h55.29.362,face trait task,2021.2.3,MacIntel,59.88023952,120223,,,,,,,
,,,,,,5.974074389,2.9531,space,1.7517,0,6,6,12,1,13,image/13.jpg,0,0,,R_809hAgXHcl3WkRr,2,2024-05-20_11h55.29.362,face trait task,2021.2.3,MacIntel,59.88023952,120223,,,,,,,
,,,,,,1.939334239,2.3352,space,1.2863,0,7,7,16,1,17,image/17.jpg,0,0,,R_809hAgXHcl3WkRr,2,2024-05-20_11h55.29.362,face trait task,2021.2.3,MacIntel,59.88023952,120223,,,,,,,
,,,,,,5.981080163,2.0896,space,0.831,0,8,8,11,1,12,image/12.jpg,0,0,,R_809hAgXHcl3WkRr,2,2024-05-20_11h55.29.362,face trait task,2021.2.3,MacIntel,59.88023952,120223,,,,,,,
,,,,,,1.045524796,5.5784,space,0.369,0,9,9,39,1,40,image/40.jpg,0,0,,R_809hAgXHcl3WkRr,2,2024-05-20_11h55.29.362,face trait task,2021.2.3,MacIntel,59.88023952,120223,,,,,,,
,,,,,,1.045524796,1.2468,space,0.3891,0,10,10,25,1,26,image/26.jpg,0,0,,R_809hAgXHcl3WkRr,2,2024-05-20_11h55.29.362,face trait task,2021.2.3,MacIntel,59.88023952,120223,,,,,,,
,,,,,,1.045524796,1.3978,space,0.4068,0,11,11,6,1,7,image/7.jpg,0,0,,R_809hAgXHcl3WkRr,2,2024-05-20_11h55.29.362,face trait task,2021.2.3,MacIntel,59.88023952,120223,,,,,,,
,,,,,,1.039308764,3.3801,space,0.2813,0,12,12,46,1,47,image/47.jpg,0,0,,R_809hAgXHcl3WkRr,2,2024-05-20_11h55.29.362,face trait task,2021.2.3,MacIntel,59.88023952,120223,,,,,,,
,,,,,,4.007235054,2.7562,space,1.9649,0,13,13,8,1,9,image/9.jpg,0,0,,R_809hAgXHcl3WkRr,2,2024-05-20_11h55.29.362,face trait task,2021.2.3,MacIntel,59.88023952,120223,,,,,,,
,,,,,,3.030884851,4.4141,space,0.2977,0,14,14,7,1,8,image/8.jpg,0,0,,R_809hAgXHcl3WkRr,2,2024-05-20_11h55.29.362,face trait task,2021.2.3,MacIntel,59.88023952,120223,,,,,,,
,,,,,,3.030884851,1.0846,space,0.4026,0,15,15,10,1,11,image/11.jpg,0,0,,R_809hAgXHcl3WkRr,2,2024-05-20_11h55.29.362,face trait task,2021.2.3,MacIntel,59.88023952,120223,,,,,,,
,,,,,,1.02155231,2.3681,space,0.2348,0,16,16,45,1,46,image/46.jpg,0,0,,R_809hAgXHcl3WkRr,2,2024-05-20_11h55.29.362,face trait task,2021.2.3,MacIntel,59.88023952,120223,,,,,,,
,,,,,,6.001180367,3.3751,space,0.1887,0,17,17,32,1,33,image/33.jpg,0,0,,R_809hAgXHcl3WkRr,2,2024-05-20_11h55.29.362,face trait task,2021.2.3,MacIntel,59.88023952,120223,,,,,,,
,,,,,,2.033160666,6.9098,space,0.3258,0,18,18,23,1,24,image/24.jpg,0,0,,R_809hAgXHcl3WkRr,2,2024-05-20_11h55.29.362,face trait task,2021.2.3,MacIntel,59.88023952,120223,,,,,,,
,,,,,,5.051350204,1.9434,space,0.3916,0,19,19,34,1,35,image/35.jpg,0,0,,R_809hAgXHcl3WkRr,2,2024-05-20_11h55.29.362,face trait task,2021.2.3,MacIntel,59.88023952,120223,,,,,,,
,,,,,,6.011727242,5.0258,space,3.0908,0,20,20,1,1,2,image/2.jpg,0,0,,R_809hAgXHcl3WkRr,2,2024-05-20_11h55.29.362,face trait task,2021.2.3,MacIntel,59.88023952,120223,,,,,,,
,,,,,,4.021042799,3.263,space,0.4019,0,21,21,5,1,6,image/6.jpg,0,0,,R_809hAgXHcl3WkRr,2,2024-05-20_11h55.29.362,face trait task,2021.2.3,MacIntel,59.88023952,120223,,,,,,,
,,,,,,1.012075408,1.8048,space,0.3646,0,22,22,38,1,39,image/39.jpg,0,0,,R_809hAgXHcl3WkRr,2,2024-05-20_11h55.29.362,face trait task,2021.2.3,MacIntel,59.88023952,120223,,,,,,,
,,,,,,1.01429178,6.3186,space,0.349,0,23,23,29,1,30,image/30.jpg,0,0,,R_809hAgXHcl3WkRr,2,2024-05-20_11h55.29.362,face trait task,2021.2.3,MacIntel,59.88023952,120223,,,,,,,
,,,,,,4.021679688,2.4382,space,0.4677,0,24,24,9,1,10,image/10.jpg,0,0,,R_809hAgXHcl3WkRr,2,2024-05-20_11h55.29.362,face trait task,2021.2.3,MacIntel,59.88023952,120223,,,,,,,
,,,,,,1.016788383,3.4605,space,0.4716,0,25,25,50,1,55,image/fill_img.png,1,1,Please move the slider all the way to the LEFT to show that you are paying attention.,R_809hAgXHcl3WkRr,2,2024-05-20_11h55.29.362,face trait task,2021.2.3,MacIntel,59.88023952,120223,,,,,,,
,,,,,,3.069887908,3.3465,space,0.5693,0,26,26,4,1,5,image/5.jpg,0,0,,R_809hAgXHcl3WkRr,2,2024-05-20_11h55.29.362,face trait task,2021.2.3,MacIntel,59.88023952,120223,,,,,,,
,,,,,,6.982370924,9.0596,space,0.5845,0,27,27,35,1,36,image/36.jpg,0,0,,R_809hAgXHcl3WkRr,2,2024-05-20_11h55.29.362,face trait task,2021.2.3,MacIntel,59.88023952,120223,,,,,,,
,,,,,,1.042900815,2.3548,space,0.7843,0,28,28,36,1,37,image/37.jpg,0,0,,R_809hAgXHcl3WkRr,2,2024-05-20_11h55.29.362,face trait task,2021.2.3,MacIntel,59.88023952,120223,,,,,,,
,,,,,,1.020762568,4.6914,space,0.7851,0,29,29,47,1,48,image/48.jpg,0,0,,R_809hAgXHcl3WkRr,2,2024-05-20_11h55.29.362,face trait task,2021.2.3,MacIntel,59.88023952,120223,,,,,,,
,,,,,,1.029882813,3.3632,space,0.4074,0,30,30,30,1,31,image/31.jpg,0,0,,R_809hAgXHcl3WkRr,2,2024-05-20_11h55.29.362,face trait task,2021.2.3,MacIntel,59.88023952,120223,,,,,,,
,,,,,,6.962525476,2.9947,space,0.5205,0,31,31,48,1,49,image/49.jpg,0,0,,R_809hAgXHcl3WkRr,2,2024-05-20_11h55.29.362,face trait task,2021.2.3,MacIntel,59.88023952,120223,,,,,,,
,,,,,,2.979093071,2.719,space,0.5672,0,32,32,14,1,15,image/15.jpg,0,0,,R_809hAgXHcl3WkRr,2,2024-05-20_11h55.29.362,face trait task,2021.2.3,MacIntel,59.88023952,120223,,,,,,,
,,,,,,1.04430197,4.9617,space,0.5349,0,33,33,0,1,1,image/1.jpg,0,0,,R_809hAgXHcl3WkRr,2,2024-05-20_11h55.29.362,face trait task,2021.2.3,MacIntel,59.88023952,120223,,,,,,,
,,,,,,2.01861413,4.36,space,0.3999,0,34,34,37,1,38,image/38.jpg,0,0,,R_809hAgXHcl3WkRr,2,2024-05-20_11h55.29.362,face trait task,2021.2.3,MacIntel,59.88023952,120223,,,,,,,
,,,,,,2.029695992,2.1471,space,0.4378,0,35,35,22,1,23,image/23.jpg,0,0,,R_809hAgXHcl3WkRr,2,2024-05-20_11h55.29.362,face trait task,2021.2.3,MacIntel,59.88023952,120223,,,,,,,
,,,,,,1.962160326,2.1287,space,0.5481,0,36,36,15,1,16,image/16.jpg,0,0,,R_809hAgXHcl3WkRr,2,2024-05-20_11h55.29.362,face trait task,2021.2.3,MacIntel,59.88023952,120223,,,,,,,
,,,,,,6.969658628,11.2208,space,0.505,0,37,37,52,1,57,image/fill_img.png,1,7,Please move the slider all the way to the RIGHT to show that you are paying attention.,R_809hAgXHcl3WkRr,2,2024-05-20_11h55.29.362,face trait task,2021.2.3,MacIntel,59.88023952,120223,,,,,,,
,,,,,,1.016075068,7.6073,space,1.0817,0,38,38,44,1,45,image/45.jpg,0,0,,R_809hAgXHcl3WkRr,2,2024-05-20_11h55.29.362,face trait task,2021.2.3,MacIntel,59.88023952,120223,,,,,,,
,,,,,,1.009884511,3.4246,space,1.1718,0,39,39,21,1,22,image/22.jpg,0,0,,R_809hAgXHcl3WkRr,2,2024-05-20_11h55.29.362,face trait task,2021.2.3,MacIntel,59.88023952,120223,,,,,,,
,,,,,,4.982082201,4.1714,space,0.4557,0,40,40,41,1,42,image/42.jpg,0,0,,R_809hAgXHcl3WkRr,2,2024-05-20_11h55.29.362,face trait task,2021.2.3,MacIntel,59.88023952,120223,,,,,,,
,,,,,,2.003889266,12.2492,space,0.3488,0,41,41,20,1,21,image/21.jpg,0,0,,R_809hAgXHcl3WkRr,2,2024-05-20_11h55.29.362,face trait task,2021.2.3,MacIntel,59.88023952,120223,,,,,,,
,,,,,,2.015480639,13.1215,space,0.5205,0,42,42,49,1,50,image/50.jpg,0,0,,R_809hAgXHcl3WkRr,2,2024-05-20_11h55.29.362,face trait task,2021.2.3,MacIntel,59.88023952,120223,,,,,,,
,,,,,,1.039639946,1.5055,space,0.7171,0,43,43,40,1,41,image/41.jpg,0,0,,R_809hAgXHcl3WkRr,2,2024-05-20_11h55.29.362,face trait task,2021.2.3,MacIntel,59.88023952,120223,,,,,,,
,,,,,,4.984451427,3.6354,space,0.6017,0,44,44,19,1,20,image/20.jpg,0,0,,R_809hAgXHcl3WkRr,2,2024-05-20_11h55.29.362,face trait task,2021.2.3,MacIntel,59.88023952,120223,,,,,,,
,,,,,,1.044811481,1.9878,space,0.5265,0,45,45,18,1,19,image/19.jpg,0,0,,R_809hAgXHcl3WkRr,2,2024-05-20_11h55.29.362,face trait task,2021.2.3,MacIntel,59.88023952,120223,,,,,,,
,,,,,,1.018113111,1.0704,space,0.5799,0,46,46,28,1,29,image/29.jpg,0,0,,R_809hAgXHcl3WkRr,2,2024-05-20_11h55.29.362,face trait task,2021.2.3,MacIntel,59.88023952,120223,,,,,,,
,,,,,,5.007506793,1.8895,space,0.5171,0,47,47,2,1,3,image/3.jpg,0,0,,R_809hAgXHcl3WkRr,2,2024-05-20_11h55.29.362,face trait task,2021.2.3,MacIntel,59.88023952,120223,,,,,,,
,,,,,,1.019590693,3.4172,space,0.6963,0,48,48,42,1,43,image/43.jpg,0,0,,R_809hAgXHcl3WkRr,2,2024-05-20_11h55.29.362,face trait task,2021.2.3,MacIntel,59.88023952,120223,,,,,,,
,,,,,,6.986574389,2.2528,space,0.5965,0,49,49,24,1,25,image/25.jpg,0,0,,R_809hAgXHcl3WkRr,2,2024-05-20_11h55.29.362,face trait task,2021.2.3,MacIntel,59.88023952,120223,,,,,,,
,,,,,,6.993325408,2.0294,space,0.3167,0,50,50,27,1,28,image/28.jpg,0,0,,R_809hAgXHcl3WkRr,2,2024-05-20_11h55.29.362,face trait task,2021.2.3,MacIntel,59.88023952,120223,,,,,,,
,,,,,,1.071331522,16.7579,space,0.8937,0,51,51,13,1,14,image/14.jpg,0,0,,R_809hAgXHcl3WkRr,2,2024-05-20_11h55.29.362,face trait task,2021.2.3,MacIntel,59.88023952,120223,,,,,,,
,,,,,,1.038646399,4.0944,space,0.3548,0,52,52,31,1,32,image/32.jpg,0,0,,R_809hAgXHcl3WkRr,2,2024-05-20_11h55.29.362,face trait task,2021.2.3,MacIntel,59.88023952,120223,,,,,,,
,,,,,,,,,,,,,,,,,,,,R_809hAgXHcl3WkRr,2,2024-05-20_11h55.29.362,face trait task,2021.2.3,MacIntel,59.88023952,120223,0,0,0,2,1,2,trustworthy.png
,,,,,competent,6.987160326,3.7598,space,1.0007,0,0,0,13,1,14,image/14.jpg,0,0,,R_809hAgXHcl3WkRr,2,2024-05-20_11h55.29.362,face trait task,2021.2.3,MacIntel,59.88023952,120223,,,,,,,
,,,,,,6.981988791,2.1351,space,0.4942,0,1,1,8,1,9,image/9.jpg,0,0,,R_809hAgXHcl3WkRr,2,2024-05-20_11h55.29.362,face trait task,2021.2.3,MacIntel,59.88023952,120223,,,,,,,
,,,,,,3.997732677,2.0523,space,0.2478,0,2,2,28,1,29,image/29.jpg,0,0,,R_809hAgXHcl3WkRr,2,2024-05-20_11h55.29.362,face trait task,2021.2.3,MacIntel,59.88023952,120223,,,,,,,
,,,,,,1.937907609,2.3957,space,0.3143,0,3,3,31,1,32,image/32.jpg,0,0,,R_809hAgXHcl3WkRr,2,2024-05-20_11h55.29.362,face trait task,2021.2.3,MacIntel,59.88023952,120223,,,,,,,
,,,,,,1.98603091,2.3933,space,0.4131,0,4,4,36,1,37,image/37.jpg,0,0,,R_809hAgXHcl3WkRr,2,2024-05-20_11h55.29.362,face trait task,2021.2.3,MacIntel,59.88023952,120223,,,,,,,
,,,,,,4.998361073,2.1479,space,0.2814,0,5,5,10,1,11,image/11.jpg,0,0,,R_809hAgXHcl3WkRr,2,2024-05-20_11h55.29.362,face trait task,2021.2.3,MacIntel,59.88023952,120223,,,,,,,
,,,,,,6.06204144,3.1575,space,3.642,0,6,6,5,1,6,image/6.jpg,0,0,,R_809hAgXHcl3WkRr,2,2024-05-20_11h55.29.362,face trait task,2021.2.3,MacIntel,59.88023952,120223,,,,,,,
,,,,,,6.984256114,6.7615,space,0.5976,0,7,7,41,1,42,image/42.jpg,0,0,,R_809hAgXHcl3WkRr,2,2024-05-20_11h55.29.362,face trait task,2021.2.3,MacIntel,59.88023952,120223,,,,,,,
,,,,,,2.01158288,7.1016,space,0.3599,0,8,8,34,1,35,image/35.jpg,0,0,,R_809hAgXHcl3WkRr,2,2024-05-20_11h55.29.362,face trait task,2021.2.3,MacIntel,59.88023952,120223,,,,,,,
,,,,,,2.976036005,11.0072,space,0.4917,0,9,9,23,1,24,image/24.jpg,0,0,,R_809hAgXHcl3WkRr,2,2024-05-20_11h55.29.362,face trait task,2021.2.3,MacIntel,59.88023952,120223,,,,,,,
,,,,,,6.990675951,3.4464,space,0.642,0,10,10,26,1,27,image/27.jpg,0,0,,R_809hAgXHcl3WkRr,2,2024-05-20_11h55.29.362,face trait task,2021.2.3,MacIntel,59.88023952,120223,,,,,,,
,,,,,,3.982498302,2.1966,space,0.6575,0,11,11,49,1,50,image/50.jpg,0,0,,R_809hAgXHcl3WkRr,2,2024-05-20_11h55.29.362,face trait task,2021.2.3,MacIntel,59.88023952,120223,,,,,,,
,,,,,,2.961311141,3.2334,space,0.4118,0,12,12,9,1,10,image/10.jpg,0,0,,R_809hAgXHcl3WkRr,2,2024-05-20_11h55.29.362,face trait task,2021.2.3,MacIntel,59.88023952,120223,,,,,,,
,,,,,,4.035207201,4.0524,space,2.2676,0,13,13,30,1,31,image/31.jpg,0,0,,R_809hAgXHcl3WkRr,2,2024-05-20_11h55.29.362,face trait task,2021.2.3,MacIntel,59.88023952,120223,,,,,,,
,,,,,,4.035207201,6.379,space,0.2444,0,14,14,48,1,49,image/49.jpg,0,0,,R_809hAgXHcl3WkRr,2,2024-05-20_11h55.29.362,face trait task,2021.2.3,MacIntel,59.88023952,120223,,,,,,,
,,,,,,2.934842052,2.4669,space,1.7521,0,15,15,1,1,2,image/2.jpg,0,0,,R_809hAgXHcl3WkRr,2,2024-05-20_11h55.29.362,face trait task,2021.2.3,MacIntel,59.88023952,120223,,,,,,,
,,,,,,1.011616848,2.2492,space,0.2854,0,16,16,50,1,55,image/fill_img.png,1,1,Please move the slider all the way to the LEFT to show that you are paying attention.,R_809hAgXHcl3WkRr,2,2024-05-20_11h55.29.362,face trait task,2021.2.3,MacIntel,59.88023952,120223,,,,,,,
,,,,,,6.991287364,15.9562,space,0.2631,0,17,17,4,1,5,image/5.jpg,0,0,,R_809hAgXHcl3WkRr,2,2024-05-20_11h55.29.362,face trait task,2021.2.3,MacIntel,59.88023952,120223,,,,,,,
,,,,,,6.995032269,4.5153,space,0.8194,0,18,18,52,1,57,image/fill_img.png,1,7,Please move the slider all the way to the RIGHT to show that you are paying attention.,R_809hAgXHcl3WkRr,2,2024-05-20_11h55.29.362,face trait task,2021.2.3,MacIntel,59.88023952,120223,,,,,,,
,,,,,,6.930324389,8.3944,space,0.5351,0,19,19,33,1,34,image/34.jpg,0,0,,R_809hAgXHcl3WkRr,2,2024-05-20_11h55.29.362,face trait task,2021.2.3,MacIntel,59.88023952,120223,,,,,,,
,,,,,,4.018087636,4.9466,space,0.442,0,20,20,19,1,20,image/20.jpg,0,0,,R_809hAgXHcl3WkRr,2,2024-05-20_11h55.29.362,face trait task,2021.2.3,MacIntel,59.88023952,120223,,,,,,,
,,,,,,4.002038043,6.6118,space,0.1715,0,21,21,11,1,12,image/12.jpg,0,0,,R_809hAgXHcl3WkRr,2,2024-05-20_11h55.29.362,face trait task,2021.2.3,MacIntel,59.88023952,120223,,,,,,,
,,,,,,2.998327106,2.4678,space,0.4064,0,22,22,37,1,38,image/38.jpg,0,0,,R_809hAgXHcl3WkRr,2,2024-05-20_11h55.29.362,face trait task,2021.2.3,MacIntel,59.88023952,120223,,,,,,,
,,,,,,3.018401834,1.5554,space,0.3014,0,23,23,46,1,47,image/47.jpg,0,0,,R_809hAgXHcl3WkRr,2,2024-05-20_11h55.29.362,face trait task,2021.2.3,MacIntel,59.88023952,120223,,,,,,,
,,,,,,2.000704823,2.2488,space,0.2045,0,24,24,24,1,25,image/25.jpg,0,0,,R_809hAgXHcl3WkRr,2,2024-05-20_11h55.29.362,face trait task,2021.2.3,MacIntel,59.88023952,120223,,,,,,,
,,,,,,2.00381284,1.1762,space,0.2604,0,25,25,14,1,15,image/15.jpg,0,0,,R_809hAgXHcl3WkRr,2,2024-05-20_11h55.29.362,face trait task,2021.2.3,MacIntel,59.88023952,120223,,,,,,,
,,,,,,4.041881793,2.1293,space,0.3015,0,26,26,17,1,18,image/18.jpg,0,0,,R_809hAgXHcl3WkRr,2,2024-05-20_11h55.29.362,face trait task,2021.2.3,MacIntel,59.88023952,120223,,,,,,,
,,,,,,4.005681046,1.8996,space,0.2647,0,27,27,15,1,16,image/16.jpg,0,0,,R_809hAgXHcl3WkRr,2,2024-05-20_11h55.29.362,face trait task,2021.2.3,MacIntel,59.88023952,120223,,,,,,,
,,,,,,2.03639606,2.2509,space,0.2794,0,28,28,43,1,44,image/44.jpg,0,0,,R_809hAgXHcl3WkRr,2,2024-05-20_11h55.29.362,face trait task,2021.2.3,MacIntel,59.88023952,120223,,,,,,,
,,,,,,5.995193614,2.3577,space,0.2001,0,29,29,7,1,8,image/8.jpg,0,0,,R_809hAgXHcl3WkRr,2,2024-05-20_11h55.29.362,face trait task,2021.2.3,MacIntel,59.88023952,120223,,,,,,,
,,,,,,5.979169497,14.0001,space,0.2326,0,30,30,39,1,40,image/40.jpg,0,0,,R_809hAgXHcl3WkRr,2,2024-05-20_11h55.29.362,face trait task,2021.2.3,MacIntel,59.88023952,120223,,,,,,,
,,,,,,1.025348166,2.6029,space,0.2348,0,31,31,47,1,48,image/48.jpg,0,0,,R_809hAgXHcl3WkRr,2,2024-05-20_11h55.29.362,face trait task,2021.2.3,MacIntel,59.88023952,120223,,,,,,,
,,,,,,4.015285326,4.5715,space,0.3795,0,32,32,45,1,46,image/46.jpg,0,0,,R_809hAgXHcl3WkRr,2,2024-05-20_11h55.29.362,face trait task,2021.2.3,MacIntel,59.88023952,120223,,,,,,,
,,,,,,2.001086957,2.5521,space,0.1567,0,33,33,42,1,43,image/43.jpg,0,0,,R_809hAgXHcl3WkRr,2,2024-05-20_11h55.29.362,face trait task,2021.2.3,MacIntel,59.88023952,120223,,,,,,,
,,,,,,1.983967391,5.4684,space,0.1987,0,34,34,6,1,7,image/7.jpg,0,0,,R_809hAgXHcl3WkRr,2,2024-05-20_11h55.29.362,face trait task,2021.2.3,MacIntel,59.88023952,120223,,,,,,,
,,,,,,3.997681726,1.6784,space,0.6004,0,35,35,21,1,22,image/22.jpg,0,0,,R_809hAgXHcl3WkRr,2,2024-05-20_11h55.29.362,face trait task,2021.2.3,MacIntel,59.88023952,120223,,,,,,,
,,,,,,1.985037364,8.5626,space,0.2349,0,36,36,0,1,1,image/1.jpg,0,0,,R_809hAgXHcl3WkRr,2,2024-05-20_11h55.29.362,face trait task,2021.2.3,MacIntel,59.88023952,120223,,,,,,,
,,,,,,4.97688519,2.8313,space,0.3153,0,37,37,25,1,26,image/26.jpg,0,0,,R_809hAgXHcl3WkRr,2,2024-05-20_11h55.29.362,face trait task,2021.2.3,MacIntel,59.88023952,120223,,,,,,,
,,,,,,6.993376359,3.1174,space,0.3188,0,38,38,27,1,28,image/28.jpg,0,0,,R_809hAgXHcl3WkRr,2,2024-05-20_11h55.29.362,face trait task,2021.2.3,MacIntel,59.88023952,120223,,,,,,,
,,,,,,6.975951087,5.7211,space,0.5718,0,39,39,51,1,60,image/fill_img.png,1,7,Please move the slider all the way to the RIGHT to show that you are paying attention.,R_809hAgXHcl3WkRr,2,2024-05-20_11h55.29.362,face trait task,2021.2.3,MacIntel,59.88023952,120223,,,,,,,
,,,,,,1.984757133,4.6831,space,0.3123,0,40,40,16,1,17,image/17.jpg,0,0,,R_809hAgXHcl3WkRr,2,2024-05-20_11h55.29.362,face trait task,2021.2.3,MacIntel,59.88023952,120223,,,,,,,
,,,,,,4.949193274,2.4124,space,0.4177,0,41,41,3,1,4,image/4.jpg,0,0,,R_809hAgXHcl3WkRr,2,2024-05-20_11h55.29.362,face trait task,2021.2.3,MacIntel,59.88023952,120223,,,,,,,
,,,,,,1.974235734,2.6905,space,0.2846,0,42,42,32,1,33,image/33.jpg,0,0,,R_809hAgXHcl3WkRr,2,2024-05-20_11h55.29.362,face trait task,2021.2.3,MacIntel,59.88023952,120223,,,,,,,
,,,,,,2.026154891,7.9509,space,0.5317,0,43,43,38,1,39,image/39.jpg,0,0,,R_809hAgXHcl3WkRr,2,2024-05-20_11h55.29.362,face trait task,2021.2.3,MacIntel,59.88023952,120223,,,,,,,
,,,,,,6.994752038,9.9416,space,0.2502,0,44,44,35,1,36,image/36.jpg,0,0,,R_809hAgXHcl3WkRr,2,2024-05-20_11h55.29.362,face trait task,2021.2.3,MacIntel,59.88023952,120223,,,,,,,
,,,,,,4.981496264,6.0985,space,1.8613,0,45,45,20,1,21,image/21.jpg,0,0,,R_809hAgXHcl3WkRr,2,2024-05-20_11h55.29.362,face trait task,2021.2.3,MacIntel,59.88023952,120223,,,,,,,
,,,,,,2.927326766,1.9729,space,0.7403,0,46,46,29,1,30,image/30.jpg,0,0,,R_809hAgXHcl3WkRr,2,2024-05-20_11h55.29.362,face trait task,2021.2.3,MacIntel,59.88023952,120223,,,,,,,
,,,,,,1.954313859,1.7311,space,0.5038,0,47,47,22,1,23,image/23.jpg,0,0,,R_809hAgXHcl3WkRr,2,2024-05-20_11h55.29.362,face trait task,2021.2.3,MacIntel,59.88023952,120223,,,,,,,
,,,,,,4.905426291,2.1164,space,0.3388,0,48,48,12,1,13,image/13.jpg,0,0,,R_809hAgXHcl3WkRr,2,2024-05-20_11h55.29.362,face trait task,2021.2.3,MacIntel,59.88023952,120223,,,,,,,
,,,,,,1.974923573,2.2467,space,0.8514,0,49,49,44,1,45,image/45.jpg,0,0,,R_809hAgXHcl3WkRr,2,2024-05-20_11h55.29.362,face trait task,2021.2.3,MacIntel,59.88023952,120223,,,,,,,
,,,,,,1.059383492,2.1718,space,0.3652,0,50,50,40,1,41,image/41.jpg,0,0,,R_809hAgXHcl3WkRr,2,2024-05-20_11h55.29.362,face trait task,2021.2.3,MacIntel,59.88023952,120223,,,,,,,
,,,,,,1.059383492,1.8173,space,0.1187,0,51,51,2,1,3,image/3.jpg,0,0,,R_809hAgXHcl3WkRr,2,2024-05-20_11h55.29.362,face trait task,2021.2.3,MacIntel,59.88023952,120223,,,,,,,
,,,,,,1.059383492,3.9107,space,0.3459,0,52,52,18,1,19,image/19.jpg,0,0,,R_809hAgXHcl3WkRr,2,2024-05-20_11h55.29.362,face trait task,2021.2.3,MacIntel,59.88023952,120223,,,,,,,
,,,,,,,,,,,,,,,,,,,,R_809hAgXHcl3WkRr,2,2024-05-20_11h55.29.362,face trait task,2021.2.3,MacIntel,59.88023952,120223,0,1,1,1,1,1,competent.png
,,,,,critical,6.974244226,3.2667,space,0.4994,0,0,0,8,1,9,image/9.jpg,0,0,,R_809hAgXHcl3WkRr,2,2024-05-20_11h55.29.362,face trait task,2021.2.3,MacIntel,59.88023952,120223,,,,,,,
,,,,,,6.982829484,3.5604,space,0.4681,0,1,1,40,1,41,image/41.jpg,0,0,,R_809hAgXHcl3WkRr,2,2024-05-20_11h55.29.362,face trait task,2021.2.3,MacIntel,59.88023952,120223,,,,,,,
,,,,,,1.053473166,3.85,space,0.3356,0,2,2,33,1,34,image/34.jpg,0,0,,R_809hAgXHcl3WkRr,2,2024-05-20_11h55.29.362,face trait task,2021.2.3,MacIntel,59.88023952,120223,,,,,,,
,,,,,,3.989096467,3.3974,space,0.2579,0,3,3,49,1,50,image/50.jpg,0,0,,R_809hAgXHcl3WkRr,2,2024-05-20_11h55.29.362,face trait task,2021.2.3,MacIntel,59.88023952,120223,,,,,,,
,,,,,,6.952946671,6.4173,space,0.2648,0,4,4,37,1,38,image/38.jpg,0,0,,R_809hAgXHcl3WkRr,2,2024-05-20_11h55.29.362,face trait task,2021.2.3,MacIntel,59.88023952,120223,,,,,,,
,,,,,,6.910377038,4.0753,space,0.5611,0,5,5,3,1,4,image/4.jpg,0,0,,R_809hAgXHcl3WkRr,2,2024-05-20_11h55.29.362,face trait task,2021.2.3,MacIntel,59.88023952,120223,,,,,,,
,,,,,,6.917484715,21.1237,space,0.9588,0,6,6,39,1,40,image/40.jpg,0,0,,R_809hAgXHcl3WkRr,2,2024-05-20_11h55.29.362,face trait task,2021.2.3,MacIntel,59.88023952,120223,,,,,,,
,,,,,,1.053575068,2.6354,space,0.3024,0,7,7,24,1,25,image/25.jpg,0,0,,R_809hAgXHcl3WkRr,2,2024-05-20_11h55.29.362,face trait task,2021.2.3,MacIntel,59.88023952,120223,,,,,,,
,,,,,,4.058033288,4.1621,space,0.8005,0,8,8,41,1,42,image/42.jpg,0,0,,R_809hAgXHcl3WkRr,2,2024-05-20_11h55.29.362,face trait task,2021.2.3,MacIntel,59.88023952,120223,,,,,,,
,,,,,,6.937253736,4.1304,space,0.5137,0,9,9,45,1,46,image/46.jpg,0,0,,R_809hAgXHcl3WkRr,2,2024-05-20_11h55.29.362,face trait task,2021.2.3,MacIntel,59.88023952,120223,,,,,,,
,,,,,,6.952590014,3.9956,space,0.2199,0,10,10,23,1,24,image/24.jpg,0,0,,R_809hAgXHcl3WkRr,2,2024-05-20_11h55.29.362,face trait task,2021.2.3,MacIntel,59.88023952,120223,,,,,,,
,,,,,,6.952590014,1.8204,space,0.3852,0,11,11,51,1,60,image/fill_img.png,1,7,Please move the slider all the way to the RIGHT to show that you are paying attention.,R_809hAgXHcl3WkRr,2,2024-05-20_11h55.29.362,face trait task,2021.2.3,MacIntel,59.88023952,120223,,,,,,,
,,,,,,6.993248981,2.6217,space,0.4133,0,12,12,29,1,30,image/30.jpg,0,0,,R_809hAgXHcl3WkRr,2,2024-05-20_11h55.29.362,face trait task,2021.2.3,MacIntel,59.88023952,120223,,,,,,,
,,,,,,6.952004076,12.4241,space,0.3755,0,13,13,42,1,43,image/43.jpg,0,0,,R_809hAgXHcl3WkRr,2,2024-05-20_11h55.29.362,face trait task,2021.2.3,MacIntel,59.88023952,120223,,,,,,,
,,,,,,2.948598845,4.761,space,0.4665,0,14,14,46,1,47,image/47.jpg,0,0,,R_809hAgXHcl3WkRr,2,2024-05-20_11h55.29.362,face trait task,2021.2.3,MacIntel,59.88023952,120223,,,,,,,
,,,,,,3.974881114,1.7127,space,0.2886,0,15,15,22,1,23,image/23.jpg,0,0,,R_809hAgXHcl3WkRr,2,2024-05-20_11h55.29.362,face trait task,2021.2.3,MacIntel,59.88023952,120223,,,,,,,
,,,,,,6.962678329,2.44,space,0.2955,0,16,16,36,1,37,image/37.jpg,0,0,,R_809hAgXHcl3WkRr,2,2024-05-20_11h55.29.362,face trait task,2021.2.3,MacIntel,59.88023952,120223,,,,,,,
,,,,,,1.022138247,3.9199,space,0.1689,0,17,17,9,1,10,image/10.jpg,0,0,,R_809hAgXHcl3WkRr,2,2024-05-20_11h55.29.362,face trait task,2021.2.3,MacIntel,59.88023952,120223,,,,,,,
,,,,,,1.022138247,2.8091,space,0.2685,0,18,18,27,1,28,image/28.jpg,0,0,,R_809hAgXHcl3WkRr,2,2024-05-20_11h55.29.362,face trait task,2021.2.3,MacIntel,59.88023952,120223,,,,,,,
,,,,,,6.985631793,16.3138,space,0.6182,0,19,19,20,1,21,image/21.jpg,0,0,,R_809hAgXHcl3WkRr,2,2024-05-20_11h55.29.362,face trait task,2021.2.3,MacIntel,59.88023952,120223,,,,,,,
,,,,,,1.032710598,6.5878,space,0.642,0,20,20,50,1,55,image/fill_img.png,1,1,Please move the slider all the way to the LEFT to show that you are paying attention.,R_809hAgXHcl3WkRr,2,2024-05-20_11h55.29.362,face trait task,2021.2.3,MacIntel,59.88023952,120223,,,,,,,
,,,,,,6.930655571,3.2322,space,0.8187,0,21,21,25,1,26,image/26.jpg,0,0,,R_809hAgXHcl3WkRr,2,2024-05-20_11h55.29.362,face trait task,2021.2.3,MacIntel,59.88023952,120223,,,,,,,
,,,,,,6.951494565,5.7709,space,0.5955,0,22,22,21,1,22,image/22.jpg,0,0,,R_809hAgXHcl3WkRr,2,2024-05-20_11h55.29.362,face trait task,2021.2.3,MacIntel,59.88023952,120223,,,,,,,
,,,,,,3.053328804,1.9046,space,0.6447,0,23,23,4,1,5,image/5.jpg,0,0,,R_809hAgXHcl3WkRr,2,2024-05-20_11h55.29.362,face trait task,2021.2.3,MacIntel,59.88023952,120223,,,,,,,
,,,,,,6.945991848,3.4811,space,0.1985,0,24,24,10,1,11,image/11.jpg,0,0,,R_809hAgXHcl3WkRr,2,2024-05-20_11h55.29.362,face trait task,2021.2.3,MacIntel,59.88023952,120223,,,,,,,
,,,,,,6.961939538,2.7006,space,0.8317,0,25,25,47,1,48,image/48.jpg,0,0,,R_809hAgXHcl3WkRr,2,2024-05-20_11h55.29.362,face trait task,2021.2.3,MacIntel,59.88023952,120223,,,,,,,
,,,,,,3.888085937,11.6408,space,0.4049,0,26,26,17,1,18,image/18.jpg,0,0,,R_809hAgXHcl3WkRr,2,2024-05-20_11h55.29.362,face trait task,2021.2.3,MacIntel,59.88023952,120223,,,,,,,
,,,,,,6.912542459,2.2194,space,0.19,0,27,27,30,1,31,image/31.jpg,0,0,,R_809hAgXHcl3WkRr,2,2024-05-20_11h55.29.362,face trait task,2021.2.3,MacIntel,59.88023952,120223,,,,,,,
,,,,,,6.985988451,4.5102,space,0.2483,0,28,28,16,1,17,image/17.jpg,0,0,,R_809hAgXHcl3WkRr,2,2024-05-20_11h55.29.362,face trait task,2021.2.3,MacIntel,59.88023952,120223,,,,,,,
,,,,,,6.985988451,1.2335,space,1.5669,0,29,29,19,1,20,image/20.jpg,0,0,,R_809hAgXHcl3WkRr,2,2024-05-20_11h55.29.362,face trait task,2021.2.3,MacIntel,59.88023952,120223,,,,,,,
,,,,,,1.945575747,1.8161,space,0.2899,0,30,30,13,1,14,image/14.jpg,0,0,,R_809hAgXHcl3WkRr,2,2024-05-20_11h55.29.362,face trait task,2021.2.3,MacIntel,59.88023952,120223,,,,,,,
,,,,,,6.976205842,4.625,space,0.2453,0,31,31,31,1,32,image/32.jpg,0,0,,R_809hAgXHcl3WkRr,2,2024-05-20_11h55.29.362,face trait task,2021.2.3,MacIntel,59.88023952,120223,,,,,,,
,,,,,,1.018826427,2.0809,space,0.2855,0,32,32,2,1,3,image/3.jpg,0,0,,R_809hAgXHcl3WkRr,2,2024-05-20_11h55.29.362,face trait task,2021.2.3,MacIntel,59.88023952,120223,,,,,,,
,,,,,,7,3.6047,space,1.4054,0,33,33,52,1,57,image/fill_img.png,1,7,Please move the slider all the way to the RIGHT to show that you are paying attention.,R_809hAgXHcl3WkRr,2,2024-05-20_11h55.29.362,face trait task,2021.2.3,MacIntel,59.88023952,120223,,,,,,,
,,,,,,1.00537534,1.9845,space,0.3482,0,34,34,11,1,12,image/12.jpg,0,0,,R_809hAgXHcl3WkRr,2,2024-05-20_11h55.29.362,face trait task,2021.2.3,MacIntel,59.88023952,120223,,,,,,,
,,,,,,6.981734035,4.4619,space,0.247,0,35,35,44,1,45,image/45.jpg,0,0,,R_809hAgXHcl3WkRr,2,2024-05-20_11h55.29.362,face trait task,2021.2.3,MacIntel,59.88023952,120223,,,,,,,
,,,,,,1.058975883,2.2669,space,0.2856,0,36,36,34,1,35,image/35.jpg,0,0,,R_809hAgXHcl3WkRr,2,2024-05-20_11h55.29.362,face trait task,2021.2.3,MacIntel,59.88023952,120223,,,,,,,
,,,,,,6.941151495,2.8668,space,0.2672,0,37,37,1,1,2,image/2.jpg,0,0,,R_809hAgXHcl3WkRr,2,2024-05-20_11h55.29.362,face trait task,2021.2.3,MacIntel,59.88023952,120223,,,,,,,
,,,,,,2.951248302,2.1976,space,0.538,0,38,38,14,1,15,image/15.jpg,0,0,,R_809hAgXHcl3WkRr,2,2024-05-20_11h55.29.362,face trait task,2021.2.3,MacIntel,59.88023952,120223,,,,,,,
,,,,,,6.966550611,2.6397,space,0.2683,0,39,39,18,1,19,image/19.jpg,0,0,,R_809hAgXHcl3WkRr,2,2024-05-20_11h55.29.362,face trait task,2021.2.3,MacIntel,59.88023952,120223,,,,,,,
,,,,,,1.029704484,2.1952,space,0.2347,0,40,40,7,1,8,image/8.jpg,0,0,,R_809hAgXHcl3WkRr,2,2024-05-20_11h55.29.362,face trait task,2021.2.3,MacIntel,59.88023952,120223,,,,,,,
,,,,,,1.04544837,6.7772,space,0.1748,0,41,41,43,1,44,image/44.jpg,0,0,,R_809hAgXHcl3WkRr,2,2024-05-20_11h55.29.362,face trait task,2021.2.3,MacIntel,59.88023952,120223,,,,,,,
,,,,,,6.961939538,2.7043,space,0.2181,0,42,42,6,1,7,image/7.jpg,0,0,,R_809hAgXHcl3WkRr,2,2024-05-20_11h55.29.362,face trait task,2021.2.3,MacIntel,59.88023952,120223,,,,,,,
,,,,,,1.033831522,2.5883,space,1.5507,0,43,43,28,1,29,image/29.jpg,0,0,,R_809hAgXHcl3WkRr,2,2024-05-20_11h55.29.362,face trait task,2021.2.3,MacIntel,59.88023952,120223,,,,,,,
,,,,,,1.060759171,3.4285,space,0.3682,0,44,44,35,1,36,image/36.jpg,0,0,,R_809hAgXHcl3WkRr,2,2024-05-20_11h55.29.362,face trait task,2021.2.3,MacIntel,59.88023952,120223,,,,,,,
,,,,,,6.980129076,5.3318,space,0.1834,0,45,45,12,1,13,image/13.jpg,0,0,,R_809hAgXHcl3WkRr,2,2024-05-20_11h55.29.362,face trait task,2021.2.3,MacIntel,59.88023952,120223,,,,,,,
,,,,,,3.931852921,4.8922,space,0.5882,0,46,46,15,1,16,image/16.jpg,0,0,,R_809hAgXHcl3WkRr,2,2024-05-20_11h55.29.362,face trait task,2021.2.3,MacIntel,59.88023952,120223,,,,,,,
,,,,,,2.036701766,3.3301,space,0.312,0,47,47,5,1,6,image/6.jpg,0,0,,R_809hAgXHcl3WkRr,2,2024-05-20_11h55.29.362,face trait task,2021.2.3,MacIntel,59.88023952,120223,,,,,,,
,,,,,,1.03704144,1.8703,space,0.3306,0,48,48,32,1,33,image/33.jpg,0,0,,R_809hAgXHcl3WkRr,2,2024-05-20_11h55.29.362,face trait task,2021.2.3,MacIntel,59.88023952,120223,,,,,,,
,,,,,,1.062287704,2.8593,space,1.0569,0,49,49,26,1,27,image/27.jpg,0,0,,R_809hAgXHcl3WkRr,2,2024-05-20_11h55.29.362,face trait task,2021.2.3,MacIntel,59.88023952,120223,,,,,,,
,,,,,,1.046671196,9.9908,space,0.4965,0,50,50,48,1,49,image/49.jpg,0,0,,R_809hAgXHcl3WkRr,2,2024-05-20_11h55.29.362,face trait task,2021.2.3,MacIntel,59.88023952,120223,,,,,,,
,,,,,,6.95523947,2.3407,space,0.324,0,51,51,38,1,39,image/39.jpg,0,0,,R_809hAgXHcl3WkRr,2,2024-05-20_11h55.29.362,face trait task,2021.2.3,MacIntel,59.88023952,120223,,,,,,,
,,,,,,6.968970788,4.7331,space,0.3064,0,52,52,0,1,1,image/1.jpg,0,0,,R_809hAgXHcl3WkRr,2,2024-05-20_11h55.29.362,face trait task,2021.2.3,MacIntel,59.88023952,120223,,,,,,,
,,,,,,,,,,,,,,,,,,,,R_809hAgXHcl3WkRr,2,2024-05-20_11h55.29.362,face trait task,2021.2.3,MacIntel,59.88023952,120223,0,2,2,0,1,0,critical.png
,,,,,friendly,1.013068954,2.4668,space,0.656,0,0,0,40,1,41,image/41.jpg,0,0,,R_809hAgXHcl3WkRr,2,2024-05-20_11h55.29.362,face trait task,2021.2.3,MacIntel,59.88023952,120223,,,,,,,
,,,,,,1.03446841,3.4367,space,0.219,0,1,1,37,1,38,image/38.jpg,0,0,,R_809hAgXHcl3WkRr,2,2024-05-20_11h55.29.362,face trait task,2021.2.3,MacIntel,59.88023952,120223,,,,,,,
,,,,,,6.964181386,4.6408,space,0.4897,0,2,2,26,1,27,image/27.jpg,0,0,,R_809hAgXHcl3WkRr,2,2024-05-20_11h55.29.362,face trait task,2021.2.3,MacIntel,59.88023952,120223,,,,,,,
,,,,,,3.957863451,2.664,space,0.3483,0,3,3,12,1,13,image/13.jpg,0,0,,R_809hAgXHcl3WkRr,2,2024-05-20_11h55.29.362,face trait task,2021.2.3,MacIntel,59.88023952,120223,,,,,,,
,,,,,,3.987211277,2.3828,space,0.252,0,4,4,34,1,35,image/35.jpg,0,0,,R_809hAgXHcl3WkRr,2,2024-05-20_11h55.29.362,face trait task,2021.2.3,MacIntel,59.88023952,120223,,,,,,,
,,,,,,1.025475543,2.3799,space,0.3683,0,5,5,16,1,17,image/17.jpg,0,0,,R_809hAgXHcl3WkRr,2,2024-05-20_11h55.29.362,face trait task,2021.2.3,MacIntel,59.88023952,120223,,,,,,,
,,,,,,1.025475543,1.4976,space,0.7851,0,6,6,50,1,55,image/fill_img.png,1,1,Please move the slider all the way to the LEFT to show that you are paying attention.,R_809hAgXHcl3WkRr,2,2024-05-20_11h55.29.362,face trait task,2021.2.3,MacIntel,59.88023952,120223,,,,,,,
,,,,,,5.975577446,3.9879,space,0.5765,0,7,7,20,1,21,image/21.jpg,0,0,,R_809hAgXHcl3WkRr,2,2024-05-20_11h55.29.362,face trait task,2021.2.3,MacIntel,59.88023952,120223,,,,,,,
,,,,,,1.010597826,2.035,space,0.5682,0,8,8,38,1,39,image/39.jpg,0,0,,R_809hAgXHcl3WkRr,2,2024-05-20_11h55.29.362,face trait task,2021.2.3,MacIntel,59.88023952,120223,,,,,,,
,,,,,,1.010597826,1.1501,space,0.2185,0,9,9,47,1,48,image/48.jpg,0,0,,R_809hAgXHcl3WkRr,2,2024-05-20_11h55.29.362,face trait task,2021.2.3,MacIntel,59.88023952,120223,,,,,,,
,,,,,,6.009689198,5.9944,space,0.669,0,10,10,17,1,18,image/18.jpg,0,0,,R_809hAgXHcl3WkRr,2,2024-05-20_11h55.29.362,face trait task,2021.2.3,MacIntel,59.88023952,120223,,,,,,,
,,,,,,1.038213315,4.112,space,0.6144,0,11,11,42,1,43,image/43.jpg,0,0,,R_809hAgXHcl3WkRr,2,2024-05-20_11h55.29.362,face trait task,2021.2.3,MacIntel,59.88023952,120223,,,,,,,
,,,,,,1.038213315,1.3357,space,0.7723,0,12,12,29,1,30,image/30.jpg,0,0,,R_809hAgXHcl3WkRr,2,2024-05-20_11h55.29.362,face trait task,2021.2.3,MacIntel,59.88023952,120223,,,,,,,
,,,,,,1.015692935,3.1798,space,0.3057,0,13,13,13,1,14,image/14.jpg,0,0,,R_809hAgXHcl3WkRr,2,2024-05-20_11h55.29.362,face trait task,2021.2.3,MacIntel,59.88023952,120223,,,,,,,
,,,,,,6.995618207,2.8815,space,0.5904,0,14,14,51,1,60,image/fill_img.png,1,7,Please move the slider all the way to the RIGHT to show that you are paying attention.,R_809hAgXHcl3WkRr,2,2024-05-20_11h55.29.362,face trait task,2021.2.3,MacIntel,59.88023952,120223,,,,,,,
,,,,,,3.963595448,2.4158,space,0.5179,0,15,15,44,1,45,image/45.jpg,0,0,,R_809hAgXHcl3WkRr,2,2024-05-20_11h55.29.362,face trait task,2021.2.3,MacIntel,59.88023952,120223,,,,,,,
,,,,,,1.035640285,4.0572,space,0.3269,0,16,16,8,1,9,image/9.jpg,0,0,,R_809hAgXHcl3WkRr,2,2024-05-20_11h55.29.362,face trait task,2021.2.3,MacIntel,59.88023952,120223,,,,,,,
,,,,,,6.98313519,2.2803,space,0.5287,0,17,17,52,1,57,image/fill_img.png,1,7,Please move the slider all the way to the RIGHT to show that you are paying attention.,R_809hAgXHcl3WkRr,2,2024-05-20_11h55.29.362,face trait task,2021.2.3,MacIntel,59.88023952,120223,,,,,,,
,,,,,,4.019743546,1.855,space,0.8516,0,18,18,41,1,42,image/42.jpg,0,0,,R_809hAgXHcl3WkRr,2,2024-05-20_11h55.29.362,face trait task,2021.2.3,MacIntel,59.88023952,120223,,,,,,,
,,,,,,1.016126019,3.5921,space,0.2912,0,19,19,21,1,22,image/22.jpg,0,0,,R_809hAgXHcl3WkRr,2,2024-05-20_11h55.29.362,face trait task,2021.2.3,MacIntel,59.88023952,120223,,,,,,,
,,,,,,1.016126019,0.9638,space,1.5851,0,20,20,22,1,23,image/23.jpg,0,0,,R_809hAgXHcl3WkRr,2,2024-05-20_11h55.29.362,face trait task,2021.2.3,MacIntel,59.88023952,120223,,,,,,,
,,,,,,1.016126019,1.2665,space,0.9877,0,21,21,15,1,16,image/16.jpg,0,0,,R_809hAgXHcl3WkRr,2,2024-05-20_11h55.29.362,face trait task,2021.2.3,MacIntel,59.88023952,120223,,,,,,,
,,,,,,1.045881454,1.0536,space,0.4827,0,22,22,23,1,24,image/24.jpg,0,0,,R_809hAgXHcl3WkRr,2,2024-05-20_11h55.29.362,face trait task,2021.2.3,MacIntel,59.88023952,120223,,,,,,,
,,,,,,1.027080503,1.905,space,0.4028,0,23,23,1,1,2,image/2.jpg,0,0,,R_809hAgXHcl3WkRr,2,2024-05-20_11h55.29.362,face trait task,2021.2.3,MacIntel,59.88023952,120223,,,,,,,
,,,,,,6.983389946,3.1472,space,0.324,0,24,24,24,1,25,image/25.jpg,0,0,,R_809hAgXHcl3WkRr,2,2024-05-20_11h55.29.362,face trait task,2021.2.3,MacIntel,59.88023952,120223,,,,,,,
,,,,,,1.004356318,3.1305,space,0.2966,0,25,25,10,1,11,image/11.jpg,0,0,,R_809hAgXHcl3WkRr,2,2024-05-20_11h55.29.362,face trait task,2021.2.3,MacIntel,59.88023952,120223,,,,,,,
,,,,,,1.004356318,0.9296,space,0.5018,0,26,26,36,1,37,image/37.jpg,0,0,,R_809hAgXHcl3WkRr,2,2024-05-20_11h55.29.362,face trait task,2021.2.3,MacIntel,59.88023952,120223,,,,,,,
,,,,,,1.004356318,1.335,space,0.4017,0,27,27,46,1,47,image/47.jpg,0,0,,R_809hAgXHcl3WkRr,2,2024-05-20_11h55.29.362,face trait task,2021.2.3,MacIntel,59.88023952,120223,,,,,,,
,,,,,,6.97982337,3.1345,space,0.368,0,28,28,35,1,36,image/36.jpg,0,0,,R_809hAgXHcl3WkRr,2,2024-05-20_11h55.29.362,face trait task,2021.2.3,MacIntel,59.88023952,120223,,,,,,,
,,,,,,4.059943954,2.1211,space,0.3354,0,29,29,18,1,19,image/19.jpg,0,0,,R_809hAgXHcl3WkRr,2,2024-05-20_11h55.29.362,face trait task,2021.2.3,MacIntel,59.88023952,120223,,,,,,,
,,,,,,1.015591033,3.497,space,0.2531,0,30,30,19,1,20,image/20.jpg,0,0,,R_809hAgXHcl3WkRr,2,2024-05-20_11h55.29.362,face trait task,2021.2.3,MacIntel,59.88023952,120223,,,,,,,
,,,,,,1.015591033,10.1927,space,0.3851,0,31,31,5,1,6,image/6.jpg,0,0,,R_809hAgXHcl3WkRr,2,2024-05-20_11h55.29.362,face trait task,2021.2.3,MacIntel,59.88023952,120223,,,,,,,
,,,,,,6.984918478,2.3501,space,0.5197,0,32,32,4,1,5,image/5.jpg,0,0,,R_809hAgXHcl3WkRr,2,2024-05-20_11h55.29.362,face trait task,2021.2.3,MacIntel,59.88023952,120223,,,,,,,
,,,,,,3.959493886,5.2024,space,0.2509,0,33,33,45,1,46,image/46.jpg,0,0,,R_809hAgXHcl3WkRr,2,2024-05-20_11h55.29.362,face trait task,2021.2.3,MacIntel,59.88023952,120223,,,,,,,
,,,,,,1.003439198,2.7332,space,0.6514,0,34,34,9,1,10,image/10.jpg,0,0,,R_809hAgXHcl3WkRr,2,2024-05-20_11h55.29.362,face trait task,2021.2.3,MacIntel,59.88023952,120223,,,,,,,
,,,,,,3.965964674,39.9472,space,0.2737,0,35,35,11,1,12,image/12.jpg,0,0,,R_809hAgXHcl3WkRr,2,2024-05-20_11h55.29.362,face trait task,2021.2.3,MacIntel,59.88023952,120223,,,,,,,
,,,,,,3.965964674,1.8726,space,0.2336,0,36,36,48,1,49,image/49.jpg,0,0,,R_809hAgXHcl3WkRr,2,2024-05-20_11h55.29.362,face trait task,2021.2.3,MacIntel,59.88023952,120223,,,,,,,
,,,,,,2.006360394,3.4806,space,0.4571,0,37,37,0,1,1,image/1.jpg,0,0,,R_809hAgXHcl3WkRr,2,2024-05-20_11h55.29.362,face trait task,2021.2.3,MacIntel,59.88023952,120223,,,,,,,
,,,,,,1.019386889,9.5159,space,0.272,0,38,38,14,1,15,image/15.jpg,0,0,,R_809hAgXHcl3WkRr,2,2024-05-20_11h55.29.362,face trait task,2021.2.3,MacIntel,59.88023952,120223,,,,,,,
,,,,,,1.019386889,1.5304,space,0.3147,0,39,39,28,1,29,image/29.jpg,0,0,,R_809hAgXHcl3WkRr,2,2024-05-20_11h55.29.362,face trait task,2021.2.3,MacIntel,59.88023952,120223,,,,,,,
,,,,,,1.019386889,2.3036,space,0.2759,0,40,40,49,1,50,image/50.jpg,0,0,,R_809hAgXHcl3WkRr,2,2024-05-20_11h55.29.362,face trait task,2021.2.3,MacIntel,59.88023952,120223,,,,,,,
,,,,,,1.019386889,1.3194,space,0.3179,0,41,41,30,1,31,image/31.jpg,0,0,,R_809hAgXHcl3WkRr,2,2024-05-20_11h55.29.362,face trait task,2021.2.3,MacIntel,59.88023952,120223,,,,,,,
,,,,,,1.019386889,1.1477,space,0.5353,0,42,42,43,1,44,image/44.jpg,0,0,,R_809hAgXHcl3WkRr,2,2024-05-20_11h55.29.362,face trait task,2021.2.3,MacIntel,59.88023952,120223,,,,,,,
,,,,,,6.973887568,3.4656,space,0.5863,0,43,43,33,1,34,image/34.jpg,0,0,,R_809hAgXHcl3WkRr,2,2024-05-20_11h55.29.362,face trait task,2021.2.3,MacIntel,59.88023952,120223,,,,,,,
,,,,,,1.004636549,9.0438,space,0.2629,0,44,44,39,1,40,image/40.jpg,0,0,,R_809hAgXHcl3WkRr,2,2024-05-20_11h55.29.362,face trait task,2021.2.3,MacIntel,59.88023952,120223,,,,,,,
,,,,,,1.004636549,1.2908,space,0.269,0,45,45,3,1,4,image/4.jpg,0,0,,R_809hAgXHcl3WkRr,2,2024-05-20_11h55.29.362,face trait task,2021.2.3,MacIntel,59.88023952,120223,,,,,,,
,,,,,,1.004636549,1.2429,space,0.3358,0,46,46,6,1,7,image/7.jpg,0,0,,R_809hAgXHcl3WkRr,2,2024-05-20_11h55.29.362,face trait task,2021.2.3,MacIntel,59.88023952,120223,,,,,,,
,,,,,,1.004636549,1.3973,space,0.2848,0,47,47,7,1,8,image/8.jpg,0,0,,R_809hAgXHcl3WkRr,2,2024-05-20_11h55.29.362,face trait task,2021.2.3,MacIntel,59.88023952,120223,,,,,,,
,,,,,,1.00771909,0.9132,space,0.3261,0,48,48,2,1,3,image/3.jpg,0,0,,R_809hAgXHcl3WkRr,2,2024-05-20_11h55.29.362,face trait task,2021.2.3,MacIntel,59.88023952,120223,,,,,,,
,,,,,,1.017552649,1.0957,space,0.2479,0,49,49,31,1,32,image/32.jpg,0,0,,R_809hAgXHcl3WkRr,2,2024-05-20_11h55.29.362,face trait task,2021.2.3,MacIntel,59.88023952,120223,,,,,,,
,,,,,,1,5.1386,space,1.256,0,50,50,25,1,26,image/26.jpg,0,0,,R_809hAgXHcl3WkRr,2,2024-05-20_11h55.29.362,face trait task,2021.2.3,MacIntel,59.88023952,120223,,,,,,,
,,,,,,1.010037364,2.7904,space,0.419,0,51,51,27,1,28,image/28.jpg,0,0,,R_809hAgXHcl3WkRr,2,2024-05-20_11h55.29.362,face trait task,2021.2.3,MacIntel,59.88023952,120223,,,,,,,
,,,,,,1.010037364,1.0403,space,0.5682,0,52,52,32,1,33,image/33.jpg,0,0,,R_809hAgXHcl3WkRr,2,2024-05-20_11h55.29.362,face trait task,2021.2.3,MacIntel,59.88023952,120223,,,,,,,
,,,,,,,,,,,,,,,,,,,,R_809hAgXHcl3WkRr,2,2024-05-20_11h55.29.362,face trait task,2021.2.3,MacIntel,59.88023952,120223,0,3,3,3,1,3,friendly.png
