chooserow,ParID,pre_instru_resp_2.keys,pre_instru_resp_2.rt,pre_instru_resp_3.keys,pre_instru_resp_3.rt,pre_instru_resp_9.keys,pre_instru_resp_9.rt,pre_instru_resp_8.keys,pre_instru_resp_8.rt,pre_instru_resp_4.keys,pre_instru_resp_4.rt,pre_instru_resp_5.keys,pre_instru_resp_5.rt,pre_instru_resp_6.keys,pre_instru_resp_6.rt,key_resp_3.keys,key_resp_3.rt,key_resp_4.keys,key_resp_4.rt,key_resp_5.keys,key_resp_5.rt,key_resp_6.keys,key_resp_6.rt,key_resp_7.keys,key_resp_7.rt,trials_2.thisRepN,trials_2.thisTrialN,trials_2.thisN,trials_2.thisIndex,trials_2.ran,participant,session,date,expName,psychopyVersion,OS,frameRate,SONAid,pre_instru_resp.keys,pre_instru_resp.rt,clicked,judge_2.x,judge_2.y,judge_2.leftButton,judge_2.midButton,judge_2.rightButton,trials.thisRepN,trials.thisTrialN,trials.thisN,trials.thisIndex,trials.ran,prac_answer,prac_dot_sti,dotlefttext,dotrighttext,judge_2.clicked_name,prac_acc,judge.x,judge.y,judge.leftButton,judge.midButton,judge.rightButton,judge.clicked_name,clicked_guilt,slider_guilt.response,slider_guilt.rt,key_guilt.keys,share_slider.response,share_slider.rt,key_share.keys,slider_apology.response,slider_apology.rt,key_apology.keys,key_apology.rt,slider_hide.response,slider_hide.rt,slider_forgiveness.response,slider_forgiveness.rt,key_forgiveness.keys,slider_mad.response,slider_mad.rt,trialseq.thisRepN,trialseq.thisTrialN,trialseq.thisN,trialseq.thisIndex,trialseq.ran,type_trial,stipic,DV,picture,answer,number,key_guilt.rt,key_share.rt,key_forgiveness.rt
"[177,78,105,112,143,159,118,48,85,29,71,129,106,92,19,56,172,188,97,171,79,199,166,111,8,62,153,54,142,185,160,133,65,95,47,127,146,154,76,183,193,126]",R_8cvY6RMpIIbMEo3,space,2.5593,space,11.5066,space,12.7031,space,26.6855,space,41.2899,space,13.2257,space,4.3285,3,9.1553,1,19.3817,3,7.5545,2,11.5199,2,2.3438,0,0,0,0,1,R_8cvY6RMpIIbMEo3,1,2024-05-10_14h56.10.448,interaction task,2021.2.3,MacIntel,59.88023952,120435,,,,,,,,,,,,,,,,,,,,,,,,,,,,,,,,,,,,,,,,,,,,,,,,,,,,,,,,,
,,,,,,,,,,,,,,,,,,,,,,,,,,,,,,,R_8cvY6RMpIIbMEo3,1,2024-05-10_14h56.10.448,interaction task,2021.2.3,MacIntel,59.88023952,120435,space,3.3384,[],0.281515731,-0.374074389,0,0,0,0,0,0,1,1,RightButton_2,9dot1.png,Greater,Smaller,,,,,,,,,,,,,,,,,,,,,,,,,,,,,,,,,,,,,,,,
,,,,,,,,,,,,,,,,,,,,,,,,,,,,,,,R_8cvY6RMpIIbMEo3,1,2024-05-10_14h56.10.448,interaction task,2021.2.3,MacIntel,59.88023952,120435,,,"[""LeftButton_2""]",-0.283051658,-0.313170856,1,0,0,0,1,1,0,1,LeftButton_2,11dot2.png,Greater,Smaller,LeftButton_2,,,,,,,,,,,,,,,,,,,,,,,,,,,,,,,,,,,,,,,
,,,,,,,,,,,,,,,,,,,,,,,,,,,,,,,R_8cvY6RMpIIbMEo3,1,2024-05-10_14h56.10.448,interaction task,2021.2.3,MacIntel,59.88023952,120435,,,"[""LeftButton_2""]",-0.312452168,-0.322070313,1,0,0,0,2,2,2,1,LeftButton_2,11dot1.png,Greater,Smaller,LeftButton_2,,,,,,,,,,,,,,,,,,,,,,,,,,,,,,,,,,,,,,,
,,,,,,,,,,,,,,,,,,,,,,,,,,,,,,,R_8cvY6RMpIIbMEo3,1,2024-05-10_14h56.10.448,interaction task,2021.2.3,MacIntel,59.88023952,120435,,,,,,,,,,,,,,,,Smaller,Greater,,0.4,0.315492134,-0.526129416,1,0,0,RightButton,"[""RightButton""]",,,,,,,49,6.0621,space,2.1126,0,15.9112,,,,,,0,0,0,0,1,3,only_sub_wrong.png,2,RandomDot31.png,No answer,19,,,
,,,,,,,,,,,,,,,,,,,,,,,,,,,,,,,R_8cvY6RMpIIbMEo3,1,2024-05-10_14h56.10.448,interaction task,2021.2.3,MacIntel,59.88023952,120435,,,,,,,,,,,,,,,,Smaller,Greater,,,0.270514456,-0.543189538,1,0,0,RightButton,"[""RightButton""]",,,,,,,50,5.0503,space,2.6625,0,6.8888,,,,,,0,1,1,1,1,1,both_wrong.png,2,RandomDot19.png,No answer,19,,,
,,,,,,,,,,,,,,,,,,,,,,,,,,,,,,,R_8cvY6RMpIIbMEo3,1,2024-05-10_14h56.10.448,interaction task,2021.2.3,MacIntel,59.88023952,120435,,,,,,,,,,,,,,,,Smaller,Greater,,,-0.266103316,-0.489079484,1,0,0,LeftButton,"[""LeftButton""]",0,4.9182,space,,,,,,,,,,,,,,,0,2,2,2,1,2,only_sub_right.png,0,RandomDot17.png,No answer,20,1.1898,,
,,,,,,,,,,,,,,,,,,,,,,,,,,,,,,,R_8cvY6RMpIIbMEo3,1,2024-05-10_14h56.10.448,interaction task,2021.2.3,MacIntel,59.88023952,120435,,,,,,,,,,,,,,,,Greater,Smaller,,,0.349665179,-0.511421535,1,0,0,RightButton,"[""RightButton""]",,,,2.017033376,12.228,space,,,,,,,,,,,,0,3,3,3,1,2,only_sub_right.png,1,RandomDot32.png,No answer,19,,4.198,
,,,,,,,,,,,,,,,,,,,,,,,,,,,,,,,R_8cvY6RMpIIbMEo3,1,2024-05-10_14h56.10.448,interaction task,2021.2.3,MacIntel,59.88023952,120435,,,,,,,,,,,,,,,,Smaller,Greater,,,-0.29375,-0.502836277,1,0,0,LeftButton,"[""LeftButton""]",,,,,,,,,,,,,100,6.3582,space,0.618536556,9.4974,0,4,4,4,1,2,only_sub_right.png,3,RandomDot31.png,No answer,19,,,1.6847
,,,,,,,,,,,,,,,,,,,,,,,,,,,,,,,R_8cvY6RMpIIbMEo3,1,2024-05-10_14h56.10.448,interaction task,2021.2.3,MacIntel,59.88023952,120435,,,,,,,,,,,,,,,,Greater,Smaller,,,0.308891369,-0.521773098,1,0,0,RightButton,"[""RightButton""]",,,,3.030373087,2.9094,space,,,,,,,,,,,,0,5,5,5,1,3,only_sub_wrong.png,1,RandomDot11.png,No answer,20,,0.9521,
,,,,,,,,,,,,,,,,,,,,,,,,,,,,,,,R_8cvY6RMpIIbMEo3,1,2024-05-10_14h56.10.448,interaction task,2021.2.3,MacIntel,59.88023952,120435,,,,,,,,,,,,,,,,Smaller,Greater,,,-0.314944728,-0.500416101,1,0,0,LeftButton,"[""LeftButton""]",,,,1.420227466,2.5847,space,,,,,,,,,,,,0,6,6,6,1,2,only_sub_right.png,1,RandomDot34.png,No answer,19,,0.8173,
,,,,,,,,,,,,,,,,,,,,,,,,,,,,,,,R_8cvY6RMpIIbMEo3,1,2024-05-10_14h56.10.448,interaction task,2021.2.3,MacIntel,59.88023952,120435,,,,,,,,,,,,,,,,Greater,Smaller,,,-0.299266582,-0.509825068,1,0,0,LeftButton,"[""LeftButton""]",50,4.2315,space,,,,,,,,,,,,,,,0,7,7,7,1,1,both_wrong.png,0,RandomDot24.png,No answer,21,0.5016,,
,,,,,,,,,,,,,,,,,,,,,,,,,,,,,,,R_8cvY6RMpIIbMEo3,1,2024-05-10_14h56.10.448,interaction task,2021.2.3,MacIntel,59.88023952,120435,,,,,,,,,,,,,,,,Greater,Smaller,,,-0.266491284,-0.510979959,1,0,0,LeftButton,"[""LeftButton""]",,,,,,,,,,,,,59.25872243,3.7272,space,31.46000825,6.3271,0,8,8,8,1,1,both_wrong.png,3,RandomDot40.png,No answer,21,,,2.2015
,,,,,,,,,,,,,,,,,,,,,,,,,,,,,,,R_8cvY6RMpIIbMEo3,1,2024-05-10_14h56.10.448,interaction task,2021.2.3,MacIntel,59.88023952,120435,,,,,,,,,,,,,,,,Greater,Smaller,,,-0.284125213,-0.500169837,1,0,0,LeftButton,"[""LeftButton""]",,,,,,,,,,,,,,,,,,0,9,9,9,1,0,both_right.png,2,RandomDot10.png,No answer,20,,,
,,,,,,,,,,,,,,,,,,,,,,,,,,,,,,,R_8cvY6RMpIIbMEo3,1,2024-05-10_14h56.10.448,interaction task,2021.2.3,MacIntel,59.88023952,120435,,,,,,,,,,,,,,,,Smaller,Greater,,,-0.284204932,-0.491711957,1,0,0,LeftButton,"[""LeftButton""]",,,,2.031834609,2.7193,space,,,,,,,,,,,,0,10,10,10,1,1,both_wrong.png,1,RandomDot14.png,No answer,20,,0.7037,
,,,,,,,,,,,,,,,,,,,,,,,,,,,,,,,R_8cvY6RMpIIbMEo3,1,2024-05-10_14h56.10.448,interaction task,2021.2.3,MacIntel,59.88023952,120435,,,,,,,,,,,,,,,,Smaller,Greater,,,0.282366071,-0.502674932,1,0,0,RightButton,"[""RightButton""]",,,,,,,0,2.5566,space,1.5542,0,6.5865,,,,,,0,11,11,11,1,2,only_sub_right.png,2,RandomDot37.png,No answer,19,,,
,,,,,,,,,,,,,,,,,,,,,,,,,,,,,,,R_8cvY6RMpIIbMEo3,1,2024-05-10_14h56.10.448,interaction task,2021.2.3,MacIntel,59.88023952,120435,,,,,,,,,,,,,,,,Smaller,Greater,,,0.302880527,-0.521611753,1,0,0,RightButton,"[""RightButton""]",0,2.1555,space,,,,,,,,,,,,,,,0,12,12,12,1,2,only_sub_right.png,0,RandomDot39.png,No answer,19,0.6175,,
,,,,,,,,,,,,,,,,,,,,,,,,,,,,,,,R_8cvY6RMpIIbMEo3,1,2024-05-10_14h56.10.448,interaction task,2021.2.3,MacIntel,59.88023952,120435,,,,,,,,,,,,,,,,Smaller,Greater,,,0.316586947,-0.513315217,1,0,0,RightButton,"[""RightButton""]",,,,,,,,,,,,,50.07086168,3.2503,space,39.38739006,5.3617,0,13,13,13,1,1,both_wrong.png,3,RandomDot7.png,No answer,21,,,0.5165
,,,,,,,,,,,,,,,,,,,,,,,,,,,,,,,R_8cvY6RMpIIbMEo3,1,2024-05-10_14h56.10.448,interaction task,2021.2.3,MacIntel,59.88023952,120435,,,,,,,,,,,,,,,,Smaller,Greater,,,-0.346029974,-0.480715014,1,0,0,LeftButton,"[""LeftButton""]",,,,,,,,,,,,,,,,,,0,14,14,14,1,0,both_right.png,1,RandomDot36.png,No answer,19,,,
,,,,,,,,,,,,,,,,,,,,,,,,,,,,,,,R_8cvY6RMpIIbMEo3,1,2024-05-10_14h56.10.448,interaction task,2021.2.3,MacIntel,59.88023952,120435,,,,,,,,,,,,,,,,Smaller,Greater,,,0.326620961,-0.478226902,1,0,0,RightButton,"[""RightButton""]",69,3.1599,space,,,,,,,,,,,,,,,0,15,15,15,1,1,both_wrong.png,0,RandomDot39.png,No answer,21,0.5354,,
,,,,,,,,,,,,,,,,,,,,,,,,,,,,,,,R_8cvY6RMpIIbMEo3,1,2024-05-10_14h56.10.448,interaction task,2021.2.3,MacIntel,59.88023952,120435,,,,,,,,,,,,,,,,Greater,Smaller,,,0.287654124,-0.478456182,1,0,0,RightButton,"[""RightButton""]",,,,,,,88,1.5586,space,0.4552,12,4.0561,,,,,,0,16,16,16,1,3,only_sub_wrong.png,2,RandomDot38.png,No answer,21,,,
,,,,,,,,,,,,,,,,,,,,,,,,,,,,,,,R_8cvY6RMpIIbMEo3,1,2024-05-10_14h56.10.448,interaction task,2021.2.3,MacIntel,59.88023952,120435,,,,,,,,,,,,,,,,Smaller,Greater,,,-0.263042092,-0.480825408,1,0,0,LeftButton,"[""LeftButton""]",,,,,,,,,,,,,30.28864324,3.9632,space,62.67887205,6.0822,0,17,17,17,1,3,only_sub_wrong.png,3,RandomDot22.png,No answer,21,,,0.6178
,,,,,,,,,,,,,,,,,,,,,,,,,,,,,,,R_8cvY6RMpIIbMEo3,1,2024-05-10_14h56.10.448,interaction task,2021.2.3,MacIntel,59.88023952,120435,,,,,,,,,,,,,,,,Greater,Smaller,,,-0.262659439,-0.466109035,1,0,0,LeftButton,"[""LeftButton""]",0,2.5078,space,,,,,,,,,,,,,,,0,18,18,18,1,2,only_sub_right.png,0,RandomDot8.png,No answer,20,0.4735,,
,,,,,,,,,,,,,,,,,,,,,,,,,,,,,,,R_8cvY6RMpIIbMEo3,1,2024-05-10_14h56.10.448,interaction task,2021.2.3,MacIntel,59.88023952,120435,,,,,,,,,,,,,,,,Greater,Smaller,,,0.270939626,-0.534332541,1,0,0,RightButton,"[""RightButton""]",,,,,,,77,7.9732,space,2.7859,0,2.8856,,,,,,0,19,19,19,1,3,only_sub_wrong.png,2,RandomDot23.png,No answer,20,,,
,,,,,,,,,,,,,,,,,,,,,,,,,,,,,,,R_8cvY6RMpIIbMEo3,1,2024-05-10_14h56.10.448,interaction task,2021.2.3,MacIntel,59.88023952,120435,,,,,,,,,,,,,,,,Smaller,Greater,,,-0.317171556,-0.487083899,1,0,0,LeftButton,"[""LeftButton""]",,,,,,,37,2.957,space,0.3343,4,5.3615,,,,,,0,20,20,20,1,1,both_wrong.png,2,RandomDot24.png,No answer,21,,,
,,,,,,,,,,,,,,,,,,,,,,,,,,,,,,,R_8cvY6RMpIIbMEo3,1,2024-05-10_14h56.10.448,interaction task,2021.2.3,MacIntel,59.88023952,120435,,,,,,,,,,,,,,,,Greater,Smaller,,,0.248267432,-0.479067595,1,0,0,RightButton,"[""RightButton""]",,,,,,,,,,,,,,,,,,0,21,21,21,1,5,both_right.png,10,RandomDot42.png,RightButton,19,,,
,,,,,,,,,,,,,,,,,,,,,,,,,,,,,,,R_8cvY6RMpIIbMEo3,1,2024-05-10_14h56.10.448,interaction task,2021.2.3,MacIntel,59.88023952,120435,,,,,,,,,,,,,,,,Smaller,Greater,,,-0.25368835,-0.486234715,1,0,0,LeftButton,"[""LeftButton""]",,,,4.004969175,3.2906,space,,,,,,,,,,,,0,22,22,22,1,3,only_sub_wrong.png,1,RandomDot15.png,No answer,20,,0.5832,
,,,,,,,,,,,,,,,,,,,,,,,,,,,,,,,R_8cvY6RMpIIbMEo3,1,2024-05-10_14h56.10.448,interaction task,2021.2.3,MacIntel,59.88023952,120435,,,,,,,,,,,,,,,,Greater,Smaller,,,0.302120536,-0.50657269,1,0,0,RightButton,"[""RightButton""]",,,,0.014615221,2.9659,space,,,,,,,,,,,,0,23,23,23,1,2,only_sub_right.png,1,RandomDot4.png,No answer,19,,0.3565,
,,,,,,,,,,,,,,,,,,,,,,,,,,,,,,,R_8cvY6RMpIIbMEo3,1,2024-05-10_14h56.10.448,interaction task,2021.2.3,MacIntel,59.88023952,120435,,,,,,,,,,,,,,,,Smaller,Greater,,,-0.302673257,-0.49094769,1,0,0,LeftButton,"[""LeftButton""]",,,,,,,,,,,,,,,,,,0,24,24,24,1,0,both_right.png,0,RandomDot15.png,No answer,21,,,
,,,,,,,,,,,,,,,,,,,,,,,,,,,,,,,R_8cvY6RMpIIbMEo3,1,2024-05-10_14h56.10.448,interaction task,2021.2.3,MacIntel,59.88023952,120435,,,,,,,,,,,,,,,,Greater,Smaller,,,-0.29942602,-0.484918478,1,0,0,LeftButton,"[""LeftButton""]",,,,2.019132653,3.26,space,,,,,,,,,,,,0,25,25,25,1,1,both_wrong.png,1,RandomDot28.png,No answer,21,,0.5017,
,,,,,,,,,,,,,,,,,,,,,,,,,,,,,,,R_8cvY6RMpIIbMEo3,1,2024-05-10_14h56.10.448,interaction task,2021.2.3,MacIntel,59.88023952,120435,,,,,,,,,,,,,,,,Smaller,Greater,,,-0.296688988,-0.47256284,1,0,0,LeftButton,"[""LeftButton""]",100,3.2846,space,,,,,,,,,,,,,,,0,26,26,26,1,3,only_sub_wrong.png,0,RandomDot25.png,No answer,20,0.4668,,
,,,,,,,,,,,,,,,,,,,,,,,,,,,,,,,R_8cvY6RMpIIbMEo3,1,2024-05-10_14h56.10.448,interaction task,2021.2.3,MacIntel,59.88023952,120435,,,,,,,,,,,,,,,,Smaller,Greater,,,0.353438563,-0.495966372,1,0,0,RightButton,"[""RightButton""]",67,2.8597,space,,,,,,,,,,,,,,,0,27,27,27,1,1,both_wrong.png,0,RandomDot23.png,No answer,20,0.5532,,
,,,,,,,,,,,,,,,,,,,,,,,,,,,,,,,R_8cvY6RMpIIbMEo3,1,2024-05-10_14h56.10.448,interaction task,2021.2.3,MacIntel,59.88023952,120435,,,,,,,,,,,,,,,,Smaller,Greater,,,-0.309863946,-0.483220109,1,0,0,LeftButton,"[""LeftButton""]",,,,,,,,,,,,,90.5586477,5.7315,space,0,2.4733,0,28,28,28,1,2,only_sub_right.png,3,RandomDot18.png,No answer,20,,,0.48
,,,,,,,,,,,,,,,,,,,,,,,,,,,,,,,R_8cvY6RMpIIbMEo3,1,2024-05-10_14h56.10.448,interaction task,2021.2.3,MacIntel,59.88023952,120435,,,,,,,,,,,,,,,,Greater,Smaller,,,0.303985969,-0.486107337,1,0,0,RightButton,"[""RightButton""]",,,,,,,,,,,,,36.87394781,2.5718,space,91.47555487,4.3562,0,29,29,29,1,3,only_sub_wrong.png,3,RandomDot34.png,No answer,20,,,1.0215
,,,,,,,,,,,,,,,,,,,,,,,,,,,,,,,R_8cvY6RMpIIbMEo3,1,2024-05-10_14h56.10.448,interaction task,2021.2.3,MacIntel,59.88023952,120435,,,,,,,,,,,,,,,,Greater,Smaller,,,-0.30078125,-0.47376019,1,0,0,LeftButton,"[""LeftButton""]",,,,4.587106718,4.2962,space,,,,,,,,,,,,0,30,30,30,1,3,only_sub_wrong.png,1,RandomDot22.png,No answer,19,,1.6171,
,,,,,,,,,,,,,,,,,,,,,,,,,,,,,,,R_8cvY6RMpIIbMEo3,1,2024-05-10_14h56.10.448,interaction task,2021.2.3,MacIntel,59.88023952,120435,,,,,,,,,,,,,,,,Greater,Smaller,,,-0.304140094,-0.467595109,1,0,0,LeftButton,"[""LeftButton""]",,,,,,,,,,,,,33.36307376,6.8338,space,0,4.6433,0,31,31,31,1,2,only_sub_right.png,3,RandomDot36.png,No answer,20,,,0.5838
,,,,,,,,,,,,,,,,,,,,,,,,,,,,,,,R_8cvY6RMpIIbMEo3,1,2024-05-10_14h56.10.448,interaction task,2021.2.3,MacIntel,59.88023952,120435,,,,,,,,,,,,,,,,Greater,Smaller,,,-0.309890519,-0.485258152,1,0,0,LeftButton,"[""LeftButton""]",,,,2.380899235,3.7149,space,,,,,,,,,,,,0,32,32,32,1,1,both_wrong.png,1,RandomDot26.png,No answer,21,,0.3301,
,,,,,,,,,,,,,,,,,,,,,,,,,,,,,,,R_8cvY6RMpIIbMEo3,1,2024-05-10_14h56.10.448,interaction task,2021.2.3,MacIntel,59.88023952,120435,,,,,,,,,,,,,,,,Smaller,Greater,,,-0.308046344,-0.489478601,1,0,0,LeftButton,"[""LeftButton""]",,,,,,,,,,,,,24.27667405,3.0079,space,74.67489521,4.6201,0,33,33,33,1,1,both_wrong.png,3,RandomDot12.png,No answer,19,,,0.2848
,,,,,,,,,,,,,,,,,,,,,,,,,,,,,,,R_8cvY6RMpIIbMEo3,1,2024-05-10_14h56.10.448,interaction task,2021.2.3,MacIntel,59.88023952,120435,,,,,,,,,,,,,,,,Smaller,Greater,,,-0.300685587,-0.477080503,1,0,0,LeftButton,"[""LeftButton""]",,,,,,,,,,,,,,,,,,0,34,34,34,1,0,both_right.png,3,RandomDot13.png,No answer,19,,,
,,,,,,,,,,,,,,,,,,,,,,,,,,,,,,,R_8cvY6RMpIIbMEo3,1,2024-05-10_14h56.10.448,interaction task,2021.2.3,MacIntel,59.88023952,120435,,,,,,,,,,,,,,,,Smaller,Greater,,,-0.317442602,-0.508389946,1,0,0,LeftButton,"[""LeftButton""]",,,,,,,5,2.2163,space,0.3508,3,4.6229,,,,,,0,35,35,35,1,2,only_sub_right.png,2,RandomDot22.png,No answer,19,,,
,,,,,,,,,,,,,,,,,,,,,,,,,,,,,,,R_8cvY6RMpIIbMEo3,1,2024-05-10_14h56.10.448,interaction task,2021.2.3,MacIntel,59.88023952,120435,,,,,,,,,,,,,,,,Greater,Smaller,,,-0.267479804,-0.500016984,1,0,0,LeftButton,"[""LeftButton""]",97,2.5722,space,,,,,,,,,,,,,,,0,36,36,36,1,3,only_sub_wrong.png,0,RandomDot38.png,No answer,21,0.4024,,
,,,,,,,,,,,,,,,,,,,,,,,,,,,,,,,R_8cvY6RMpIIbMEo3,1,2024-05-10_14h56.10.448,interaction task,2021.2.3,MacIntel,59.88023952,120435,,,,,,,,,,,,,,,,Smaller,Greater,,,-0.228050595,-0.504025136,1,0,0,LeftButton,"[""LeftButton""]",97,1.9038,space,,,,,,,,,,,,,,,0,37,37,37,1,3,only_sub_wrong.png,0,RandomDot25.png,No answer,21,0.3306,,
,,,,,,,,,,,,,,,,,,,,,,,,,,,,,,,R_8cvY6RMpIIbMEo3,1,2024-05-10_14h56.10.448,interaction task,2021.2.3,MacIntel,59.88023952,120435,,,,,,,,,,,,,,,,Greater,Smaller,,,-0.23238733,-0.486345109,1,0,0,LeftButton,"[""LeftButton""]",,,,,,,94,3.6277,space,0.3053,11,6.3559,,,,,,0,38,38,38,1,1,both_wrong.png,2,RandomDot9.png,No answer,21,,,
,,,,,,,,,,,,,,,,,,,,,,,,,,,,,,,R_8cvY6RMpIIbMEo3,1,2024-05-10_14h56.10.448,interaction task,2021.2.3,MacIntel,59.88023952,120435,,,,,,,,,,,,,,,,Greater,Smaller,,,-0.318223852,-0.504976223,1,0,0,LeftButton,"[""LeftButton""]",,,,,,,,,,,,,36.76711846,2.3662,space,58.82764722,4.6996,0,39,39,39,1,3,only_sub_wrong.png,3,RandomDot17.png,No answer,19,,,0.7009
,,,,,,,,,,,,,,,,,,,,,,,,,,,,,,,R_8cvY6RMpIIbMEo3,1,2024-05-10_14h56.10.448,interaction task,2021.2.3,MacIntel,59.88023952,120435,,,,,,,,,,,,,,,,Greater,Smaller,,,-0.265173257,-0.488680367,1,0,0,LeftButton,"[""LeftButton""]",,,,,,,,,,,,,,,,,,0,40,40,40,1,4,both_right.png,10,RandomDot41.png,LeftButton,5,,,
,,,,,,,,,,,,,,,,,,,,,,,,,,,,,,,R_8cvY6RMpIIbMEo3,1,2024-05-10_14h56.10.448,interaction task,2021.2.3,MacIntel,59.88023952,120435,,,,,,,,,,,,,,,,Smaller,Greater,,,-0.316783588,-0.513688859,1,0,0,LeftButton,"[""LeftButton""]",,,,,,,1,5.0304,space,0.319,4,2.82,,,,,,0,41,41,41,1,2,only_sub_right.png,2,RandomDot34.png,No answer,20,,,
