﻿choose_trial,key_resp.keys,key_resp.rt,key_resp_4.keys,key_resp_4.rt,session_trait,key_resp_5.keys,key_resp_5.rt,slider_face_judge.response,slider_face_judge.rt,key_resp_3.keys,key_resp_3.rt,face_loop.thisRepN,face_loop.thisTrialN,face_loop.thisN,face_loop.thisIndex,face_loop.ran,face_serial,image_name,isCheck,answer,check_question,participant,session,date,expName,psychopyVersion,OS,frameRate,session.thisRepN,session.thisTrialN,session.thisN,session.thisIndex,session.ran,session_serial,slider_judge_img
"[0,1,2,3,4,5,6,7,8,9,10,11,12,13,14,15,16,17,18,19,20,21,22,23,24,25,26,27,28,29,30,31,32,33,34,35,36,37,38,39,40,41,42,43,44,45,46,47,48,49,52,59,55]",space,5.2218,space,8.8194,trustworthy,space,11.4144,5.005555556,2.6736,space,0.667,0,0,0,38,1,39,image/39.jpg,0,0,,用户30686,2,2024-05-31_01h10.17.918,face trait task chi,2021.2.3,Win32,75.18796992,,,,,,,
,,,,,,,,2.866666667,1.8144,space,0.7355,0,1,1,1,1,2,image/2.jpg,0,0,,用户30686,2,2024-05-31_01h10.17.918,face trait task chi,2021.2.3,Win32,75.18796992,,,,,,,
,,,,,,,,4.116666667,1.6249,space,0.3657,0,2,2,24,1,25,image/25.jpg,0,0,,用户30686,2,2024-05-31_01h10.17.918,face trait task chi,2021.2.3,Win32,75.18796992,,,,,,,
,,,,,,,,5.544444444,1.5369,space,0.4137,0,3,3,37,1,38,image/38.jpg,0,0,,用户30686,2,2024-05-31_01h10.17.918,face trait task chi,2021.2.3,Win32,75.18796992,,,,,,,
,,,,,,,,2.416666667,3.0415,space,0.307,0,4,4,3,1,4,image/4.jpg,0,0,,用户30686,2,2024-05-31_01h10.17.918,face trait task chi,2021.2.3,Win32,75.18796992,,,,,,,
,,,,,,,,4.405555556,2.2681,space,0.3071,0,5,5,8,1,9,image/9.jpg,0,0,,用户30686,2,2024-05-31_01h10.17.918,face trait task chi,2021.2.3,Win32,75.18796992,,,,,,,
,,,,,,,,6.566666667,2.8549,space,0.852,0,6,6,46,1,47,image/47.jpg,0,0,,用户30686,2,2024-05-31_01h10.17.918,face trait task chi,2021.2.3,Win32,75.18796992,,,,,,,
,,,,,,,,6.027777778,1.5747,space,0.731,0,7,7,33,1,34,image/34.jpg,0,0,,用户30686,2,2024-05-31_01h10.17.918,face trait task chi,2021.2.3,Win32,75.18796992,,,,,,,
,,,,,,,,6.972222222,2.5979,space,0.4888,0,8,8,41,1,42,image/42.jpg,0,0,,用户30686,2,2024-05-31_01h10.17.918,face trait task chi,2021.2.3,Win32,75.18796992,,,,,,,
,,,,,,,,4.183333333,1.9283,space,0.6917,0,9,9,49,1,50,image/50.jpg,0,0,,用户30686,2,2024-05-31_01h10.17.918,face trait task chi,2021.2.3,Win32,75.18796992,,,,,,,
,,,,,,,,3.455555556,1.9523,space,0.3922,0,10,10,30,1,31,image/31.jpg,0,0,,用户30686,2,2024-05-31_01h10.17.918,face trait task chi,2021.2.3,Win32,75.18796992,,,,,,,
,,,,,,,,5.155555556,2.1149,space,0.4681,0,11,11,10,1,11,image/11.jpg,0,0,,用户30686,2,2024-05-31_01h10.17.918,face trait task chi,2021.2.3,Win32,75.18796992,,,,,,,
,,,,,,,,5.455555556,2.272,space,0.909,0,12,12,22,1,23,image/23.jpg,0,0,,用户30686,2,2024-05-31_01h10.17.918,face trait task chi,2021.2.3,Win32,75.18796992,,,,,,,
,,,,,,,,6.05,1.6507,space,0.6778,0,13,13,5,1,6,image/6.jpg,0,0,,用户30686,2,2024-05-31_01h10.17.918,face trait task chi,2021.2.3,Win32,75.18796992,,,,,,,
,,,,,,,,6.422222222,2.9636,space,0.4054,0,14,14,43,1,44,image/44.jpg,0,0,,用户30686,2,2024-05-31_01h10.17.918,face trait task chi,2021.2.3,Win32,75.18796992,,,,,,,
,,,,,,,,5.083333333,2.5145,space,0.3673,0,15,15,25,1,26,image/26.jpg,0,0,,用户30686,2,2024-05-31_01h10.17.918,face trait task chi,2021.2.3,Win32,75.18796992,,,,,,,
,,,,,,,,3.616666667,1.997,space,0.4391,0,16,16,15,1,16,image/16.jpg,0,0,,用户30686,2,2024-05-31_01h10.17.918,face trait task chi,2021.2.3,Win32,75.18796992,,,,,,,
,,,,,,,,7,7.2923,space,4.1077,0,17,17,52,1,56,image/fill_img.png,1,7,请将滑块完全移动到<右边>，以示您在专心判断。,用户30686,2,2024-05-31_01h10.17.918,face trait task chi,2021.2.3,Win32,75.18796992,,,,,,,
,,,,,,,,5,4.9352,space,0.3442,0,18,18,14,1,15,image/15.jpg,0,0,,用户30686,2,2024-05-31_01h10.17.918,face trait task chi,2021.2.3,Win32,75.18796992,,,,,,,
,,,,,,,,4.138888889,1.583,space,0.5935,0,19,19,28,1,29,image/29.jpg,0,0,,用户30686,2,2024-05-31_01h10.17.918,face trait task chi,2021.2.3,Win32,75.18796992,,,,,,,
,,,,,,,,4.705555556,2.7408,space,0.3988,0,20,20,45,1,46,image/46.jpg,0,0,,用户30686,2,2024-05-31_01h10.17.918,face trait task chi,2021.2.3,Win32,75.18796992,,,,,,,
,,,,,,,,4.072222222,3.5696,space,0.3475,0,21,21,26,1,27,image/27.jpg,0,0,,用户30686,2,2024-05-31_01h10.17.918,face trait task chi,2021.2.3,Win32,75.18796992,,,,,,,
,,,,,,,,5.605555556,1.6549,space,0.814,0,22,22,6,1,7,image/7.jpg,0,0,,用户30686,2,2024-05-31_01h10.17.918,face trait task chi,2021.2.3,Win32,75.18796992,,,,,,,
,,,,,,,,5.333333333,1.9615,space,0.3808,0,23,23,23,1,24,image/24.jpg,0,0,,用户30686,2,2024-05-31_01h10.17.918,face trait task chi,2021.2.3,Win32,75.18796992,,,,,,,
,,,,,,,,4.538888889,1.2066,space,0.4869,0,24,24,21,1,22,image/22.jpg,0,0,,用户30686,2,2024-05-31_01h10.17.918,face trait task chi,2021.2.3,Win32,75.18796992,,,,,,,
,,,,,,,,3.105555556,4.8629,space,0.3153,0,25,25,16,1,17,image/17.jpg,0,0,,用户30686,2,2024-05-31_01h10.17.918,face trait task chi,2021.2.3,Win32,75.18796992,,,,,,,
,,,,,,,,6.405555556,1.9693,space,0.4383,0,26,26,44,1,45,image/45.jpg,0,0,,用户30686,2,2024-05-31_01h10.17.918,face trait task chi,2021.2.3,Win32,75.18796992,,,,,,,
,,,,,,,,4.672222222,3.0332,space,1.2315,0,27,27,9,1,10,image/10.jpg,0,0,,用户30686,2,2024-05-31_01h10.17.918,face trait task chi,2021.2.3,Win32,75.18796992,,,,,,,
,,,,,,,,5.75,1.7716,space,0.365,0,28,28,4,1,5,image/5.jpg,0,0,,用户30686,2,2024-05-31_01h10.17.918,face trait task chi,2021.2.3,Win32,75.18796992,,,,,,,
,,,,,,,,6.566666667,4.4707,space,0.3564,0,29,29,18,1,19,image/19.jpg,0,0,,用户30686,2,2024-05-31_01h10.17.918,face trait task chi,2021.2.3,Win32,75.18796992,,,,,,,
,,,,,,,,5.955555556,1.8114,space,0.5283,0,30,30,20,1,21,image/21.jpg,0,0,,用户30686,2,2024-05-31_01h10.17.918,face trait task chi,2021.2.3,Win32,75.18796992,,,,,,,
,,,,,,,,5.45,2.0168,space,1.2344,0,31,31,31,1,32,image/32.jpg,0,0,,用户30686,2,2024-05-31_01h10.17.918,face trait task chi,2021.2.3,Win32,75.18796992,,,,,,,
,,,,,,,,1,5.782,space,4.4795,0,32,32,50,1,53,image/fill_img.png,1,1,请将滑块完全移动到<左边>，以示您在专心判断。,用户30686,2,2024-05-31_01h10.17.918,face trait task chi,2021.2.3,Win32,75.18796992,,,,,,,
,,,,,,,,4.216666667,3.2772,space,1.0639,0,33,33,29,1,30,image/30.jpg,0,0,,用户30686,2,2024-05-31_01h10.17.918,face trait task chi,2021.2.3,Win32,75.18796992,,,,,,,
,,,,,,,,5.644444444,1.348,space,0.3805,0,34,34,11,1,12,image/12.jpg,0,0,,用户30686,2,2024-05-31_01h10.17.918,face trait task chi,2021.2.3,Win32,75.18796992,,,,,,,
,,,,,,,,3.372222222,2.5015,space,0.5053,0,35,35,12,1,13,image/13.jpg,0,0,,用户30686,2,2024-05-31_01h10.17.918,face trait task chi,2021.2.3,Win32,75.18796992,,,,,,,
,,,,,,,,2.511111111,1.5281,space,0.3983,0,36,36,2,1,3,image/3.jpg,0,0,,用户30686,2,2024-05-31_01h10.17.918,face trait task chi,2021.2.3,Win32,75.18796992,,,,,,,
,,,,,,,,2.266666667,1.4934,space,0.7144,0,37,37,32,1,33,image/33.jpg,0,0,,用户30686,2,2024-05-31_01h10.17.918,face trait task chi,2021.2.3,Win32,75.18796992,,,,,,,
,,,,,,,,4.594444444,1.4584,space,0.4923,0,38,38,42,1,43,image/43.jpg,0,0,,用户30686,2,2024-05-31_01h10.17.918,face trait task chi,2021.2.3,Win32,75.18796992,,,,,,,
,,,,,,,,3.533333333,2.0611,space,0.3616,0,39,39,27,1,28,image/28.jpg,0,0,,用户30686,2,2024-05-31_01h10.17.918,face trait task chi,2021.2.3,Win32,75.18796992,,,,,,,
,,,,,,,,5.033333333,2.2104,space,0.3472,0,40,40,36,1,37,image/37.jpg,0,0,,用户30686,2,2024-05-31_01h10.17.918,face trait task chi,2021.2.3,Win32,75.18796992,,,,,,,
,,,,,,,,5.744444444,2.8426,space,0.9814,0,41,41,19,1,20,image/20.jpg,0,0,,用户30686,2,2024-05-31_01h10.17.918,face trait task chi,2021.2.3,Win32,75.18796992,,,,,,,
,,,,,,,,3.5,1.8821,space,0.3737,0,42,42,40,1,41,image/41.jpg,0,0,,用户30686,2,2024-05-31_01h10.17.918,face trait task chi,2021.2.3,Win32,75.18796992,,,,,,,
,,,,,,,,4.338888889,1.9916,space,0.3739,0,43,43,13,1,14,image/14.jpg,0,0,,用户30686,2,2024-05-31_01h10.17.918,face trait task chi,2021.2.3,Win32,75.18796992,,,,,,,
,,,,,,,,5.888888889,1.5353,space,0.3741,0,44,44,39,1,40,image/40.jpg,0,0,,用户30686,2,2024-05-31_01h10.17.918,face trait task chi,2021.2.3,Win32,75.18796992,,,,,,,
,,,,,,,,6.116666667,1.8502,space,0.9174,0,45,45,48,1,49,image/49.jpg,0,0,,用户30686,2,2024-05-31_01h10.17.918,face trait task chi,2021.2.3,Win32,75.18796992,,,,,,,
,,,,,,,,5.533333333,1.3751,space,0.414,0,46,46,35,1,36,image/36.jpg,0,0,,用户30686,2,2024-05-31_01h10.17.918,face trait task chi,2021.2.3,Win32,75.18796992,,,,,,,
,,,,,,,,7,5.2792,space,3.2694,0,47,47,51,1,60,image/fill_img.png,1,7,请将滑块完全移动到<右边>，以示您在专心判断。,用户30686,2,2024-05-31_01h10.17.918,face trait task chi,2021.2.3,Win32,75.18796992,,,,,,,
,,,,,,,,5.3,2.5449,space,0.6167,0,48,48,0,1,1,image/1.jpg,0,0,,用户30686,2,2024-05-31_01h10.17.918,face trait task chi,2021.2.3,Win32,75.18796992,,,,,,,
,,,,,,,,5.766666667,2.5695,space,0.3399,0,49,49,17,1,18,image/18.jpg,0,0,,用户30686,2,2024-05-31_01h10.17.918,face trait task chi,2021.2.3,Win32,75.18796992,,,,,,,
,,,,,,,,6.322222222,1.4386,space,0.5437,0,50,50,34,1,35,image/35.jpg,0,0,,用户30686,2,2024-05-31_01h10.17.918,face trait task chi,2021.2.3,Win32,75.18796992,,,,,,,
,,,,,,,,4.794444444,1.8035,space,0.3736,0,51,51,7,1,8,image/8.jpg,0,0,,用户30686,2,2024-05-31_01h10.17.918,face trait task chi,2021.2.3,Win32,75.18796992,,,,,,,
,,,,,,,,5.744444444,2.0439,space,0.4537,0,52,52,47,1,48,image/48.jpg,0,0,,用户30686,2,2024-05-31_01h10.17.918,face trait task chi,2021.2.3,Win32,75.18796992,,,,,,,
,,,,,,,,,,,,,,,,,,,,,,用户30686,2,2024-05-31_01h10.17.918,face trait task chi,2021.2.3,Win32,75.18796992,0,0,0,2,1,2,trustworthy.png
,,,,,competent,space,7.076,5.772222222,2.856,space,0.9682,0,0,0,11,1,12,image/12.jpg,0,0,,用户30686,2,2024-05-31_01h10.17.918,face trait task chi,2021.2.3,Win32,75.18796992,,,,,,,
,,,,,,,,5.283333333,1.8326,space,0.4192,0,1,1,14,1,15,image/15.jpg,0,0,,用户30686,2,2024-05-31_01h10.17.918,face trait task chi,2021.2.3,Win32,75.18796992,,,,,,,
,,,,,,,,4.433333333,2.3528,space,0.3678,0,2,2,46,1,47,image/47.jpg,0,0,,用户30686,2,2024-05-31_01h10.17.918,face trait task chi,2021.2.3,Win32,75.18796992,,,,,,,
,,,,,,,,1,3.5487,space,3.1449,0,3,3,50,1,53,image/fill_img.png,1,1,请将滑块完全移动到<左边>，以示您在专心判断。,用户30686,2,2024-05-31_01h10.17.918,face trait task chi,2021.2.3,Win32,75.18796992,,,,,,,
,,,,,,,,6.727777778,3.1605,space,1.0216,0,4,4,34,1,35,image/35.jpg,0,0,,用户30686,2,2024-05-31_01h10.17.918,face trait task chi,2021.2.3,Win32,75.18796992,,,,,,,
,,,,,,,,6.216666667,1.5745,space,0.4373,0,5,5,19,1,20,image/20.jpg,0,0,,用户30686,2,2024-05-31_01h10.17.918,face trait task chi,2021.2.3,Win32,75.18796992,,,,,,,
,,,,,,,,3.666666667,1.9214,space,0.6653,0,6,6,13,1,14,image/14.jpg,0,0,,用户30686,2,2024-05-31_01h10.17.918,face trait task chi,2021.2.3,Win32,75.18796992,,,,,,,
,,,,,,,,3.355555556,1.8587,space,0.4204,0,7,7,3,1,4,image/4.jpg,0,0,,用户30686,2,2024-05-31_01h10.17.918,face trait task chi,2021.2.3,Win32,75.18796992,,,,,,,
,,,,,,,,4.644444444,1.5413,space,0.6224,0,8,8,47,1,48,image/48.jpg,0,0,,用户30686,2,2024-05-31_01h10.17.918,face trait task chi,2021.2.3,Win32,75.18796992,,,,,,,
,,,,,,,,7,3.9999,space,2.0879,0,9,9,52,1,56,image/fill_img.png,1,7,请将滑块完全移动到<右边>，以示您在专心判断。,用户30686,2,2024-05-31_01h10.17.918,face trait task chi,2021.2.3,Win32,75.18796992,,,,,,,
,,,,,,,,6.361111111,3.13,space,1.009,0,10,10,20,1,21,image/21.jpg,0,0,,用户30686,2,2024-05-31_01h10.17.918,face trait task chi,2021.2.3,Win32,75.18796992,,,,,,,
,,,,,,,,6.783333333,2.3093,space,1.0115,0,11,11,33,1,34,image/34.jpg,0,0,,用户30686,2,2024-05-31_01h10.17.918,face trait task chi,2021.2.3,Win32,75.18796992,,,,,,,
,,,,,,,,3.488888889,2.1862,space,0.3638,0,12,12,21,1,22,image/22.jpg,0,0,,用户30686,2,2024-05-31_01h10.17.918,face trait task chi,2021.2.3,Win32,75.18796992,,,,,,,
,,,,,,,,3.894444444,1.4901,space,0.3675,0,13,13,39,1,40,image/40.jpg,0,0,,用户30686,2,2024-05-31_01h10.17.918,face trait task chi,2021.2.3,Win32,75.18796992,,,,,,,
,,,,,,,,4.005555556,1.9193,space,0.4228,0,14,14,10,1,11,image/11.jpg,0,0,,用户30686,2,2024-05-31_01h10.17.918,face trait task chi,2021.2.3,Win32,75.18796992,,,,,,,
,,,,,,,,4.75,1.3112,space,0.5481,0,15,15,36,1,37,image/37.jpg,0,0,,用户30686,2,2024-05-31_01h10.17.918,face trait task chi,2021.2.3,Win32,75.18796992,,,,,,,
,,,,,,,,5.261111111,1.7005,space,0.3456,0,16,16,38,1,39,image/39.jpg,0,0,,用户30686,2,2024-05-31_01h10.17.918,face trait task chi,2021.2.3,Win32,75.18796992,,,,,,,
,,,,,,,,4.5,1.7779,space,0.3032,0,17,17,40,1,41,image/41.jpg,0,0,,用户30686,2,2024-05-31_01h10.17.918,face trait task chi,2021.2.3,Win32,75.18796992,,,,,,,
,,,,,,,,5.677777778,1.4845,space,0.432,0,18,18,5,1,6,image/6.jpg,0,0,,用户30686,2,2024-05-31_01h10.17.918,face trait task chi,2021.2.3,Win32,75.18796992,,,,,,,
,,,,,,,,6.144444444,1.9244,space,0.4455,0,19,19,43,1,44,image/44.jpg,0,0,,用户30686,2,2024-05-31_01h10.17.918,face trait task chi,2021.2.3,Win32,75.18796992,,,,,,,
,,,,,,,,5.311111111,1.5698,space,0.6633,0,20,20,42,1,43,image/43.jpg,0,0,,用户30686,2,2024-05-31_01h10.17.918,face trait task chi,2021.2.3,Win32,75.18796992,,,,,,,
,,,,,,,,4.344444444,1.415,space,0.9084,0,21,21,7,1,8,image/8.jpg,0,0,,用户30686,2,2024-05-31_01h10.17.918,face trait task chi,2021.2.3,Win32,75.18796992,,,,,,,
,,,,,,,,6.444444444,1.4229,space,0.4684,0,22,22,45,1,46,image/46.jpg,0,0,,用户30686,2,2024-05-31_01h10.17.918,face trait task chi,2021.2.3,Win32,75.18796992,,,,,,,
,,,,,,,,6.155555556,1.3454,space,0.6918,0,23,23,41,1,42,image/42.jpg,0,0,,用户30686,2,2024-05-31_01h10.17.918,face trait task chi,2021.2.3,Win32,75.18796992,,,,,,,
,,,,,,,,3.65,1.8895,space,0.3482,0,24,24,30,1,31,image/31.jpg,0,0,,用户30686,2,2024-05-31_01h10.17.918,face trait task chi,2021.2.3,Win32,75.18796992,,,,,,,
,,,,,,,,2.211111111,2.0016,space,0.3973,0,25,25,2,1,3,image/3.jpg,0,0,,用户30686,2,2024-05-31_01h10.17.918,face trait task chi,2021.2.3,Win32,75.18796992,,,,,,,
,,,,,,,,2.572222222,1.308,space,0.4028,0,26,26,16,1,17,image/17.jpg,0,0,,用户30686,2,2024-05-31_01h10.17.918,face trait task chi,2021.2.3,Win32,75.18796992,,,,,,,
,,,,,,,,4.983333333,2.6039,space,0.4047,0,27,27,44,1,45,image/45.jpg,0,0,,用户30686,2,2024-05-31_01h10.17.918,face trait task chi,2021.2.3,Win32,75.18796992,,,,,,,
,,,,,,,,3.944444444,1.3478,space,0.5388,0,28,28,27,1,28,image/28.jpg,0,0,,用户30686,2,2024-05-31_01h10.17.918,face trait task chi,2021.2.3,Win32,75.18796992,,,,,,,
,,,,,,,,3.577777778,1.3614,space,0.4311,0,29,29,0,1,1,image/1.jpg,0,0,,用户30686,2,2024-05-31_01h10.17.918,face trait task chi,2021.2.3,Win32,75.18796992,,,,,,,
,,,,,,,,7,3.6192,space,2.2411,0,30,30,51,1,60,image/fill_img.png,1,7,请将滑块完全移动到<右边>，以示您在专心判断。,用户30686,2,2024-05-31_01h10.17.918,face trait task chi,2021.2.3,Win32,75.18796992,,,,,,,
,,,,,,,,3.027777778,3.3015,space,0.4145,0,31,31,28,1,29,image/29.jpg,0,0,,用户30686,2,2024-05-31_01h10.17.918,face trait task chi,2021.2.3,Win32,75.18796992,,,,,,,
,,,,,,,,5.216666667,1.9419,space,0.2945,0,32,32,8,1,9,image/9.jpg,0,0,,用户30686,2,2024-05-31_01h10.17.918,face trait task chi,2021.2.3,Win32,75.18796992,,,,,,,
,,,,,,,,5.611111111,1.3819,space,0.3951,0,33,33,17,1,18,image/18.jpg,0,0,,用户30686,2,2024-05-31_01h10.17.918,face trait task chi,2021.2.3,Win32,75.18796992,,,,,,,
,,,,,,,,4.388888889,1.8507,space,0.334,0,34,34,9,1,10,image/10.jpg,0,0,,用户30686,2,2024-05-31_01h10.17.918,face trait task chi,2021.2.3,Win32,75.18796992,,,,,,,
,,,,,,,,6.038888889,2.0378,space,0.3786,0,35,35,12,1,13,image/13.jpg,0,0,,用户30686,2,2024-05-31_01h10.17.918,face trait task chi,2021.2.3,Win32,75.18796992,,,,,,,
,,,,,,,,6.333333333,1.1283,space,0.4542,0,36,36,22,1,23,image/23.jpg,0,0,,用户30686,2,2024-05-31_01h10.17.918,face trait task chi,2021.2.3,Win32,75.18796992,,,,,,,
,,,,,,,,4.738888889,1.8696,space,0.3088,0,37,37,48,1,49,image/49.jpg,0,0,,用户30686,2,2024-05-31_01h10.17.918,face trait task chi,2021.2.3,Win32,75.18796992,,,,,,,
,,,,,,,,4.494444444,1.2455,space,0.3916,0,38,38,26,1,27,image/27.jpg,0,0,,用户30686,2,2024-05-31_01h10.17.918,face trait task chi,2021.2.3,Win32,75.18796992,,,,,,,
,,,,,,,,4.033333333,1.5012,space,0.3145,0,39,39,31,1,32,image/32.jpg,0,0,,用户30686,2,2024-05-31_01h10.17.918,face trait task chi,2021.2.3,Win32,75.18796992,,,,,,,
,,,,,,,,5.744444444,1.536,space,0.3185,0,40,40,4,1,5,image/5.jpg,0,0,,用户30686,2,2024-05-31_01h10.17.918,face trait task chi,2021.2.3,Win32,75.18796992,,,,,,,
,,,,,,,,3.505555556,1.6748,space,0.3069,0,41,41,29,1,30,image/30.jpg,0,0,,用户30686,2,2024-05-31_01h10.17.918,face trait task chi,2021.2.3,Win32,75.18796992,,,,,,,
,,,,,,,,6.388888889,1.805,space,0.4445,0,42,42,23,1,24,image/24.jpg,0,0,,用户30686,2,2024-05-31_01h10.17.918,face trait task chi,2021.2.3,Win32,75.18796992,,,,,,,
,,,,,,,,5.4,1.3066,space,0.4396,0,43,43,37,1,38,image/38.jpg,0,0,,用户30686,2,2024-05-31_01h10.17.918,face trait task chi,2021.2.3,Win32,75.18796992,,,,,,,
,,,,,,,,5.922222222,1.4852,space,0.7739,0,44,44,49,1,50,image/50.jpg,0,0,,用户30686,2,2024-05-31_01h10.17.918,face trait task chi,2021.2.3,Win32,75.18796992,,,,,,,
,,,,,,,,5.683333333,1.0398,space,0.4197,0,45,45,35,1,36,image/36.jpg,0,0,,用户30686,2,2024-05-31_01h10.17.918,face trait task chi,2021.2.3,Win32,75.18796992,,,,,,,
,,,,,,,,4.05,1.8795,space,0.34,0,46,46,24,1,25,image/25.jpg,0,0,,用户30686,2,2024-05-31_01h10.17.918,face trait task chi,2021.2.3,Win32,75.18796992,,,,,,,
,,,,,,,,2.094444444,1.7355,space,0.3646,0,47,47,32,1,33,image/33.jpg,0,0,,用户30686,2,2024-05-31_01h10.17.918,face trait task chi,2021.2.3,Win32,75.18796992,,,,,,,
,,,,,,,,1.961111111,1.5914,space,0.3937,0,48,48,1,1,2,image/2.jpg,0,0,,用户30686,2,2024-05-31_01h10.17.918,face trait task chi,2021.2.3,Win32,75.18796992,,,,,,,
,,,,,,,,5.155555556,2.2528,space,0.334,0,49,49,25,1,26,image/26.jpg,0,0,,用户30686,2,2024-05-31_01h10.17.918,face trait task chi,2021.2.3,Win32,75.18796992,,,,,,,
,,,,,,,,3.766666667,1.5005,space,0.3068,0,50,50,18,1,19,image/19.jpg,0,0,,用户30686,2,2024-05-31_01h10.17.918,face trait task chi,2021.2.3,Win32,75.18796992,,,,,,,
,,,,,,,,4.316666667,1.7297,space,0.3524,0,51,51,15,1,16,image/16.jpg,0,0,,用户30686,2,2024-05-31_01h10.17.918,face trait task chi,2021.2.3,Win32,75.18796992,,,,,,,
,,,,,,,,5.5,1.6821,space,0.867,0,52,52,6,1,7,image/7.jpg,0,0,,用户30686,2,2024-05-31_01h10.17.918,face trait task chi,2021.2.3,Win32,75.18796992,,,,,,,
,,,,,,,,,,,,,,,,,,,,,,用户30686,2,2024-05-31_01h10.17.918,face trait task chi,2021.2.3,Win32,75.18796992,0,1,1,1,1,1,competent.png
,,,,,friendly,space,7.5395,1.866666667,2.2677,space,0.582,0,0,0,30,1,31,image/31.jpg,0,0,,用户30686,2,2024-05-31_01h10.17.918,face trait task chi,2021.2.3,Win32,75.18796992,,,,,,,
,,,,,,,,5.188888889,1.9267,space,0.7073,0,1,1,48,1,49,image/49.jpg,0,0,,用户30686,2,2024-05-31_01h10.17.918,face trait task chi,2021.2.3,Win32,75.18796992,,,,,,,
,,,,,,,,3.55,1.6199,space,0.7203,0,2,2,28,1,29,image/29.jpg,0,0,,用户30686,2,2024-05-31_01h10.17.918,face trait task chi,2021.2.3,Win32,75.18796992,,,,,,,
,,,,,,,,6.316666667,1.7666,space,1.0904,0,3,3,33,1,34,image/34.jpg,0,0,,用户30686,2,2024-05-31_01h10.17.918,face trait task chi,2021.2.3,Win32,75.18796992,,,,,,,
,,,,,,,,3,1.5604,space,0.4728,0,4,4,18,1,19,image/19.jpg,0,0,,用户30686,2,2024-05-31_01h10.17.918,face trait task chi,2021.2.3,Win32,75.18796992,,,,,,,
,,,,,,,,3.45,1.3264,space,0.4593,0,5,5,0,1,1,image/1.jpg,0,0,,用户30686,2,2024-05-31_01h10.17.918,face trait task chi,2021.2.3,Win32,75.18796992,,,,,,,
,,,,,,,,6.677777778,1.5214,space,0.7361,0,6,6,36,1,37,image/37.jpg,0,0,,用户30686,2,2024-05-31_01h10.17.918,face trait task chi,2021.2.3,Win32,75.18796992,,,,,,,
,,,,,,,,2.722222222,1.7821,space,0.3925,0,7,7,13,1,14,image/14.jpg,0,0,,用户30686,2,2024-05-31_01h10.17.918,face trait task chi,2021.2.3,Win32,75.18796992,,,,,,,
,,,,,,,,5.144444444,1.4835,space,0.5881,0,8,8,17,1,18,image/18.jpg,0,0,,用户30686,2,2024-05-31_01h10.17.918,face trait task chi,2021.2.3,Win32,75.18796992,,,,,,,
,,,,,,,,3.5,1.4835,space,0.4536,0,9,9,21,1,22,image/22.jpg,0,0,,用户30686,2,2024-05-31_01h10.17.918,face trait task chi,2021.2.3,Win32,75.18796992,,,,,,,
,,,,,,,,5.011111111,1.7895,space,0.3676,0,10,10,41,1,42,image/42.jpg,0,0,,用户30686,2,2024-05-31_01h10.17.918,face trait task chi,2021.2.3,Win32,75.18796992,,,,,,,
,,,,,,,,4.188888889,1.6645,space,0.3633,0,11,11,46,1,47,image/47.jpg,0,0,,用户30686,2,2024-05-31_01h10.17.918,face trait task chi,2021.2.3,Win32,75.18796992,,,,,,,
,,,,,,,,3.566666667,1.8144,space,0.3374,0,12,12,27,1,28,image/28.jpg,0,0,,用户30686,2,2024-05-31_01h10.17.918,face trait task chi,2021.2.3,Win32,75.18796992,,,,,,,
,,,,,,,,1,3.0773,space,2.2114,0,13,13,50,1,53,image/fill_img.png,1,1,请将滑块完全移动到<左边>，以示您在专心判断。,用户30686,2,2024-05-31_01h10.17.918,face trait task chi,2021.2.3,Win32,75.18796992,,,,,,,
,,,,,,,,5.583333333,2.6544,space,0.2573,0,14,14,15,1,16,image/16.jpg,0,0,,用户30686,2,2024-05-31_01h10.17.918,face trait task chi,2021.2.3,Win32,75.18796992,,,,,,,
,,,,,,,,3.1,1.7842,space,0.3387,0,15,15,39,1,40,image/40.jpg,0,0,,用户30686,2,2024-05-31_01h10.17.918,face trait task chi,2021.2.3,Win32,75.18796992,,,,,,,
,,,,,,,,5.9,2.8112,space,0.8773,0,16,16,25,1,26,image/26.jpg,0,0,,用户30686,2,2024-05-31_01h10.17.918,face trait task chi,2021.2.3,Win32,75.18796992,,,,,,,
,,,,,,,,6.35,1.428,space,0.5214,0,17,17,35,1,36,image/36.jpg,0,0,,用户30686,2,2024-05-31_01h10.17.918,face trait task chi,2021.2.3,Win32,75.18796992,,,,,,,
,,,,,,,,5.027777778,2.136,space,0.3255,0,18,18,7,1,8,image/8.jpg,0,0,,用户30686,2,2024-05-31_01h10.17.918,face trait task chi,2021.2.3,Win32,75.18796992,,,,,,,
,,,,,,,,4.672222222,1.3733,space,0.4898,0,19,19,37,1,38,image/38.jpg,0,0,,用户30686,2,2024-05-31_01h10.17.918,face trait task chi,2021.2.3,Win32,75.18796992,,,,,,,
,,,,,,,,3.211111111,1.6078,space,0.4734,0,20,20,14,1,15,image/15.jpg,0,0,,用户30686,2,2024-05-31_01h10.17.918,face trait task chi,2021.2.3,Win32,75.18796992,,,,,,,
,,,,,,,,2.127777778,1.5037,space,0.4775,0,21,21,8,1,9,image/9.jpg,0,0,,用户30686,2,2024-05-31_01h10.17.918,face trait task chi,2021.2.3,Win32,75.18796992,,,,,,,
,,,,,,,,5.494444444,3.3011,space,0.2988,0,22,22,5,1,6,image/6.jpg,0,0,,用户30686,2,2024-05-31_01h10.17.918,face trait task chi,2021.2.3,Win32,75.18796992,,,,,,,
,,,,,,,,5.861111111,1.514,space,0.3948,0,23,23,49,1,50,image/50.jpg,0,0,,用户30686,2,2024-05-31_01h10.17.918,face trait task chi,2021.2.3,Win32,75.18796992,,,,,,,
,,,,,,,,6.711111111,1.3622,space,0.429,0,24,24,11,1,12,image/12.jpg,0,0,,用户30686,2,2024-05-31_01h10.17.918,face trait task chi,2021.2.3,Win32,75.18796992,,,,,,,
,,,,,,,,4.377777778,1.5781,space,0.5141,0,25,25,45,1,46,image/46.jpg,0,0,,用户30686,2,2024-05-31_01h10.17.918,face trait task chi,2021.2.3,Win32,75.18796992,,,,,,,
,,,,,,,,5.377777778,2.4742,space,2.1966,0,26,26,47,1,48,image/48.jpg,0,0,,用户30686,2,2024-05-31_01h10.17.918,face trait task chi,2021.2.3,Win32,75.18796992,,,,,,,
,,,,,,,,7,3.6764,space,2.0673,0,27,27,52,1,56,image/fill_img.png,1,7,请将滑块完全移动到<右边>，以示您在专心判断。,用户30686,2,2024-05-31_01h10.17.918,face trait task chi,2021.2.3,Win32,75.18796992,,,,,,,
,,,,,,,,3.95,3.2142,space,0.5079,0,28,28,31,1,32,image/32.jpg,0,0,,用户30686,2,2024-05-31_01h10.17.918,face trait task chi,2021.2.3,Win32,75.18796992,,,,,,,
,,,,,,,,1.95,1.783,space,0.3826,0,29,29,9,1,10,image/10.jpg,0,0,,用户30686,2,2024-05-31_01h10.17.918,face trait task chi,2021.2.3,Win32,75.18796992,,,,,,,
,,,,,,,,6.077777778,1.9323,space,1.2227,0,30,30,22,1,23,image/23.jpg,0,0,,用户30686,2,2024-05-31_01h10.17.918,face trait task chi,2021.2.3,Win32,75.18796992,,,,,,,
,,,,,,,,4.116666667,2.3321,space,0.3541,0,31,31,16,1,17,image/17.jpg,0,0,,用户30686,2,2024-05-31_01h10.17.918,face trait task chi,2021.2.3,Win32,75.18796992,,,,,,,
,,,,,,,,4.855555556,1.5454,space,0.3676,0,32,32,3,1,4,image/4.jpg,0,0,,用户30686,2,2024-05-31_01h10.17.918,face trait task chi,2021.2.3,Win32,75.18796992,,,,,,,
,,,,,,,,2.505555556,1.3667,space,0.4993,0,33,33,42,1,43,image/43.jpg,0,0,,用户30686,2,2024-05-31_01h10.17.918,face trait task chi,2021.2.3,Win32,75.18796992,,,,,,,
,,,,,,,,5.755555556,3.1269,space,0.3318,0,34,34,40,1,41,image/41.jpg,0,0,,用户30686,2,2024-05-31_01h10.17.918,face trait task chi,2021.2.3,Win32,75.18796992,,,,,,,
,,,,,,,,1.183333333,1.3398,space,0.7576,0,35,35,29,1,30,image/30.jpg,0,0,,用户30686,2,2024-05-31_01h10.17.918,face trait task chi,2021.2.3,Win32,75.18796992,,,,,,,
,,,,,,,,1.722222222,1.3211,space,0.3909,0,36,36,38,1,39,image/39.jpg,0,0,,用户30686,2,2024-05-31_01h10.17.918,face trait task chi,2021.2.3,Win32,75.18796992,,,,,,,
,,,,,,,,2.677777778,1.9317,space,0.4004,0,37,37,24,1,25,image/25.jpg,0,0,,用户30686,2,2024-05-31_01h10.17.918,face trait task chi,2021.2.3,Win32,75.18796992,,,,,,,
,,,,,,,,3.444444444,1.2862,space,0.4063,0,38,38,6,1,7,image/7.jpg,0,0,,用户30686,2,2024-05-31_01h10.17.918,face trait task chi,2021.2.3,Win32,75.18796992,,,,,,,
,,,,,,,,3.7,1.6036,space,0.8317,0,39,39,19,1,20,image/20.jpg,0,0,,用户30686,2,2024-05-31_01h10.17.918,face trait task chi,2021.2.3,Win32,75.18796992,,,,,,,
,,,,,,,,4.177777778,1.6488,space,0.4318,0,40,40,10,1,11,image/11.jpg,0,0,,用户30686,2,2024-05-31_01h10.17.918,face trait task chi,2021.2.3,Win32,75.18796992,,,,,,,
,,,,,,,,4.855555556,1.4915,space,0.4537,0,41,41,2,1,3,image/3.jpg,0,0,,用户30686,2,2024-05-31_01h10.17.918,face trait task chi,2021.2.3,Win32,75.18796992,,,,,,,
,,,,,,,,5.872222222,2.2647,space,0.3229,0,42,42,20,1,21,image/21.jpg,0,0,,用户30686,2,2024-05-31_01h10.17.918,face trait task chi,2021.2.3,Win32,75.18796992,,,,,,,
,,,,,,,,5.338888889,1.1711,space,0.4589,0,43,43,12,1,13,image/13.jpg,0,0,,用户30686,2,2024-05-31_01h10.17.918,face trait task chi,2021.2.3,Win32,75.18796992,,,,,,,
,,,,,,,,7,3.3843,space,1.5592,0,44,44,51,1,60,image/fill_img.png,1,7,请将滑块完全移动到<右边>，以示您在专心判断。,用户30686,2,2024-05-31_01h10.17.918,face trait task chi,2021.2.3,Win32,75.18796992,,,,,,,
,,,,,,,,6.588888889,1.3703,space,0.6779,0,45,45,34,1,35,image/35.jpg,0,0,,用户30686,2,2024-05-31_01h10.17.918,face trait task chi,2021.2.3,Win32,75.18796992,,,,,,,
,,,,,,,,3.572222222,2.0413,space,0.3924,0,46,46,26,1,27,image/27.jpg,0,0,,用户30686,2,2024-05-31_01h10.17.918,face trait task chi,2021.2.3,Win32,75.18796992,,,,,,,
,,,,,,,,2.988888889,1.4909,space,0.4957,0,47,47,23,1,24,image/24.jpg,0,0,,用户30686,2,2024-05-31_01h10.17.918,face trait task chi,2021.2.3,Win32,75.18796992,,,,,,,
,,,,,,,,6.238888889,2.7362,space,0.2806,0,48,48,32,1,33,image/33.jpg,0,0,,用户30686,2,2024-05-31_01h10.17.918,face trait task chi,2021.2.3,Win32,75.18796992,,,,,,,
,,,,,,,,2.211111111,1.6907,space,0.321,0,49,49,1,1,2,image/2.jpg,0,0,,用户30686,2,2024-05-31_01h10.17.918,face trait task chi,2021.2.3,Win32,75.18796992,,,,,,,
,,,,,,,,5.45,2.6641,space,0.3769,0,50,50,43,1,44,image/44.jpg,0,0,,用户30686,2,2024-05-31_01h10.17.918,face trait task chi,2021.2.3,Win32,75.18796992,,,,,,,
,,,,,,,,6.461111111,1.9281,space,1.0915,0,51,51,4,1,5,image/5.jpg,0,0,,用户30686,2,2024-05-31_01h10.17.918,face trait task chi,2021.2.3,Win32,75.18796992,,,,,,,
,,,,,,,,4.972222222,1.6532,space,0.4326,0,52,52,44,1,45,image/45.jpg,0,0,,用户30686,2,2024-05-31_01h10.17.918,face trait task chi,2021.2.3,Win32,75.18796992,,,,,,,
,,,,,,,,,,,,,,,,,,,,,,用户30686,2,2024-05-31_01h10.17.918,face trait task chi,2021.2.3,Win32,75.18796992,0,2,2,3,1,3,friendly.png
,,,,,critical,space,6.7104,6.694444444,2.157,space,0.7906,0,0,0,6,1,7,image/7.jpg,0,0,,用户30686,2,2024-05-31_01h10.17.918,face trait task chi,2021.2.3,Win32,75.18796992,,,,,,,
,,,,,,,,3.788888889,3.1755,space,1.0962,0,1,1,47,1,48,image/48.jpg,0,0,,用户30686,2,2024-05-31_01h10.17.918,face trait task chi,2021.2.3,Win32,75.18796992,,,,,,,
,,,,,,,,5.061111111,1.8367,space,0.4717,0,2,2,5,1,6,image/6.jpg,0,0,,用户30686,2,2024-05-31_01h10.17.918,face trait task chi,2021.2.3,Win32,75.18796992,,,,,,,
,,,,,,,,2.544444444,1.3911,space,0.7638,0,3,3,48,1,49,image/49.jpg,0,0,,用户30686,2,2024-05-31_01h10.17.918,face trait task chi,2021.2.3,Win32,75.18796992,,,,,,,
,,,,,,,,1.972222222,1.0763,space,0.5538,0,4,4,11,1,12,image/12.jpg,0,0,,用户30686,2,2024-05-31_01h10.17.918,face trait task chi,2021.2.3,Win32,75.18796992,,,,,,,
,,,,,,,,2.483333333,1.503,space,0.4566,0,5,5,44,1,45,image/45.jpg,0,0,,用户30686,2,2024-05-31_01h10.17.918,face trait task chi,2021.2.3,Win32,75.18796992,,,,,,,
,,,,,,,,1.7,1.4361,space,0.5553,0,6,6,2,1,3,image/3.jpg,0,0,,用户30686,2,2024-05-31_01h10.17.918,face trait task chi,2021.2.3,Win32,75.18796992,,,,,,,
,,,,,,,,3.955555556,2.7857,space,1.4433,0,7,7,27,1,28,image/28.jpg,0,0,,用户30686,2,2024-05-31_01h10.17.918,face trait task chi,2021.2.3,Win32,75.18796992,,,,,,,
,,,,,,,,3.038888889,1.78,space,0.7909,0,8,8,41,1,42,image/42.jpg,0,0,,用户30686,2,2024-05-31_01h10.17.918,face trait task chi,2021.2.3,Win32,75.18796992,,,,,,,
,,,,,,,,4.527777778,1.6334,space,0.5438,0,9,9,45,1,46,image/46.jpg,0,0,,用户30686,2,2024-05-31_01h10.17.918,face trait task chi,2021.2.3,Win32,75.18796992,,,,,,,
,,,,,,,,5.227777778,1.7614,space,0.8912,0,10,10,26,1,27,image/27.jpg,0,0,,用户30686,2,2024-05-31_01h10.17.918,face trait task chi,2021.2.3,Win32,75.18796992,,,,,,,
,,,,,,,,5.655555556,2.455,space,0.7919,0,11,11,17,1,18,image/18.jpg,0,0,,用户30686,2,2024-05-31_01h10.17.918,face trait task chi,2021.2.3,Win32,75.18796992,,,,,,,
,,,,,,,,4.666666667,1.8253,space,0.4689,0,12,12,31,1,32,image/32.jpg,0,0,,用户30686,2,2024-05-31_01h10.17.918,face trait task chi,2021.2.3,Win32,75.18796992,,,,,,,
,,,,,,,,6.138888889,1.8279,space,0.3967,0,13,13,1,1,2,image/2.jpg,0,0,,用户30686,2,2024-05-31_01h10.17.918,face trait task chi,2021.2.3,Win32,75.18796992,,,,,,,
,,,,,,,,6.627777778,1.1955,space,0.452,0,14,14,38,1,39,image/39.jpg,0,0,,用户30686,2,2024-05-31_01h10.17.918,face trait task chi,2021.2.3,Win32,75.18796992,,,,,,,
,,,,,,,,4.555555556,1.7582,space,0.4283,0,15,15,43,1,44,image/44.jpg,0,0,,用户30686,2,2024-05-31_01h10.17.918,face trait task chi,2021.2.3,Win32,75.18796992,,,,,,,
,,,,,,,,6.844444444,1.7394,space,0.6358,0,16,16,8,1,9,image/9.jpg,0,0,,用户30686,2,2024-05-31_01h10.17.918,face trait task chi,2021.2.3,Win32,75.18796992,,,,,,,
,,,,,,,,1.222222222,1.9883,space,0.7943,0,17,17,34,1,35,image/35.jpg,0,0,,用户30686,2,2024-05-31_01h10.17.918,face trait task chi,2021.2.3,Win32,75.18796992,,,,,,,
,,,,,,,,3.233333333,2.5344,space,0.3586,0,18,18,7,1,8,image/8.jpg,0,0,,用户30686,2,2024-05-31_01h10.17.918,face trait task chi,2021.2.3,Win32,75.18796992,,,,,,,
,,,,,,,,4.072222222,1.8647,space,0.4826,0,19,19,19,1,20,image/20.jpg,0,0,,用户30686,2,2024-05-31_01h10.17.918,face trait task chi,2021.2.3,Win32,75.18796992,,,,,,,
,,,,,,,,4.561111111,1.5082,space,0.5246,0,20,20,14,1,15,image/15.jpg,0,0,,用户30686,2,2024-05-31_01h10.17.918,face trait task chi,2021.2.3,Win32,75.18796992,,,,,,,
,,,,,,,,1.772222222,2.7231,space,0.4677,0,21,21,32,1,33,image/33.jpg,0,0,,用户30686,2,2024-05-31_01h10.17.918,face trait task chi,2021.2.3,Win32,75.18796992,,,,,,,
,,,,,,,,4.944444444,2.0856,space,0.5835,0,22,22,25,1,26,image/26.jpg,0,0,,用户30686,2,2024-05-31_01h10.17.918,face trait task chi,2021.2.3,Win32,75.18796992,,,,,,,
,,,,,,,,5.361111111,1.7233,space,0.4838,0,23,23,35,1,36,image/36.jpg,0,0,,用户30686,2,2024-05-31_01h10.17.918,face trait task chi,2021.2.3,Win32,75.18796992,,,,,,,
,,,,,,,,5.772222222,1.8146,space,0.6769,0,24,24,23,1,24,image/24.jpg,0,0,,用户30686,2,2024-05-31_01h10.17.918,face trait task chi,2021.2.3,Win32,75.18796992,,,,,,,
,,,,,,,,4.483333333,2.1173,space,0.419,0,25,25,18,1,19,image/19.jpg,0,0,,用户30686,2,2024-05-31_01h10.17.918,face trait task chi,2021.2.3,Win32,75.18796992,,,,,,,
,,,,,,,,7,3.0928,space,1.9113,0,26,26,52,1,56,image/fill_img.png,1,7,请将滑块完全移动到<右边>，以示您在专心判断。,用户30686,2,2024-05-31_01h10.17.918,face trait task chi,2021.2.3,Win32,75.18796992,,,,,,,
,,,,,,,,5.527777778,2.5592,space,0.5728,0,27,27,33,1,34,image/34.jpg,0,0,,用户30686,2,2024-05-31_01h10.17.918,face trait task chi,2021.2.3,Win32,75.18796992,,,,,,,
,,,,,,,,4.85,1.9252,space,0.4901,0,28,28,22,1,23,image/23.jpg,0,0,,用户30686,2,2024-05-31_01h10.17.918,face trait task chi,2021.2.3,Win32,75.18796992,,,,,,,
,,,,,,,,7,3.3168,space,2.0228,0,29,29,51,1,60,image/fill_img.png,1,7,请将滑块完全移动到<右边>，以示您在专心判断。,用户30686,2,2024-05-31_01h10.17.918,face trait task chi,2021.2.3,Win32,75.18796992,,,,,,,
,,,,,,,,6.438888889,2.4735,space,0.4045,0,30,30,0,1,1,image/1.jpg,0,0,,用户30686,2,2024-05-31_01h10.17.918,face trait task chi,2021.2.3,Win32,75.18796992,,,,,,,
,,,,,,,,6.116666667,1.2023,space,0.4137,0,31,31,16,1,17,image/17.jpg,0,0,,用户30686,2,2024-05-31_01h10.17.918,face trait task chi,2021.2.3,Win32,75.18796992,,,,,,,
,,,,,,,,6.644444444,1.3644,space,0.7616,0,32,32,30,1,31,image/31.jpg,0,0,,用户30686,2,2024-05-31_01h10.17.918,face trait task chi,2021.2.3,Win32,75.18796992,,,,,,,
,,,,,,,,3.511111111,2.1139,space,0.396,0,33,33,46,1,47,image/47.jpg,0,0,,用户30686,2,2024-05-31_01h10.17.918,face trait task chi,2021.2.3,Win32,75.18796992,,,,,,,
,,,,,,,,4.066666667,1.5245,space,0.564,0,34,34,10,1,11,image/11.jpg,0,0,,用户30686,2,2024-05-31_01h10.17.918,face trait task chi,2021.2.3,Win32,75.18796992,,,,,,,
,,,,,,,,4.961111111,1.3112,space,0.7079,0,35,35,9,1,10,image/10.jpg,0,0,,用户30686,2,2024-05-31_01h10.17.918,face trait task chi,2021.2.3,Win32,75.18796992,,,,,,,
,,,,,,,,4.45,1.9696,space,0.388,0,36,36,37,1,38,image/38.jpg,0,0,,用户30686,2,2024-05-31_01h10.17.918,face trait task chi,2021.2.3,Win32,75.18796992,,,,,,,
,,,,,,,,5.294444444,3.1165,space,0.3578,0,37,37,49,1,50,image/50.jpg,0,0,,用户30686,2,2024-05-31_01h10.17.918,face trait task chi,2021.2.3,Win32,75.18796992,,,,,,,
,,,,,,,,3.55,1.6361,space,0.4903,0,38,38,20,1,21,image/21.jpg,0,0,,用户30686,2,2024-05-31_01h10.17.918,face trait task chi,2021.2.3,Win32,75.18796992,,,,,,,
,,,,,,,,4.538888889,2.5238,space,1.1035,0,39,39,4,1,5,image/5.jpg,0,0,,用户30686,2,2024-05-31_01h10.17.918,face trait task chi,2021.2.3,Win32,75.18796992,,,,,,,
,,,,,,,,4.988888889,2.4122,space,0.3749,0,40,40,29,1,30,image/30.jpg,0,0,,用户30686,2,2024-05-31_01h10.17.918,face trait task chi,2021.2.3,Win32,75.18796992,,,,,,,
,,,,,,,,3.222222222,2.796,space,2.0148,0,41,41,24,1,25,image/25.jpg,0,0,,用户30686,2,2024-05-31_01h10.17.918,face trait task chi,2021.2.3,Win32,75.18796992,,,,,,,
,,,,,,,,2.216666667,1.5427,space,0.4273,0,42,42,36,1,37,image/37.jpg,0,0,,用户30686,2,2024-05-31_01h10.17.918,face trait task chi,2021.2.3,Win32,75.18796992,,,,,,,
,,,,,,,,5.111111111,2.4812,space,0.3002,0,43,43,40,1,41,image/41.jpg,0,0,,用户30686,2,2024-05-31_01h10.17.918,face trait task chi,2021.2.3,Win32,75.18796992,,,,,,,
,,,,,,,,5.816666667,1.2168,space,0.4216,0,44,44,15,1,16,image/16.jpg,0,0,,用户30686,2,2024-05-31_01h10.17.918,face trait task chi,2021.2.3,Win32,75.18796992,,,,,,,
,,,,,,,,6.172222222,1.7083,space,0.4164,0,45,45,12,1,13,image/13.jpg,0,0,,用户30686,2,2024-05-31_01h10.17.918,face trait task chi,2021.2.3,Win32,75.18796992,,,,,,,
,,,,,,,,5.444444444,1.4461,space,0.779,0,46,46,13,1,14,image/14.jpg,0,0,,用户30686,2,2024-05-31_01h10.17.918,face trait task chi,2021.2.3,Win32,75.18796992,,,,,,,
,,,,,,,,6.533333333,2.4622,space,0.4925,0,47,47,42,1,43,image/43.jpg,0,0,,用户30686,2,2024-05-31_01h10.17.918,face trait task chi,2021.2.3,Win32,75.18796992,,,,,,,
,,,,,,,,1,3.0819,space,1.9346,0,48,48,50,1,53,image/fill_img.png,1,1,请将滑块完全移动到<左边>，以示您在专心判断。,用户30686,2,2024-05-31_01h10.17.918,face trait task chi,2021.2.3,Win32,75.18796992,,,,,,,
,,,,,,,,4.077777778,1.7492,space,1.1738,0,49,49,28,1,29,image/29.jpg,0,0,,用户30686,2,2024-05-31_01h10.17.918,face trait task chi,2021.2.3,Win32,75.18796992,,,,,,,
,,,,,,,,4.744444444,1.4965,space,0.3965,0,50,50,3,1,4,image/4.jpg,0,0,,用户30686,2,2024-05-31_01h10.17.918,face trait task chi,2021.2.3,Win32,75.18796992,,,,,,,
,,,,,,,,6.5,2.7361,space,1.1245,0,51,51,21,1,22,image/22.jpg,0,0,,用户30686,2,2024-05-31_01h10.17.918,face trait task chi,2021.2.3,Win32,75.18796992,,,,,,,
,,,,,,,,6.861111111,1.6641,space,0.6374,0,52,52,39,1,40,image/40.jpg,0,0,,用户30686,2,2024-05-31_01h10.17.918,face trait task chi,2021.2.3,Win32,75.18796992,,,,,,,
,,,,,,,,,,,,,,,,,,,,,,用户30686,2,2024-05-31_01h10.17.918,face trait task chi,2021.2.3,Win32,75.18796992,0,3,3,0,1,0,critical.png