﻿chooserow,ParID,pre_instru_resp_2.keys,pre_instru_resp_2.rt,pre_instru_resp_3.keys,pre_instru_resp_3.rt,pre_instru_resp_9.keys,pre_instru_resp_9.rt,pre_instru_resp_8.keys,pre_instru_resp_8.rt,pre_instru_resp_4.keys,pre_instru_resp_4.rt,pre_instru_resp_5.keys,pre_instru_resp_5.rt,pre_instru_resp_6.keys,pre_instru_resp_6.rt,key_resp_3.keys,key_resp_3.rt,key_resp_4.keys,key_resp_4.rt,key_resp_5.keys,key_resp_5.rt,key_resp_6.keys,key_resp_6.rt,key_resp_7.keys,key_resp_7.rt,trials_2.thisRepN,trials_2.thisTrialN,trials_2.thisN,trials_2.thisIndex,trials_2.ran,participant,session,date,expName,psychopyVersion,OS,frameRate,pre_instru_resp.keys,pre_instru_resp.rt,clicked,judge_2.x,judge_2.y,judge_2.leftButton,judge_2.midButton,judge_2.rightButton,judge_2.clicked_name,trials.thisRepN,trials.thisTrialN,trials.thisN,trials.thisIndex,trials.ran,prac_answer,prac_dot_sti,dotlefttext,dotrighttext,prac_acc,judge.x,judge.y,judge.leftButton,judge.midButton,judge.rightButton,judge.clicked_name,clicked_guilt,slider_guilt.response,slider_guilt.rt,key_guilt.keys,share_slider.response,share_slider.rt,key_share.keys,slider_apology.response,slider_apology.rt,key_apology.keys,slider_hide.response,slider_hide.rt,slider_forgiveness.response,slider_forgiveness.rt,key_forgiveness.keys,slider_mad.response,slider_mad.rt,trialseq.thisRepN,trialseq.thisTrialN,trialseq.thisN,trialseq.thisIndex,trialseq.ran,type_trial,stipic,DV,picture,answer,number,key_apology.rt,key_forgiveness.rt,key_share.rt,key_guilt.rt,slider_friendly.response,slider_friendly.rt,slider_trustworthy.response,slider_trustworthy.rt,slider_competence.response,slider_competence.rt,slider_critical.response,slider_critical.rt,key_resp.keys,key_resp.rt
"[32,78,37,187,165,98,190,127,52,95,114,120,152,68,176,157,63,82,72,181,86,99,141,48,163,139,118,103,3,61,91,170,194,144,117,59,143,19,202,172,122,145]",这是一个小天才,space,21.3091,space,1.6248,space,28.8147,space,63.0775,space,30.0685,space,27.8203,space,1.387,3,1.6169,1,2.5488,3,6.3365,2,5.271,2,21.8583,0,0,0,0,1,这是一个小天才,1,2024-05-31_01h34.56.573,interaction task chi,2021.2.3,Win32,60.24096386,,,,,,,,,,,,,,,,,,,,,,,,,,,,,,,,,,,,,,,,,,,,,,,,,,,,,,,,,,,,,,,,,,,
,,,,,,,,,,,,,,,,,,,,,,,,,,,,,,,这是一个小天才,1,2024-05-31_01h34.56.573,interaction task chi,2021.2.3,Win32,60.24096386,space,0.9781,"[""RightButton_2""]",0.307291667,-0.342592593,1,0,0,RightButton_2,0,0,0,0,1,RightButton_2,11dot2.png,小于,大于,,,,,,,,,,,,,,,,,,,,,,,,,,,,,,,,,,,,,,,,,,,,,,,,,
,,,,,,,,,,,,,,,,,,,,,,,,,,,,,,,这是一个小天才,1,2024-05-31_01h34.56.573,interaction task chi,2021.2.3,Win32,60.24096386,,,"[""RightButton_2""]",0.305208365,-0.262963048,1,0,0,RightButton_2,0,1,1,1,1,LeftButton_2,11dot2.png,大于,小于,,,,,,,,,,,,,,,,,,,,,,,,,,,,,,,,,,,,,,,,,,,,,,,,,
,,,,,,,,,,,,,,,,,,,,,,,,,,,,,,,这是一个小天才,1,2024-05-31_01h34.56.573,interaction task chi,2021.2.3,Win32,60.24096386,,,"[""LeftButton_2""]",-0.263541619,-0.307407379,1,0,0,LeftButton_2,0,2,2,2,1,LeftButton_2,9dot1.png,小于,大于,,,,,,,,,,,,,,,,,,,,,,,,,,,,,,,,,,,,,,,,,,,,,,,,,
,,,,,,,,,,,,,,,,,,,,,,,,,,,,,,,这是一个小天才,1,2024-05-31_01h34.56.573,interaction task chi,2021.2.3,Win32,60.24096386,,,,,,,,,,,,,,,,,小于,大于,0.4,0.263541698,-0.514814871,1,0,0,RightButton,"[""RightButton""]",,,,,,,,,,,,,,,,,0,0,0,0,1,0,both_right.png,2,RandomDot29.png,No answer,20,,,,,,,,,,,,,,
,,,,,,,,,,,,,,,,,,,,,,,,,,,,,,,这是一个小天才,1,2024-05-31_01h34.56.573,interaction task chi,2021.2.3,Win32,60.24096386,,,,,,,,,,,,,,,,,小于,大于,,0.264583349,-0.496296353,1,0,0,RightButton,"[""RightButton""]",,,,,,,91,2.772,space,20,5.2057,,,,,,0,1,1,1,1,1,both_wrong.png,2,RandomDot19.png,No answer,19,1.5457,,,,,,,,,,,,,
,,,,,,,,,,,,,,,,,,,,,,,,,,,,,,,这是一个小天才,1,2024-05-31_01h34.56.573,interaction task chi,2021.2.3,Win32,60.24096386,,,,,,,,,,,,,,,,,大于,小于,,-0.268749952,-0.522222307,1,0,0,LeftButton,"[""LeftButton""]",,,,,,,,,,,,,,,,,0,2,2,2,1,0,both_right.png,3,RandomDot27.png,No answer,20,,,,,,,,,,,,,,
,,,,,,,,,,,,,,,,,,,,,,,,,,,,,,,这是一个小天才,1,2024-05-31_01h34.56.573,interaction task chi,2021.2.3,Win32,60.24096386,,,,,,,,,,,,,,,,,小于,大于,,-0.229166667,-0.531481566,1,0,0,LeftButton,"[""LeftButton""]",,,,,,,,,,,,69.25505372,3.3135,space,30.11363476,5.4357,0,3,3,3,1,3,only_sub_wrong.png,3,RandomDot18.png,No answer,21,,0.3222,,,,,,,,,,,,
,,,,,,,,,,,,,,,,,,,,,,,,,,,,,,,这是一个小天才,1,2024-05-31_01h34.56.573,interaction task chi,2021.2.3,Win32,60.24096386,,,,,,,,,,,,,,,,,小于,大于,,-0.262499968,-0.546296296,1,0,0,LeftButton,"[""LeftButton""]",,,,3.854166667,3.6371,space,,,,,,,,,,,0,4,4,4,1,3,only_sub_wrong.png,1,RandomDot6.png,No answer,21,,,0.1518,,,,,,,,,,,
,,,,,,,,,,,,,,,,,,,,,,,,,,,,,,,这是一个小天才,1,2024-05-31_01h34.56.573,interaction task chi,2021.2.3,Win32,60.24096386,,,,,,,,,,,,,,,,,大于,小于,,-0.294791619,-0.542592649,1,0,0,LeftButton,"[""LeftButton""]",11,5.249,space,,,,,,,,,,,,,,0,5,5,5,1,2,only_sub_right.png,0,RandomDot16.png,No answer,20,,,,1.1536,,,,,,,,,,
,,,,,,,,,,,,,,,,,,,,,,,,,,,,,,,这是一个小天才,1,2024-05-31_01h34.56.573,interaction task chi,2021.2.3,Win32,60.24096386,,,,,,,,,,,,,,,,,小于,大于,,-0.241666635,-0.498148176,1,0,0,LeftButton,"[""LeftButton""]",,,,,,,,,,,,66.09848806,5.1128,space,31.48148309,8.0261,0,6,6,6,1,3,only_sub_wrong.png,3,RandomDot7.png,No answer,19,,0.8988,,,,,,,,,,,,
,,,,,,,,,,,,,,,,,,,,,,,,,,,,,,,这是一个小天才,1,2024-05-31_01h34.56.573,interaction task chi,2021.2.3,Win32,60.24096386,,,,,,,,,,,,,,,,,小于,大于,,-0.287499984,-0.522222307,1,0,0,LeftButton,"[""LeftButton""]",,,,,,,76,4.3165,space,10,5.3123,,,,,,0,7,7,7,1,2,only_sub_right.png,2,RandomDot22.png,No answer,19,0.7768,,,,,,,,,,,,,
,,,,,,,,,,,,,,,,,,,,,,,,,,,,,,,这是一个小天才,1,2024-05-31_01h34.56.573,interaction task chi,2021.2.3,Win32,60.24096386,,,,,,,,,,,,,,,,,大于,小于,,-0.296875,-0.509259259,1,0,0,LeftButton,"[""LeftButton""]",20,7.6162,space,,,,,,,,,,,,,,0,8,8,8,1,1,both_wrong.png,0,RandomDot10.png,No answer,20,,,,0.23,,,,,,,,,,
,,,,,,,,,,,,,,,,,,,,,,,,,,,,,,,这是一个小天才,1,2024-05-31_01h34.56.573,interaction task chi,2021.2.3,Win32,60.24096386,,,,,,,,,,,,,,,,,小于,大于,,-0.258333286,-0.511111083,1,0,0,LeftButton,"[""LeftButton""]",,,,,,,,,,,,82.61784512,3.331,space,19.06565496,4.4823,0,9,9,9,1,1,both_wrong.png,3,RandomDot12.png,No answer,19,,1.2001,,,,,,,,,,,,
,,,,,,,,,,,,,,,,,,,,,,,,,,,,,,,这是一个小天才,1,2024-05-31_01h34.56.573,interaction task chi,2021.2.3,Win32,60.24096386,,,,,,,,,,,,,,,,,小于,大于,,0.300000032,-0.527777778,1,0,0,RightButton,"[""RightButton""]",,,,3.854166667,5.1281,space,,,,,,,,,,,0,10,10,10,1,2,only_sub_right.png,1,RandomDot15.png,No answer,19,,,1.5985,,,,,,,,,,,
,,,,,,,,,,,,,,,,,,,,,,,,,,,,,,,这是一个小天才,1,2024-05-31_01h34.56.573,interaction task chi,2021.2.3,Win32,60.24096386,,,,,,,,,,,,,,,,,大于,小于,,0.292708317,-0.479629658,1,0,0,RightButton,"[""RightButton""]",,,,,,,74,2.733,space,6,5.3755,,,,,,0,11,11,11,1,2,only_sub_right.png,2,RandomDot21.png,No answer,21,0.3373,,,,,,,,,,,,,
,,,,,,,,,,,,,,,,,,,,,,,,,,,,,,,这是一个小天才,1,2024-05-31_01h34.56.573,interaction task chi,2021.2.3,Win32,60.24096386,,,,,,,,,,,,,,,,,小于,大于,,0.340624968,-0.525925954,1,0,0,RightButton,"[""RightButton""]",40,3.0379,space,,,,,,,,,,,,,,0,12,12,12,1,3,only_sub_wrong.png,0,RandomDot9.png,No answer,19,,,,0.1582,,,,,,,,,,
,,,,,,,,,,,,,,,,,,,,,,,,,,,,,,,这是一个小天才,1,2024-05-31_01h34.56.573,interaction task chi,2021.2.3,Win32,60.24096386,,,,,,,,,,,,,,,,,小于,大于,,0.318749984,-0.453703704,1,0,0,RightButton,"[""RightButton""]",,,,4.171875318,2.9078,space,,,,,,,,,,,0,13,13,13,1,1,both_wrong.png,1,RandomDot8.png,No answer,21,,,0.6186,,,,,,,,,,,
,,,,,,,,,,,,,,,,,,,,,,,,,,,,,,,这是一个小天才,1,2024-05-31_01h34.56.573,interaction task chi,2021.2.3,Win32,60.24096386,,,,,,,,,,,,,,,,,小于,大于,,0.279166698,-0.479629658,1,0,0,RightButton,"[""RightButton""]",,,,,,,88,2.999,space,19,3.6935,,,,,,0,14,14,14,1,3,only_sub_wrong.png,2,RandomDot40.png,No answer,20,0.2976,,,,,,,,,,,,,
,,,,,,,,,,,,,,,,,,,,,,,,,,,,,,,这是一个小天才,1,2024-05-31_01h34.56.573,interaction task chi,2021.2.3,Win32,60.24096386,,,,,,,,,,,,,,,,,大于,小于,,-0.290625016,-0.520370342,1,0,0,LeftButton,"[""LeftButton""]",,,,4.213542144,2.3513,space,,,,,,,,,,,0,15,15,15,1,3,only_sub_wrong.png,1,RandomDot8.png,No answer,21,,,0.5828,,,,,,,,,,,
,,,,,,,,,,,,,,,,,,,,,,,,,,,,,,,这是一个小天才,1,2024-05-31_01h34.56.573,interaction task chi,2021.2.3,Win32,60.24096386,,,,,,,,,,,,,,,,,大于,小于,,-0.265625,-0.477777834,1,0,0,LeftButton,"[""LeftButton""]",,,,4.250000318,1.7159,space,,,,,,,,,,,0,16,16,16,1,1,both_wrong.png,1,RandomDot27.png,No answer,19,,,0.5183,,,,,,,,,,,
,,,,,,,,,,,,,,,,,,,,,,,,,,,,,,,这是一个小天才,1,2024-05-31_01h34.56.573,interaction task chi,2021.2.3,Win32,60.24096386,,,,,,,,,,,,,,,,,小于,大于,,0.286458333,-0.501851824,1,0,0,RightButton,"[""RightButton""]",,,,,,,89,2.405,space,8,3.4847,,,,,,0,17,17,17,1,1,both_wrong.png,2,RandomDot7.png,No answer,21,0.0867,,,,,,,,,,,,,
,,,,,,,,,,,,,,,,,,,,,,,,,,,,,,,这是一个小天才,1,2024-05-31_01h34.56.573,interaction task chi,2021.2.3,Win32,60.24096386,,,,,,,,,,,,,,,,,大于,小于,,-0.235416651,-0.494444529,1,0,0,LeftButton,"[""LeftButton""]",,,,,,,93,3.8304,space,21,6.7295,,,,,,0,18,18,18,1,1,both_wrong.png,2,RandomDot1.png,No answer,21,2.4217,,,,,,,,,,,,,
,,,,,,,,,,,,,,,,,,,,,,,,,,,,,,,这是一个小天才,1,2024-05-31_01h34.56.573,interaction task chi,2021.2.3,Win32,60.24096386,,,,,,,,,,,,,,,,,大于,小于,,0.293750048,-0.511111083,1,0,0,RightButton,"[""RightButton""]",,,,,,,,,,,,78.82996794,2.857,space,25.06313452,3.9077,0,19,19,19,1,3,only_sub_wrong.png,3,RandomDot3.png,No answer,19,,0.1257,,,,,,,,,,,,
,,,,,,,,,,,,,,,,,,,,,,,,,,,,,,,这是一个小天才,1,2024-05-31_01h34.56.573,interaction task chi,2021.2.3,Win32,60.24096386,,,,,,,,,,,,,,,,,大于,小于,,0.267708381,-0.522222307,1,0,0,RightButton,"[""RightButton""]",,,,,,,,,,,,80.09259099,1.6787,space,26.01010583,2.7776,0,20,20,20,1,1,both_wrong.png,3,RandomDot13.png,No answer,21,,0.636,,,,,,,,,,,,
,,,,,,,,,,,,,,,,,,,,,,,,,,,,,,,这是一个小天才,1,2024-05-31_01h34.56.573,interaction task chi,2021.2.3,Win32,60.24096386,,,,,,,,,,,,,,,,,大于,小于,,-0.25,-0.518518519,1,0,0,LeftButton,"[""LeftButton""]",32,2.3789,space,,,,,,,,,,,,,,0,21,21,21,1,2,only_sub_right.png,0,RandomDot21.png,No answer,19,,,,0.1384,,,,,,,,,,
,,,,,,,,,,,,,,,,,,,,,,,,,,,,,,,这是一个小天才,1,2024-05-31_01h34.56.573,interaction task chi,2021.2.3,Win32,60.24096386,,,,,,,,,,,,,,,,,小于,大于,,0.297916651,-0.527777778,1,0,0,RightButton,"[""RightButton""]",,,,,,,,,,,,87.66835338,1.8845,space,20.32828604,3.2768,0,22,22,22,1,2,only_sub_right.png,3,RandomDot7.png,No answer,20,,0.109,,,,,,,,,,,,
,,,,,,,,,,,,,,,,,,,,,,,,,,,,,,,这是一个小天才,1,2024-05-31_01h34.56.573,interaction task chi,2021.2.3,Win32,60.24096386,,,,,,,,,,,,,,,,,大于,小于,,0.292708317,-0.487037094,1,0,0,RightButton,"[""RightButton""]",38,2.6324,space,,,,,,,,,,,,,,0,23,23,23,1,1,both_wrong.png,0,RandomDot24.png,No answer,21,,,,0.0675,,,,,,,,,,
,,,,,,,,,,,,,,,,,,,,,,,,,,,,,,,这是一个小天才,1,2024-05-31_01h34.56.573,interaction task chi,2021.2.3,Win32,60.24096386,,,,,,,,,,,,,,,,,小于,大于,,0.296875,-0.472222222,1,0,0,RightButton,"[""RightButton""]",,,,4.364583492,2.1236,space,,,,,,,,,,,0,24,24,24,1,3,only_sub_wrong.png,1,RandomDot6.png,No answer,20,,,0.0841,,,,,,,,,,,
,,,,,,,,,,,,,,,,,,,,,,,,,,,,,,,这是一个小天才,1,2024-05-31_01h34.56.573,interaction task chi,2021.2.3,Win32,60.24096386,,,,,,,,,,,,,,,,,小于,大于,,0.325000048,-0.450000057,1,0,0,RightButton,"[""RightButton""]",,,,,,,,,,,,88.82576721,1.6836,space,12.22643338,2.7318,0,25,25,25,1,2,only_sub_right.png,3,RandomDot30.png,No answer,20,,0.626,,,,,,,,,,,,
,,,,,,,,,,,,,,,,,,,,,,,,,,,,,,,这是一个小天才,1,2024-05-31_01h34.56.573,interaction task chi,2021.2.3,Win32,60.24096386,,,,,,,,,,,,,,,,,小于,大于,,0.228125016,-0.5,1,0,0,RightButton,"[""RightButton""]",,,,4.286458492,2.0713,space,,,,,,,,,,,0,26,26,26,1,2,only_sub_right.png,1,RandomDot34.png,No answer,19,,,0.6941,,,,,,,,,,,
,,,,,,,,,,,,,,,,,,,,,,,,,,,,,,,这是一个小天才,1,2024-05-31_01h34.56.573,interaction task chi,2021.2.3,Win32,60.24096386,,,,,,,,,,,,,,,,,小于,大于,,0.284375032,-0.475926011,1,0,0,RightButton,"[""RightButton""]",19,2.4845,space,,,,,,,,,,,,,,0,27,27,27,1,2,only_sub_right.png,0,RandomDot21.png,No answer,21,,,,0.6021,,,,,,,,,,
,,,,,,,,,,,,,,,,,,,,,,,,,,,,,,,这是一个小天才,1,2024-05-31_01h34.56.573,interaction task chi,2021.2.3,Win32,60.24096386,,,,,,,,,,,,,,,,,大于,小于,,-0.269791683,-0.487037094,1,0,0,LeftButton,"[""LeftButton""]",,,,,,,,,,,,,,,,,0,28,28,28,1,0,both_right.png,0,RandomDot22.png,No answer,21,,,,,,,,,,,,,,
,,,,,,,,,,,,,,,,,,,,,,,,,,,,,,,这是一个小天才,1,2024-05-31_01h34.56.573,interaction task chi,2021.2.3,Win32,60.24096386,,,,,,,,,,,,,,,,,大于,小于,,-0.269791683,-0.501851824,1,0,0,LeftButton,"[""LeftButton""]",,,,4.432291985,3.3092,space,,,,,,,,,,,0,29,29,29,1,1,both_wrong.png,1,RandomDot23.png,No answer,21,,,2.7725,,,,,,,,,,,
,,,,,,,,,,,,,,,,,,,,,,,,,,,,,,,这是一个小天才,1,2024-05-31_01h34.56.573,interaction task chi,2021.2.3,Win32,60.24096386,,,,,,,,,,,,,,,,,小于,大于,,0.278125048,-0.492592564,1,0,0,RightButton,"[""RightButton""]",,,,,,,,,,,,85.77441077,4.5487,space,10.54292929,5.6594,0,30,30,30,1,1,both_wrong.png,3,RandomDot23.png,No answer,20,,3.3622,,,,,,,,,,,,
,,,,,,,,,,,,,,,,,,,,,,,,,,,,,,,这是一个小天才,1,2024-05-31_01h34.56.573,interaction task chi,2021.2.3,Win32,60.24096386,,,,,,,,,,,,,,,,,大于,小于,,-0.221874952,-0.535185213,1,0,0,LeftButton,"[""LeftButton""]",,,,,,,93,1.244,space,23,3.5255,,,,,,0,31,31,31,1,3,only_sub_wrong.png,2,RandomDot39.png,No answer,20,0.4234,,,,,,,,,,,,,
,,,,,,,,,,,,,,,,,,,,,,,,,,,,,,,这是一个小天才,1,2024-05-31_01h34.56.573,interaction task chi,2021.2.3,Win32,60.24096386,,,,,,,,,,,,,,,,,大于,小于,,-0.260416667,-0.488888917,1,0,0,LeftButton,"[""LeftButton""]",,,,,,,,,,,,,,,,,0,32,32,32,1,4,both_right.png,10,RandomDot41.png,LeftButton,5,,,,,,,,,,,,,,
,,,,,,,,,,,,,,,,,,,,,,,,,,,,,,,这是一个小天才,1,2024-05-31_01h34.56.573,interaction task chi,2021.2.3,Win32,60.24096386,,,,,,,,,,,,,,,,,大于,小于,,-0.275000016,-0.537037037,1,0,0,LeftButton,"[""LeftButton""]",41,2.6305,space,,,,,,,,,,,,,,0,33,33,33,1,3,only_sub_wrong.png,0,RandomDot33.png,No answer,19,,,,0.5309,,,,,,,,,,
,,,,,,,,,,,,,,,,,,,,,,,,,,,,,,,这是一个小天才,1,2024-05-31_01h34.56.573,interaction task chi,2021.2.3,Win32,60.24096386,,,,,,,,,,,,,,,,,小于,大于,,0.239583333,-0.464814787,1,0,0,RightButton,"[""RightButton""]",,,,4.427083333,1.8613,space,,,,,,,,,,,0,34,34,34,1,2,only_sub_right.png,1,RandomDot27.png,No answer,21,,,0.6331,,,,,,,,,,,
,,,,,,,,,,,,,,,,,,,,,,,,,,,,,,,这是一个小天才,1,2024-05-31_01h34.56.573,interaction task chi,2021.2.3,Win32,60.24096386,,,,,,,,,,,,,,,,,小于,大于,,0.292708317,-0.538888861,1,0,0,RightButton,"[""RightButton""]",43,2.1144,space,,,,,,,,,,,,,,0,35,35,35,1,1,both_wrong.png,0,RandomDot14.png,No answer,21,,,,0.4499,,,,,,,,,,
,,,,,,,,,,,,,,,,,,,,,,,,,,,,,,,这是一个小天才,1,2024-05-31_01h34.56.573,interaction task chi,2021.2.3,Win32,60.24096386,,,,,,,,,,,,,,,,,小于,大于,,0.345833302,-0.503703788,1,0,0,RightButton,"[""RightButton""]",,,,,,,,,,,,90.40405004,1.541,space,10.12205628,2.6415,0,36,36,36,1,2,only_sub_right.png,3,RandomDot31.png,No answer,19,,0.4397,,,,,,,,,,,,
,,,,,,,,,,,,,,,,,,,,,,,,,,,,,,,这是一个小天才,1,2024-05-31_01h34.56.573,interaction task chi,2021.2.3,Win32,60.24096386,,,,,,,,,,,,,,,,,小于,大于,,0.307291667,-0.462962963,1,0,0,RightButton,"[""RightButton""]",,,,,,,,,,,,,,,,,0,37,37,37,1,0,both_right.png,1,RandomDot36.png,No answer,19,,,,,,,,,,,,,,
,,,,,,,,,,,,,,,,,,,,,,,,,,,,,,,这是一个小天才,1,2024-05-31_01h34.56.573,interaction task chi,2021.2.3,Win32,60.24096386,,,,,,,,,,,,,,,,,小于,大于,,-0.273958286,-0.518518519,1,0,0,LeftButton,"[""LeftButton""]",,,,,,,,,,,,,,,,,0,38,38,38,1,5,both_right.png,10,RandomDot42.png,LeftButton,21,,,,,,,,,,,,,,
,,,,,,,,,,,,,,,,,,,,,,,,,,,,,,,这是一个小天才,1,2024-05-31_01h34.56.573,interaction task chi,2021.2.3,Win32,60.24096386,,,,,,,,,,,,,,,,,大于,小于,,-0.271874984,-0.512963048,1,0,0,LeftButton,"[""LeftButton""]",,,,,,,93,1.8067,space,11,3.8388,,,,,,0,39,39,39,1,3,only_sub_wrong.png,2,RandomDot38.png,No answer,21,0.6001,,,,,,,,,,,,,
,,,,,,,,,,,,,,,,,,,,,,,,,,,,,,,这是一个小天才,1,2024-05-31_01h34.56.573,interaction task chi,2021.2.3,Win32,60.24096386,,,,,,,,,,,,,,,,,大于,小于,,-0.247916619,-0.512963048,1,0,0,LeftButton,"[""LeftButton""]",,,,,,,85,3.2454,space,10,4.4297,,,,,,0,40,40,40,1,2,only_sub_right.png,2,RandomDot33.png,No answer,20,0.5173,,,,,,,,,,,,,
,,,,,,,,,,,,,,,,,,,,,,,,,,,,,,,这是一个小天才,1,2024-05-31_01h34.56.573,interaction task chi,2021.2.3,Win32,60.24096386,,,,,,,,,,,,,,,,,大于,小于,,0.264583349,-0.48518527,1,0,0,RightButton,"[""RightButton""]",47,2.3139,space,,,,,,,,,,,,,,0,41,41,41,1,3,only_sub_wrong.png,0,RandomDot15.png,No answer,20,,,,0.7623,,,,,,,,,,
,,,,,,,,,,,,,,,,,,,,,,,,,,,,,,,这是一个小天才,1,2024-05-31_01h34.56.573,interaction task chi,2021.2.3,Win32,60.24096386,,,,,,,,,,,,,,,,,,,,,,,,,,,,,,,,,,,,,,,,,,,,,,,,,,,,,,,,,,6.1875,5.239,5.800000191,10.8659,5.71875,12.4585,1.181250095,9.4657,space,12.8826