﻿chooserow,ParID,pre_instru_resp_2.keys,pre_instru_resp_2.rt,pre_instru_resp_3.keys,pre_instru_resp_3.rt,pre_instru_resp_9.keys,pre_instru_resp_9.rt,pre_instru_resp_8.keys,pre_instru_resp_8.rt,pre_instru_resp_4.keys,pre_instru_resp_4.rt,pre_instru_resp_5.keys,pre_instru_resp_5.rt,pre_instru_resp_6.keys,pre_instru_resp_6.rt,key_resp_3.keys,key_resp_3.rt,key_resp_4.keys,key_resp_4.rt,key_resp_5.keys,key_resp_5.rt,key_resp_6.keys,key_resp_6.rt,key_resp_7.keys,key_resp_7.rt,trials_2.thisRepN,trials_2.thisTrialN,trials_2.thisN,trials_2.thisIndex,trials_2.ran,participant,session,date,expName,psychopyVersion,OS,frameRate,pre_instru_resp.keys,pre_instru_resp.rt,clicked,judge_2.x,judge_2.y,judge_2.leftButton,judge_2.midButton,judge_2.rightButton,judge_2.clicked_name,trials.thisRepN,trials.thisTrialN,trials.thisN,trials.thisIndex,trials.ran,prac_answer,prac_dot_sti,dotlefttext,dotrighttext,prac_acc,judge.x,judge.y,judge.leftButton,judge.midButton,judge.rightButton,judge.clicked_name,clicked_guilt,slider_guilt.response,slider_guilt.rt,key_guilt.keys,share_slider.response,share_slider.rt,key_share.keys,slider_apology.response,slider_apology.rt,key_apology.keys,slider_hide.response,slider_hide.rt,slider_forgiveness.response,slider_forgiveness.rt,key_forgiveness.keys,key_forgiveness.rt,slider_mad.response,slider_mad.rt,trialseq.thisRepN,trialseq.thisTrialN,trialseq.thisN,trialseq.thisIndex,trialseq.ran,type_trial,stipic,DV,picture,answer,number,key_guilt.rt,key_apology.rt,key_share.rt,slider_friendly.response,slider_friendly.rt,slider_trustworthy.response,slider_trustworthy.rt,slider_competence.response,slider_competence.rt,slider_critical.response,slider_critical.rt,key_resp.keys,key_resp.rt
"[90,96,170,169,153,158,17,180,144,78,159,102,93,46,104,89,196,131,0,168,128,48,76,109,133,187,200,114,119,52,55,32,138,64,60,148,80,65,157,191,141,130]",我努力赚钱,space,1.0828,space,0.7646,space,0.559,space,0.368,space,0.1884,space,0.8962,space,0.831,3,1.5971,1,1.6632,3,1.773,1,1.7895,2,0.8092,0,0,0,0,1,我努力赚钱,1,2024-05-31_01h27.06.722,interaction task chi,2021.2.3,Win32,120.105693,,,,,,,,,,,,,,,,,,,,,,,,,,,,,,,,,,,,,,,,,,,,,,,,,,,,,,,,,,,,,,,,,,,
,,,,space,0.0675,space,0.4356,space,0.2877,space,0.5547,space,0.7855,space,0.4838,3,1.4769,1,1.2574,3,1.668,2,1.0648,2,8.8542,1,0,1,0,1,我努力赚钱,1,2024-05-31_01h27.06.722,interaction task chi,2021.2.3,Win32,120.105693,,,,,,,,,,,,,,,,,,,,,,,,,,,,,,,,,,,,,,,,,,,,,,,,,,,,,,,,,,,,,,,,,,,
,,,,,,,,,,,,,,,,,,,,,,,,,,,,,,,我努力赚钱,1,2024-05-31_01h27.06.722,interaction task chi,2021.2.3,Win32,120.105693,space,0.8084,"[""LeftButton_2""]",-0.30560435,-0.303342782,1,0,0,LeftButton_2,0,0,0,0,1,RightButton_2,11dot1.png,小于,大于,,,,,,,,,,,,,,,,,,,,,,,,,,,,,,,,,,,,,,,,,,,,,,,,,
,,,,,,,,,,,,,,,,,,,,,,,,,,,,,,,我努力赚钱,1,2024-05-31_01h27.06.722,interaction task chi,2021.2.3,Win32,120.105693,,,"[""LeftButton_2""]",-0.258738504,-0.337082238,1,0,0,LeftButton_2,0,1,1,1,1,LeftButton_2,11dot2.png,大于,小于,,,,,,,,,,,,,,,,,,,,,,,,,,,,,,,,,,,,,,,,,,,,,,,,,
,,,,,,,,,,,,,,,,,,,,,,,,,,,,,,,我努力赚钱,1,2024-05-31_01h27.06.722,interaction task chi,2021.2.3,Win32,120.105693,,,"[""RightButton_2""]",0.275532218,-0.33583259,1,0,0,RightButton_2,0,2,2,2,1,RightButton_2,11dot1.png,小于,大于,,,,,,,,,,,,,,,,,,,,,,,,,,,,,,,,,,,,,,,,,,,,,,,,,
,,,,,,,,,,,,,,,,,,,,,,,,,,,,,,,我努力赚钱,1,2024-05-31_01h27.06.722,interaction task chi,2021.2.3,Win32,120.105693,,,,,,,,,,,,,,,,,小于,大于,0.4,-0.344659199,-0.547016634,1,0,0,LeftButton,"[""LeftButton""]",,,,,,,,,,,,67.24760682,2.0805,space,1.0757,79.09773162,2.795,0,0,0,0,1,1,both_wrong.png,3,RandomDot29.png,No answer,19,,,,,,,,,,,,,
,,,,,,,,,,,,,,,,,,,,,,,,,,,,,,,我努力赚钱,1,2024-05-31_01h27.06.722,interaction task chi,2021.2.3,Win32,120.105693,,,,,,,,,,,,,,,,,大于,小于,,0.300381854,-0.547540984,1,0,0,RightButton,"[""RightButton""]",32,9.3998,space,,,,,,,,,,,,,,,0,1,1,1,1,2,only_sub_right.png,0,RandomDot26.png,No answer,19,3.9168,,,,,,,,,,,,
,,,,,,,,,,,,,,,,,,,,,,,,,,,,,,,我努力赚钱,1,2024-05-31_01h27.06.722,interaction task chi,2021.2.3,Win32,120.105693,,,,,,,,,,,,,,,,,大于,小于,,-0.24291742,-0.524225954,1,0,0,LeftButton,"[""LeftButton""]",,,,,,,69,3.7481,space,67,2.9404,,,,,,,0,2,2,2,1,3,only_sub_wrong.png,2,RandomDot39.png,No answer,20,,1.7106,,,,,,,,,,,
,,,,,,,,,,,,,,,,,,,,,,,,,,,,,,,我努力赚钱,1,2024-05-31_01h27.06.722,interaction task chi,2021.2.3,Win32,120.105693,,,,,,,,,,,,,,,,,大于,小于,,0.244122966,-0.479052868,1,0,0,RightButton,"[""RightButton""]",,,,,,,49,0.9763,space,46,1.7998,,,,,,,0,3,3,3,1,3,only_sub_wrong.png,2,RandomDot1.png,No answer,20,,0.6191,,,,,,,,,,,
,,,,,,,,,,,,,,,,,,,,,,,,,,,,,,,我努力赚钱,1,2024-05-31_01h27.06.722,interaction task chi,2021.2.3,Win32,120.105693,,,,,,,,,,,,,,,,,小于,大于,,-0.234076704,-0.516939891,1,0,0,LeftButton,"[""LeftButton""]",85,2.0204,space,,,,,,,,,,,,,,,0,4,4,4,1,3,only_sub_wrong.png,0,RandomDot25.png,No answer,20,1.0444,,,,,,,,,,,,
,,,,,,,,,,,,,,,,,,,,,,,,,,,,,,,我努力赚钱,1,2024-05-31_01h27.06.722,interaction task chi,2021.2.3,Win32,120.105693,,,,,,,,,,,,,,,,,大于,小于,,0.306007684,-0.538797814,1,0,0,RightButton,"[""RightButton""]",,,,3.996584712,3.3347,space,,,,,,,,,,,,0,5,5,5,1,3,only_sub_wrong.png,1,RandomDot1.png,No answer,19,,,1.0103,,,,,,,,,,
,,,,,,,,,,,,,,,,,,,,,,,,,,,,,,,我努力赚钱,1,2024-05-31_01h27.06.722,interaction task chi,2021.2.3,Win32,120.105693,,,,,,,,,,,,,,,,,大于,小于,,-0.287924428,-0.52568306,1,0,0,LeftButton,"[""LeftButton""]",,,,,,,,,,,,,,,,,,0,6,6,6,1,0,both_right.png,1,RandomDot7.png,No answer,21,,,,,,,,,,,,,
,,,,,,,,,,,,,,,,,,,,,,,,,,,,,,,我努力赚钱,1,2024-05-31_01h27.06.722,interaction task chi,2021.2.3,Win32,120.105693,,,,,,,,,,,,,,,,,大于,小于,,-0.320072333,-0.506739615,1,0,0,LeftButton,"[""LeftButton""]",,,,,,,,,,,,26.42150403,2.3904,space,0.3524,82.83132607,3.758,0,7,7,7,1,3,only_sub_wrong.png,3,RandomDot20.png,No answer,19,,,,,,,,,,,,,
,,,,,,,,,,,,,,,,,,,,,,,,,,,,,,,我努力赚钱,1,2024-05-31_01h27.06.722,interaction task chi,2021.2.3,Win32,120.105693,,,,,,,,,,,,,,,,,大于,小于,,-0.26702833,-0.541712293,1,0,0,LeftButton,"[""LeftButton""]",85,3.1563,space,,,,,,,,,,,,,,,0,8,8,8,1,3,only_sub_wrong.png,0,RandomDot33.png,No answer,19,2.895,,,,,,,,,,,,
,,,,,,,,,,,,,,,,,,,,,,,,,,,,,,,我努力赚钱,1,2024-05-31_01h27.06.722,interaction task chi,2021.2.3,Win32,120.105693,,,,,,,,,,,,,,,,,小于,大于,,0.3148484,-0.51839713,1,0,0,RightButton,"[""RightButton""]",,,,,,,77,10.6851,space,57,12.0873,,,,,,,0,9,9,9,1,1,both_wrong.png,2,RandomDot19.png,No answer,19,,2.5764,,,,,,,,,,,
,,,,,,,,,,,,,,,,,,,,,,,,,,,,,,,我努力赚钱,1,2024-05-31_01h27.06.722,interaction task chi,2021.2.3,Win32,120.105693,,,,,,,,,,,,,,,,,大于,小于,,-0.265420887,-0.532969124,1,0,0,LeftButton,"[""LeftButton""]",,,,2.035958156,2.4131,space,,,,,,,,,,,,0,10,10,10,1,3,only_sub_wrong.png,1,RandomDot11.png,No answer,20,,,27.3101,,,,,,,,,,
,,,,,,,,,,,,,,,,,,,,,,,,,,,,,,,我努力赚钱,1,2024-05-31_01h27.06.722,interaction task chi,2021.2.3,Win32,120.105693,,,,,,,,,,,,,,,,,小于,大于,,-0.27265416,-0.497996446,1,0,0,LeftButton,"[""LeftButton""]",21,2.6319,space,,,,,,,,,,,,,,,0,11,11,11,1,2,only_sub_right.png,0,RandomDot16.png,No answer,21,0.9695,,,,,,,,,,,,
,,,,,,,,,,,,,,,,,,,,,,,,,,,,,,,我努力赚钱,1,2024-05-31_01h27.06.722,interaction task chi,2021.2.3,Win32,120.105693,,,,,,,,,,,,,,,,,小于,大于,,0.252160034,-0.540255054,1,0,0,RightButton,"[""RightButton""]",,,,,,,,,,,,33.64521218,7.5754,space,0.5669,32.42773411,8.2204,0,12,12,12,1,1,both_wrong.png,3,RandomDot12.png,No answer,21,,,,,,,,,,,,,
,,,,,,,,,,,,,,,,,,,,,,,,,,,,,,,我努力赚钱,1,2024-05-31_01h27.06.722,interaction task chi,2021.2.3,Win32,120.105693,,,,,,,,,,,,,,,,,小于,大于,,0.358248039,-0.538797814,1,0,0,RightButton,"[""RightButton""]",,,,,,,,,,,,,,,,,,0,13,13,13,1,0,both_right.png,3,RandomDot18.png,No answer,20,,,,,,,,,,,,,
,,,,,,,,,,,,,,,,,,,,,,,,,,,,,,,我努力赚钱,1,2024-05-31_01h27.06.722,interaction task chi,2021.2.3,Win32,120.105693,,,,,,,,,,,,,,,,,小于,大于,,0.355033153,-0.524225954,1,0,0,RightButton,"[""RightButton""]",29,25.474,space,,,,,,,,,,,,,,,0,14,14,14,1,2,only_sub_right.png,0,RandomDot29.png,No answer,20,2.0269,,,,,,,,,,,,
,,,,,,,,,,,,,,,,,,,,,,,,,,,,,,,我努力赚钱,1,2024-05-31_01h27.06.722,interaction task chi,2021.2.3,Win32,120.105693,,,,,,,,,,,,,,,,,大于,小于,,-0.273457882,-0.522768715,1,0,0,LeftButton,"[""LeftButton""]",,,,,,,,,,,,24.79820242,4.2699,space,0.2698,49.47242705,3.5353,0,15,15,15,1,1,both_wrong.png,3,RandomDot6.png,No answer,21,,,,,,,,,,,,,
,,,,,,,,,,,,,,,,,,,,,,,,,,,,,,,我努力赚钱,1,2024-05-31_01h27.06.722,interaction task chi,2021.2.3,Win32,120.105693,,,,,,,,,,,,,,,,,小于,大于,,0.281896774,-0.508196721,1,0,0,RightButton,"[""RightButton""]",,,,,,,,,,,,,,,,,,0,16,16,16,1,4,both_right.png,10,RandomDot41.png,RightButton,5,,,,,,,,,,,,,
,,,,,,,,,,,,,,,,,,,,,,,,,,,,,,,我努力赚钱,1,2024-05-31_01h27.06.722,interaction task chi,2021.2.3,Win32,120.105693,,,,,,,,,,,,,,,,,小于,大于,,-0.246132159,-0.490710383,1,0,0,LeftButton,"[""LeftButton""]",,,,,,,72,5.4927,space,56,4.1758,,,,,,,0,17,17,17,1,2,only_sub_right.png,2,RandomDot5.png,No answer,21,,1.2174,,,,,,,,,,,
,,,,,,,,,,,,,,,,,,,,,,,,,,,,,,,我努力赚钱,1,2024-05-31_01h27.06.722,interaction task chi,2021.2.3,Win32,120.105693,,,,,,,,,,,,,,,,,大于,小于,,0.269841319,-0.537340708,1,0,0,RightButton,"[""RightButton""]",,,,,,,,,,,,,,,,,,0,18,18,18,1,0,both_right.png,0,RandomDot34.png,No answer,19,,,,,,,,,,,,,
,,,,,,,,,,,,,,,,,,,,,,,,,,,,,,,我努力赚钱,1,2024-05-31_01h27.06.722,interaction task chi,2021.2.3,Win32,120.105693,,,,,,,,,,,,,,,,,大于,小于,,0.368696051,-0.547540984,1,0,0,RightButton,"[""RightButton""]",,,,,,,86,1.7343,space,53,2.9997,,,,,,,0,19,19,19,1,3,only_sub_wrong.png,2,RandomDot13.png,No answer,21,,0.5252,,,,,,,,,,,
,,,,,,,,,,,,,,,,,,,,,,,,,,,,,,,我努力赚钱,1,2024-05-31_01h27.06.722,interaction task chi,2021.2.3,Win32,120.105693,,,,,,,,,,,,,,,,,小于,大于,,-0.306409435,-0.505282376,1,0,0,LeftButton,"[""LeftButton""]",,,,,,,55,10.1915,space,60,9.6389,,,,,,,0,20,20,20,1,2,only_sub_right.png,2,RandomDot22.png,No answer,20,,0.5772,,,,,,,,,,,
,,,,,,,,,,,,,,,,,,,,,,,,,,,,,,,我努力赚钱,1,2024-05-31_01h27.06.722,interaction task chi,2021.2.3,Win32,120.105693,,,,,,,,,,,,,,,,,大于,小于,,-0.230058244,-0.52568306,1,0,0,LeftButton,"[""LeftButton""]",16,1.0455,space,,,,,,,,,,,,,,,0,21,21,21,1,1,both_wrong.png,0,RandomDot24.png,No answer,21,0.779,,,,,,,,,,,,
,,,,,,,,,,,,,,,,,,,,,,,,,,,,,,,我努力赚钱,1,2024-05-31_01h27.06.722,interaction task chi,2021.2.3,Win32,120.105693,,,,,,,,,,,,,,,,,大于,小于,,-0.256580245,-0.514025545,1,0,0,LeftButton,"[""LeftButton""]",,,,,,,26,2.2604,space,19,1.4789,,,,,,,0,22,22,22,1,1,both_wrong.png,2,RandomDot9.png,No answer,21,,1.6113,,,,,,,,,,,
,,,,,,,,,,,,,,,,,,,,,,,,,,,,,,,我努力赚钱,1,2024-05-31_01h27.06.722,interaction task chi,2021.2.3,Win32,120.105693,,,,,,,,,,,,,,,,,大于,小于,,0.297166968,-0.481967213,1,0,0,RightButton,"[""RightButton""]",,,,2.875652656,8.3706,space,,,,,,,,,,,,0,23,23,23,1,2,only_sub_right.png,1,RandomDot3.png,No answer,19,,,0.5189,,,,,,,,,,
,,,,,,,,,,,,,,,,,,,,,,,,,,,,,,,我努力赚钱,1,2024-05-31_01h27.06.722,interaction task chi,2021.2.3,Win32,120.105693,,,,,,,,,,,,,,,,,大于,小于,,-0.299176162,-0.514025545,1,0,0,LeftButton,"[""LeftButton""]",,,,,,,,,,,,63.67633287,6.7606,space,1.3819,55.88447324,5.0983,0,24,24,24,1,2,only_sub_right.png,3,RandomDot36.png,No answer,20,,,,,,,,,,,,,
,,,,,,,,,,,,,,,,,,,,,,,,,,,,,,,我努力赚钱,1,2024-05-31_01h27.06.722,interaction task chi,2021.2.3,Win32,120.105693,,,,,,,,,,,,,,,,,小于,大于,,-0.319268611,-0.502368031,1,0,0,LeftButton,"[""LeftButton""]",,,,,,,,,,,,14.57138666,1.0727,space,0.4865,47.68679007,1.6728,0,25,25,25,1,3,only_sub_wrong.png,3,RandomDot18.png,No answer,21,,,,,,,,,,,,,
,,,,,,,,,,,,,,,,,,,,,,,,,,,,,,,我努力赚钱,1,2024-05-31_01h27.06.722,interaction task chi,2021.2.3,Win32,120.105693,,,,,,,,,,,,,,,,,大于,小于,,0.274663501,-0.528597539,1,0,0,RightButton,"[""RightButton""]",,,,,,,,,,,,,,,,,,0,26,26,26,1,5,both_right.png,10,RandomDot42.png,RightButton,20,,,,,,,,,,,,,
,,,,,,,,,,,,,,,,,,,,,,,,,,,,,,,我努力赚钱,1,2024-05-31_01h27.06.722,interaction task chi,2021.2.3,Win32,120.105693,,,,,,,,,,,,,,,,,小于,大于,,-0.299979883,-0.496539207,1,0,0,LeftButton,"[""LeftButton""]",,,,1.959622158,6.5044,space,,,,,,,,,,,,0,27,27,27,1,2,only_sub_right.png,1,RandomDot15.png,No answer,19,,,1.2654,,,,,,,,,,
,,,,,,,,,,,,,,,,,,,,,,,,,,,,,,,我努力赚钱,1,2024-05-31_01h27.06.722,interaction task chi,2021.2.3,Win32,120.105693,,,,,,,,,,,,,,,,,小于,大于,,0.25376733,-0.502368031,1,0,0,RightButton,"[""RightButton""]",,,,2.996182984,1.7938,space,,,,,,,,,,,,0,28,28,28,1,2,only_sub_right.png,1,RandomDot38.png,No answer,19,,,0.4913,,,,,,,,,,
,,,,,,,,,,,,,,,,,,,,,,,,,,,,,,,我努力赚钱,1,2024-05-31_01h27.06.722,interaction task chi,2021.2.3,Win32,120.105693,,,,,,,,,,,,,,,,,大于,小于,,0.261000603,-0.543169399,1,0,0,RightButton,"[""RightButton""]",48,2.8898,space,,,,,,,,,,,,,,,0,29,29,29,1,1,both_wrong.png,0,RandomDot10.png,No answer,20,2.2044,,,,,,,,,,,,
,,,,,,,,,,,,,,,,,,,,,,,,,,,,,,,我努力赚钱,1,2024-05-31_01h27.06.722,interaction task chi,2021.2.3,Win32,120.105693,,,,,,,,,,,,,,,,,小于,大于,,-0.29274661,-0.5111112,1,0,0,LeftButton,"[""LeftButton""]",49,4.4386,space,,,,,,,,,,,,,,,0,30,30,30,1,1,both_wrong.png,0,RandomDot28.png,No answer,19,2.1917,,,,,,,,,,,,
,,,,,,,,,,,,,,,,,,,,,,,,,,,,,,,我努力赚钱,1,2024-05-31_01h27.06.722,interaction task chi,2021.2.3,Win32,120.105693,,,,,,,,,,,,,,,,,小于,大于,,-0.235684147,-0.512568306,1,0,0,LeftButton,"[""LeftButton""]",,,,,,,,,,,,,,,,,,0,31,31,31,1,0,both_right.png,2,RandomDot29.png,No answer,20,,,,,,,,,,,,,
,,,,,,,,,,,,,,,,,,,,,,,,,,,,,,,我努力赚钱,1,2024-05-31_01h27.06.722,interaction task chi,2021.2.3,Win32,120.105693,,,,,,,,,,,,,,,,,小于,大于,,0.293952229,-0.505282376,1,0,0,RightButton,"[""RightButton""]",,,,,,,,,,,,39.97609813,11.8309,space,0.7403,55.88447324,10.9722,0,32,32,32,1,2,only_sub_right.png,3,RandomDot25.png,No answer,21,,,,,,,,,,,,,
,,,,,,,,,,,,,,,,,,,,,,,,,,,,,,,我努力赚钱,1,2024-05-31_01h27.06.722,interaction task chi,2021.2.3,Win32,120.105693,,,,,,,,,,,,,,,,,大于,小于,,0.300381854,-0.52568306,1,0,0,RightButton,"[""RightButton""]",,,,1.959622158,15.8151,space,,,,,,,,,,,,0,33,33,33,1,1,both_wrong.png,1,RandomDot6.png,No answer,20,,,0.674,,,,,,,,,,
,,,,,,,,,,,,,,,,,,,,,,,,,,,,,,,我努力赚钱,1,2024-05-31_01h27.06.722,interaction task chi,2021.2.3,Win32,120.105693,,,,,,,,,,,,,,,,,大于,小于,,-0.24854325,-0.515482785,1,0,0,LeftButton,"[""LeftButton""]",,,,2.787263993,3.4905,space,,,,,,,,,,,,0,34,34,34,1,1,both_wrong.png,1,RandomDot13.png,No answer,19,,,1.347,,,,,,,,,,
,,,,,,,,,,,,,,,,,,,,,,,,,,,,,,,我努力赚钱,1,2024-05-31_01h27.06.722,interaction task chi,2021.2.3,Win32,120.105693,,,,,,,,,,,,,,,,,大于,小于,,-0.246132159,-0.512568306,1,0,0,LeftButton,"[""LeftButton""]",99,4.4354,space,,,,,,,,,,,,,,,0,35,35,35,1,3,only_sub_wrong.png,0,RandomDot12.png,No answer,20,3.937,,,,,,,,,,,,
,,,,,,,,,,,,,,,,,,,,,,,,,,,,,,,我努力赚钱,1,2024-05-31_01h27.06.722,interaction task chi,2021.2.3,Win32,120.105693,,,,,,,,,,,,,,,,,小于,大于,,-0.347397982,-0.508196721,1,0,0,LeftButton,"[""LeftButton""]",,,,,,,46,1.2661,space,45,1.8148,,,,,,,0,36,36,36,1,1,both_wrong.png,2,RandomDot8.png,No answer,20,,0.6042,,,,,,,,,,,
,,,,,,,,,,,,,,,,,,,,,,,,,,,,,,,我努力赚钱,1,2024-05-31_01h27.06.722,interaction task chi,2021.2.3,Win32,120.105693,,,,,,,,,,,,,,,,,大于,小于,,0.249748943,-0.512568306,1,0,0,RightButton,"[""RightButton""]",,,,2.907794322,12.8889,space,,,,,,,,,,,,0,37,37,37,1,1,both_wrong.png,1,RandomDot26.png,No answer,21,,,0.5072,,,,,,,,,,
,,,,,,,,,,,,,,,,,,,,,,,,,,,,,,,我努力赚钱,1,2024-05-31_01h27.06.722,interaction task chi,2021.2.3,Win32,120.105693,,,,,,,,,,,,,,,,,大于,小于,,0.258589512,-0.515482785,1,0,0,RightButton,"[""RightButton""]",,,,2.019887323,1.3122,space,,,,,,,,,,,,0,38,38,38,1,3,only_sub_wrong.png,1,RandomDot8.png,No answer,21,,,5.1633,,,,,,,,,,
,,,,,,,,,,,,,,,,,,,,,,,,,,,,,,,我努力赚钱,1,2024-05-31_01h27.06.722,interaction task chi,2021.2.3,Win32,120.105693,,,,,,,,,,,,,,,,,小于,大于,,0.277074592,-0.521311475,1,0,0,RightButton,"[""RightButton""]",,,,,,,,,,,,28.04481307,2.1427,space,0.805,78.12374917,3.1493,0,39,39,39,1,3,only_sub_wrong.png,3,RandomDot36.png,No answer,21,,,,,,,,,,,,,
,,,,,,,,,,,,,,,,,,,,,,,,,,,,,,,我努力赚钱,1,2024-05-31_01h27.06.722,interaction task chi,2021.2.3,Win32,120.105693,,,,,,,,,,,,,,,,,小于,大于,,-0.242113699,-0.550455462,1,0,0,LeftButton,"[""LeftButton""]",,,,,,,,,,,,98.25270996,2.4173,space,2.0427,16.35702363,5.0913,0,40,40,40,1,2,only_sub_right.png,3,RandomDot7.png,No answer,20,,,,,,,,,,,,,
,,,,,,,,,,,,,,,,,,,,,,,,,,,,,,,我努力赚钱,1,2024-05-31_01h27.06.722,interaction task chi,2021.2.3,Win32,120.105693,,,,,,,,,,,,,,,,,小于,大于,,-0.328109254,-0.53442623,1,0,0,LeftButton,"[""LeftButton""]",,,,,,,40,1.8057,space,63,1.1823,,,,,,,0,41,41,41,1,2,only_sub_right.png,2,RandomDot8.png,No answer,21,,0.3018,,,,,,,,,,,
,,,,,,,,,,,,,,,,,,,,,,,,,,,,,,,我努力赚钱,1,2024-05-31_01h27.06.722,interaction task chi,2021.2.3,Win32,120.105693,,,,,,,,,,,,,,,,,,,,,,,,,,,,,,,,,,,,,,,,,,,,,,,,,,,,,,,,,,6.027319885,6.2248,4.797910533,6.7746,4.788268254,7.7911,5.559662504,8.6661,space,9.1037