﻿chooserow,ParID,pre_instru_resp_2.keys,pre_instru_resp_2.rt,pre_instru_resp_3.keys,pre_instru_resp_3.rt,pre_instru_resp_9.keys,pre_instru_resp_9.rt,pre_instru_resp_8.keys,pre_instru_resp_8.rt,pre_instru_resp_4.keys,pre_instru_resp_4.rt,pre_instru_resp_5.keys,pre_instru_resp_5.rt,pre_instru_resp_6.keys,pre_instru_resp_6.rt,key_resp_3.keys,key_resp_3.rt,key_resp_4.keys,key_resp_4.rt,key_resp_5.keys,key_resp_5.rt,key_resp_6.keys,key_resp_6.rt,key_resp_7.keys,key_resp_7.rt,trials_2.thisRepN,trials_2.thisTrialN,trials_2.thisN,trials_2.thisIndex,trials_2.ran,participant,session,date,expName,psychopyVersion,OS,frameRate,pre_instru_resp.keys,pre_instru_resp.rt,clicked,judge_2.x,judge_2.y,judge_2.leftButton,judge_2.midButton,judge_2.rightButton,judge_2.clicked_name,trials.thisRepN,trials.thisTrialN,trials.thisN,trials.thisIndex,trials.ran,prac_answer,prac_dot_sti,dotlefttext,dotrighttext,prac_acc,judge.x,judge.y,judge.leftButton,judge.midButton,judge.rightButton,judge.clicked_name,clicked_guilt,slider_guilt.response,slider_guilt.rt,key_guilt.keys,share_slider.response,share_slider.rt,key_share.keys,key_share.rt,slider_apology.response,slider_apology.rt,key_apology.keys,slider_hide.response,slider_hide.rt,slider_forgiveness.response,slider_forgiveness.rt,key_forgiveness.keys,slider_mad.response,slider_mad.rt,trialseq.thisRepN,trialseq.thisTrialN,trialseq.thisN,trialseq.thisIndex,trialseq.ran,type_trial,stipic,DV,picture,answer,number,key_apology.rt,key_guilt.rt,key_forgiveness.rt,slider_friendly.response,slider_friendly.rt,slider_trustworthy.response,slider_trustworthy.rt,slider_competence.response,slider_competence.rt,slider_critical.response,slider_critical.rt,key_resp.keys,key_resp.rt
"[110,177,6,130,82,154,182,94,15,172,132,117,26,58,165,60,47,147,52,187,163,128,66,158,103,86,96,201,108,151,67,178,142,74,88,143,194,131,189,97,55,77]",守护,space,2.414045,space,2.494475,space,20.934425,space,15.42727,space,15.39798,space,8.71785,space,4.46063,4,15.27728,1,7.145255,3,4.95674,1,20.8659,3,5.64873,0,0,0,0,1,守护,1,2024-05-31_24h59.13,interaction task chi,2021.2.3,Win32,50.14793641,,,,,,,,,,,,,,,,,,,,,,,,,,,,,,,,,,,,,,,,,,,,,,,,,,,,,,,,,,,,,,,,,,,
,,,,space,1.492565,space,5.661545,space,2.20986,space,22.298115,space,2.360455,space,0.874445,2,2.775715,1,2.87513,3,2.184395,2,2.82906,2,4.22229,1,0,1,0,1,守护,1,2024-05-31_24h59.13,interaction task chi,2021.2.3,Win32,50.14793641,,,,,,,,,,,,,,,,,,,,,,,,,,,,,,,,,,,,,,,,,,,,,,,,,,,,,,,,,,,,,,,,,,,
,,,,space,1.05858,space,5.664695,space,0.87226,space,0.80098,space,1.187495,space,0.80279,1,3.071795,1,1.92249,3,1.53215,2,1.79914,2,0.79531,2,0,2,0,1,守护,1,2024-05-31_24h59.13,interaction task chi,2021.2.3,Win32,50.14793641,,,,,,,,,,,,,,,,,,,,,,,,,,,,,,,,,,,,,,,,,,,,,,,,,,,,,,,,,,,,,,,,,,,
,,,,space,0.726435,space,0.995815,space,0.74446,space,0.55155,space,1.61102,space,0.591065,3,2.80006,1,1.92037,3,1.355495,2,1.277735,2,0.513245,3,0,3,0,1,守护,1,2024-05-31_24h59.13,interaction task chi,2021.2.3,Win32,50.14793641,,,,,,,,,,,,,,,,,,,,,,,,,,,,,,,,,,,,,,,,,,,,,,,,,,,,,,,,,,,,,,,,,,,
,,,,,,,,,,,,,,,,,,,,,,,,,,,,,,,守护,1,2024-05-31_24h59.13,interaction task chi,2021.2.3,Win32,50.14793641,space,2.86676,"[""RightButton_2""]",0.308931186,-0.338541667,1,0,0,RightButton_2,0,0,0,2,1,RightButton_2,11dot2.png,小于,大于,,,,,,,,,,,,,,,,,,,,,,,,,,,,,,,,,,,,,,,,,,,,,,,,,
,,,,,,,,,,,,,,,,,,,,,,,,,,,,,,,守护,1,2024-05-31_24h59.13,interaction task chi,2021.2.3,Win32,50.14793641,,,"[""RightButton_2""]",0.251830161,-0.333333333,1,0,0,RightButton_2,0,1,1,0,1,LeftButton_2,9dot1.png,小于,大于,,,,,,,,,,,,,,,,,,,,,,,,,,,,,,,,,,,,,,,,,,,,,,,,,
,,,,,,,,,,,,,,,,,,,,,,,,,,,,,,,守护,1,2024-05-31_24h59.13,interaction task chi,2021.2.3,Win32,50.14793641,,,"[""LeftButton_2""]",-0.216691069,-0.330729167,1,0,0,LeftButton_2,0,2,2,1,1,LeftButton_2,9dot2.png,小于,大于,,,,,,,,,,,,,,,,,,,,,,,,,,,,,,,,,,,,,,,,,,,,,,,,,
,,,,,,,,,,,,,,,,,,,,,,,,,,,,,,,守护,1,2024-05-31_24h59.13,interaction task chi,2021.2.3,Win32,50.14793641,,,,,,,,,,,,,,,,,大于,小于,0.4,0.248901903,-0.533854167,1,0,0,RightButton,"[""RightButton""]",,,,1.899707174,5.026745,space,1.24506,,,,,,,,,,,0,0,0,0,1,2,only_sub_right.png,1,RandomDot6.png,No answer,21,,,,,,,,,,,,,
,,,,,,,,,,,,,,,,,,,,,,,,,,,,,,,守护,1,2024-05-31_24h59.13,interaction task chi,2021.2.3,Win32,50.14793641,,,,,,,,,,,,,,,,,小于,大于,,-0.235724744,-0.518229167,1,0,0,LeftButton,"[""LeftButton""]",,,,,,,,88,2.93352,space,15,6.298545,,,,,,0,1,1,1,1,3,only_sub_wrong.png,2,RandomDot31.png,No answer,19,2.134865,,,,,,,,,,,,
,,,,,,,,,,,,,,,,,,,,,,,,,,,,,,,守护,1,2024-05-31_24h59.13,interaction task chi,2021.2.3,Win32,50.14793641,,,,,,,,,,,,,,,,,小于,大于,,0.270863836,-0.528645833,1,0,0,RightButton,"[""RightButton""]",,,,,,,,,,,,,,,,,,0,2,2,2,1,0,both_right.png,0,RandomDot22.png,No answer,19,,,,,,,,,,,,,
,,,,,,,,,,,,,,,,,,,,,,,,,,,,,,,守护,1,2024-05-31_24h59.13,interaction task chi,2021.2.3,Win32,50.14793641,,,,,,,,,,,,,,,,,小于,大于,,0.304538799,-0.536458333,1,0,0,RightButton,"[""RightButton""]",,,,,,,,12,4.914995,space,14,5.89098,,,,,,0,3,3,3,1,2,only_sub_right.png,2,RandomDot8.png,No answer,21,0.864215,,,,,,,,,,,,
,,,,,,,,,,,,,,,,,,,,,,,,,,,,,,,守护,1,2024-05-31_24h59.13,interaction task chi,2021.2.3,Win32,50.14793641,,,,,,,,,,,,,,,,,小于,大于,,0.262079063,-0.518229167,1,0,0,RightButton,"[""RightButton""]",,,,,,,,80,1.595205,space,49,2.454865,,,,,,0,4,4,4,1,1,both_wrong.png,2,RandomDot7.png,No answer,21,0.65169,,,,,,,,,,,,
,,,,,,,,,,,,,,,,,,,,,,,,,,,,,,,守护,1,2024-05-31_24h59.13,interaction task chi,2021.2.3,Win32,50.14793641,,,,,,,,,,,,,,,,,小于,大于,,-0.243045388,-0.5234375,1,0,0,LeftButton,"[""LeftButton""]",91,2.43205,space,,,,,,,,,,,,,,,0,5,5,5,1,3,only_sub_wrong.png,0,RandomDot25.png,No answer,21,,0.98545,,,,,,,,,,,
,,,,,,,,,,,,,,,,,,,,,,,,,,,,,,,守护,1,2024-05-31_24h59.13,interaction task chi,2021.2.3,Win32,50.14793641,,,,,,,,,,,,,,,,,大于,小于,,-0.251830161,-0.5390625,1,0,0,LeftButton,"[""LeftButton""]",,,,,,,,,,,,,75.2894982,3.235255,space,25.74574441,4.03413,0,6,6,6,1,3,only_sub_wrong.png,3,RandomDot8.png,No answer,21,,,0.447975,,,,,,,,,,
,,,,,,,,,,,,,,,,,,,,,,,,,,,,,,,守护,1,2024-05-31_24h59.13,interaction task chi,2021.2.3,Win32,50.14793641,,,,,,,,,,,,,,,,,小于,大于,,-0.265007321,-0.541666667,1,0,0,LeftButton,"[""LeftButton""]",,,,,,,,,,,,,84.16300634,2.179605,space,18.05537069,3.531875,0,7,7,7,1,1,both_wrong.png,3,RandomDot25.png,No answer,21,,,1.073485,,,,,,,,,,
,,,,,,,,,,,,,,,,,,,,,,,,,,,,,,,守护,1,2024-05-31_24h59.13,interaction task chi,2021.2.3,Win32,50.14793641,,,,,,,,,,,,,,,,,大于,小于,,-0.272327965,-0.544270833,1,0,0,LeftButton,"[""LeftButton""]",,,,,,,,,,,,,,,,,,0,8,8,8,1,0,both_right.png,1,RandomDot35.png,No answer,21,,,,,,,,,,,,,
,,,,,,,,,,,,,,,,,,,,,,,,,,,,,,,守护,1,2024-05-31_24h59.13,interaction task chi,2021.2.3,Win32,50.14793641,,,,,,,,,,,,,,,,,大于,小于,,0.282576867,-0.533854167,1,0,0,RightButton,"[""RightButton""]",,,,,,,,96,2.64915,space,23,4.66656,,,,,,0,9,9,9,1,3,only_sub_wrong.png,2,RandomDot38.png,No answer,21,0.75581,,,,,,,,,,,,
,,,,,,,,,,,,,,,,,,,,,,,,,,,,,,,守护,1,2024-05-31_24h59.13,interaction task chi,2021.2.3,Win32,50.14793641,,,,,,,,,,,,,,,,,大于,小于,,-0.31625183,-0.5,1,0,0,LeftButton,"[""LeftButton""]",,,,,,,,,,,,,95.10699972,2.59841,space,8.294511735,3.41495,0,10,10,10,1,2,only_sub_right.png,3,RandomDot20.png,No answer,21,,,0.421795,,,,,,,,,,
,,,,,,,,,,,,,,,,,,,,,,,,,,,,,,,守护,1,2024-05-31_24h59.13,interaction task chi,2021.2.3,Win32,50.14793641,,,,,,,,,,,,,,,,,小于,大于,,0.294289898,-0.5390625,1,0,0,RightButton,"[""RightButton""]",,,,2.353587116,2.66195,space,0.921135,,,,,,,,,,,0,11,11,11,1,2,only_sub_right.png,1,RandomDot27.png,No answer,21,,,,,,,,,,,,,
,,,,,,,,,,,,,,,,,,,,,,,,,,,,,,,守护,1,2024-05-31_24h59.13,interaction task chi,2021.2.3,Win32,50.14793641,,,,,,,,,,,,,,,,,大于,小于,,-0.27818448,-0.502604167,1,0,0,LeftButton,"[""LeftButton""]",,,,,,,,,,,,,,,,,,0,12,12,12,1,0,both_right.png,2,RandomDot36.png,No answer,19,,,,,,,,,,,,,
,,,,,,,,,,,,,,,,,,,,,,,,,,,,,,,守护,1,2024-05-31_24h59.13,interaction task chi,2021.2.3,Win32,50.14793641,,,,,,,,,,,,,,,,,小于,大于,,0.313323572,-0.518229167,1,0,0,RightButton,"[""RightButton""]",72,2.176785,space,,,,,,,,,,,,,,,0,13,13,13,1,1,both_wrong.png,0,RandomDot34.png,No answer,19,,1.455385,,,,,,,,,,,
,,,,,,,,,,,,,,,,,,,,,,,,,,,,,,,守护,1,2024-05-31_24h59.13,interaction task chi,2021.2.3,Win32,50.14793641,,,,,,,,,,,,,,,,,小于,大于,,-0.288433382,-0.518229167,1,0,0,LeftButton,"[""LeftButton""]",,,,2.712298682,4.36313,space,1.826405,,,,,,,,,,,0,14,14,14,1,3,only_sub_wrong.png,1,RandomDot6.png,No answer,21,,,,,,,,,,,,,
,,,,,,,,,,,,,,,,,,,,,,,,,,,,,,,守护,1,2024-05-31_24h59.13,interaction task chi,2021.2.3,Win32,50.14793641,,,,,,,,,,,,,,,,,大于,小于,,0.25329429,-0.5078125,1,0,0,RightButton,"[""RightButton""]",,,,2.873352855,2.136145,space,1.191195,,,,,,,,,,,0,15,15,15,1,1,both_wrong.png,1,RandomDot13.png,No answer,19,,,,,,,,,,,,,
,,,,,,,,,,,,,,,,,,,,,,,,,,,,,,,守护,1,2024-05-31_24h59.13,interaction task chi,2021.2.3,Win32,50.14793641,,,,,,,,,,,,,,,,,小于,大于,,-0.325036603,-0.497395833,1,0,0,LeftButton,"[""LeftButton""]",,,,,,,,,,,,,,,,,,0,16,16,16,1,0,both_right.png,3,RandomDot13.png,No answer,19,,,,,,,,,,,,,
,,,,,,,,,,,,,,,,,,,,,,,,,,,,,,,守护,1,2024-05-31_24h59.13,interaction task chi,2021.2.3,Win32,50.14793641,,,,,,,,,,,,,,,,,大于,小于,,0.273792094,-0.520833333,1,0,0,RightButton,"[""RightButton""]",92,1.85426,space,,,,,,,,,,,,,,,0,17,17,17,1,3,only_sub_wrong.png,0,RandomDot5.png,No answer,20,,0.51589,,,,,,,,,,,
,,,,,,,,,,,,,,,,,,,,,,,,,,,,,,,守护,1,2024-05-31_24h59.13,interaction task chi,2021.2.3,Win32,50.14793641,,,,,,,,,,,,,,,,,大于,小于,,0.27818448,-0.513020833,1,0,0,RightButton,"[""RightButton""]",77,1.77623,space,,,,,,,,,,,,,,,0,18,18,18,1,1,both_wrong.png,0,RandomDot10.png,No answer,20,,0.682195,,,,,,,,,,,
,,,,,,,,,,,,,,,,,,,,,,,,,,,,,,,守护,1,2024-05-31_24h59.13,interaction task chi,2021.2.3,Win32,50.14793641,,,,,,,,,,,,,,,,,小于,大于,,-0.222547584,-0.513020833,1,0,0,LeftButton,"[""LeftButton""]",,,,,,,,,,,,,87.8603014,1.71989,space,2.822515048,3.22081,0,19,19,19,1,3,only_sub_wrong.png,3,RandomDot18.png,No answer,21,,,0.747985,,,,,,,,,,
,,,,,,,,,,,,,,,,,,,,,,,,,,,,,,,守护,1,2024-05-31_24h59.13,interaction task chi,2021.2.3,Win32,50.14793641,,,,,,,,,,,,,,,,,小于,大于,,0.304538799,-0.520833333,1,0,0,RightButton,"[""RightButton""]",,,,2.997803807,1.9595,space,0.948245,,,,,,,,,,,0,20,20,20,1,3,only_sub_wrong.png,1,RandomDot6.png,No answer,20,,,,,,,,,,,,,
,,,,,,,,,,,,,,,,,,,,,,,,,,,,,,,守护,1,2024-05-31_24h59.13,interaction task chi,2021.2.3,Win32,50.14793641,,,,,,,,,,,,,,,,,小于,大于,,-0.306002928,-0.515625,1,0,0,LeftButton,"[""LeftButton""]",,,,,,,,13,3.144495,space,6,4.261585,,,,,,0,21,21,21,1,2,only_sub_right.png,2,RandomDot22.png,No answer,20,0.353045,,,,,,,,,,,,
,,,,,,,,,,,,,,,,,,,,,,,,,,,,,,,守护,1,2024-05-31_24h59.13,interaction task chi,2021.2.3,Win32,50.14793641,,,,,,,,,,,,,,,,,小于,大于,,0.295754026,-0.481770833,1,0,0,RightButton,"[""RightButton""]",,,,2.683016105,1.258295,space,0.415925,,,,,,,,,,,0,22,22,22,1,1,both_wrong.png,1,RandomDot10.png,No answer,19,,,,,,,,,,,,,
,,,,,,,,,,,,,,,,,,,,,,,,,,,,,,,守护,1,2024-05-31_24h59.13,interaction task chi,2021.2.3,Win32,50.14793641,,,,,,,,,,,,,,,,,大于,小于,,-0.263543192,-0.533854167,1,0,0,LeftButton,"[""LeftButton""]",,,,2.931918009,1.6078,space,0.54879,,,,,,,,,,,0,23,23,23,1,3,only_sub_wrong.png,1,RandomDot1.png,No answer,19,,,,,,,,,,,,,
,,,,,,,,,,,,,,,,,,,,,,,,,,,,,,,守护,1,2024-05-31_24h59.13,interaction task chi,2021.2.3,Win32,50.14793641,,,,,,,,,,,,,,,,,小于,大于,,-0.248901903,-0.5,1,0,0,LeftButton,"[""LeftButton""]",0,3.229605,space,,,,,,,,,,,,,,,0,24,24,24,1,2,only_sub_right.png,0,RandomDot21.png,No answer,21,,1.69114,,,,,,,,,,,
,,,,,,,,,,,,,,,,,,,,,,,,,,,,,,,守护,1,2024-05-31_24h59.13,interaction task chi,2021.2.3,Win32,50.14793641,,,,,,,,,,,,,,,,,大于,小于,,0.294289898,-0.510416667,1,0,0,RightButton,"[""RightButton""]",,,,,,,,,,,,,72.92322937,1.87549,space,13.32283302,2.745465,0,25,25,25,1,1,both_wrong.png,3,RandomDot13.png,No answer,21,,,0.88997,,,,,,,,,,
,,,,,,,,,,,,,,,,,,,,,,,,,,,,,,,守护,1,2024-05-31_24h59.13,interaction task chi,2021.2.3,Win32,50.14793641,,,,,,,,,,,,,,,,,大于,小于,,-0.265007321,-0.497395833,1,0,0,LeftButton,"[""LeftButton""]",1,1.9987,space,,,,,,,,,,,,,,,0,26,26,26,1,2,only_sub_right.png,0,RandomDot26.png,No answer,19,,0.74427,,,,,,,,,,,
,,,,,,,,,,,,,,,,,,,,,,,,,,,,,,,守护,1,2024-05-31_24h59.13,interaction task chi,2021.2.3,Win32,50.14793641,,,,,,,,,,,,,,,,,小于,大于,,-0.2284041,-0.510416667,1,0,0,LeftButton,"[""LeftButton""]",,,,,,,,,,,,,,,,,,0,27,27,27,1,5,both_right.png,10,RandomDot42.png,LeftButton,19,,,,,,,,,,,,,
,,,,,,,,,,,,,,,,,,,,,,,,,,,,,,,守护,1,2024-05-31_24h59.13,interaction task chi,2021.2.3,Win32,50.14793641,,,,,,,,,,,,,,,,,大于,小于,,-0.304538799,-0.481770833,1,0,0,LeftButton,"[""LeftButton""]",,,,2.155929722,2.041075,space,0.320945,,,,,,,,,,,0,28,28,28,1,2,only_sub_right.png,1,RandomDot3.png,No answer,20,,,,,,,,,,,,,
,,,,,,,,,,,,,,,,,,,,,,,,,,,,,,,守护,1,2024-05-31_24h59.13,interaction task chi,2021.2.3,Win32,50.14793641,,,,,,,,,,,,,,,,,小于,大于,,-0.266471449,-0.513020833,1,0,0,LeftButton,"[""LeftButton""]",92,2.53102,space,,,,,,,,,,,,,,,0,29,29,29,1,3,only_sub_wrong.png,0,RandomDot26.png,No answer,19,,1.27312,,,,,,,,,,,
,,,,,,,,,,,,,,,,,,,,,,,,,,,,,,,守护,1,2024-05-31_24h59.13,interaction task chi,2021.2.3,Win32,50.14793641,,,,,,,,,,,,,,,,,小于,大于,,-0.275256223,-0.494791667,1,0,0,LeftButton,"[""LeftButton""]",,,,2.661054173,1.190805,space,0.46685,,,,,,,,,,,0,30,30,30,1,1,both_wrong.png,1,RandomDot17.png,No answer,20,,,,,,,,,,,,,
,,,,,,,,,,,,,,,,,,,,,,,,,,,,,,,守护,1,2024-05-31_24h59.13,interaction task chi,2021.2.3,Win32,50.14793641,,,,,,,,,,,,,,,,,小于,大于,,0.358711567,-0.510416667,1,0,0,RightButton,"[""RightButton""]",,,,,,,,84,1.713285,space,6,2.626365,,,,,,0,31,31,31,1,3,only_sub_wrong.png,2,RandomDot22.png,No answer,19,0.782835,,,,,,,,,,,,
,,,,,,,,,,,,,,,,,,,,,,,,,,,,,,,守护,1,2024-05-31_24h59.13,interaction task chi,2021.2.3,Win32,50.14793641,,,,,,,,,,,,,,,,,小于,大于,,0.224011713,-0.5078125,1,0,0,RightButton,"[""RightButton""]",,,,,,,,,,,,,93.48018989,2.229805,space,5.336675688,3.63485,0,32,32,32,1,2,only_sub_right.png,3,RandomDot18.png,No answer,20,,,0.935915,,,,,,,,,,
,,,,,,,,,,,,,,,,,,,,,,,,,,,,,,,守护,1,2024-05-31_24h59.13,interaction task chi,2021.2.3,Win32,50.14793641,,,,,,,,,,,,,,,,,大于,小于,,-0.241581259,-0.479166667,1,0,0,LeftButton,"[""LeftButton""]",,,,,,,,85,3.094485,space,2,4.28725,,,,,,0,33,33,33,1,1,both_wrong.png,2,RandomDot16.png,No answer,20,0.264735,,,,,,,,,,,,
,,,,,,,,,,,,,,,,,,,,,,,,,,,,,,,守护,1,2024-05-31_24h59.13,interaction task chi,2021.2.3,Win32,50.14793641,,,,,,,,,,,,,,,,,大于,小于,,-0.345534407,-0.489583333,1,0,0,LeftButton,"[""LeftButton""]",,,,,,,,,,,,,94.51543251,2.03008,space,0,4.676395,0,34,34,34,1,1,both_wrong.png,3,RandomDot30.png,No answer,20,,,1.7355,,,,,,,,,,
,,,,,,,,,,,,,,,,,,,,,,,,,,,,,,,守护,1,2024-05-31_24h59.13,interaction task chi,2021.2.3,Win32,50.14793641,,,,,,,,,,,,,,,,,小于,大于,,0.327964861,-0.505208333,1,0,0,RightButton,"[""RightButton""]",,,,,,,,,,,,,95.10699972,1.677245,space,3.857757664,2.559945,0,35,35,35,1,2,only_sub_right.png,3,RandomDot31.png,No answer,19,,,0.268795,,,,,,,,,,
,,,,,,,,,,,,,,,,,,,,,,,,,,,,,,,守护,1,2024-05-31_24h59.13,interaction task chi,2021.2.3,Win32,50.14793641,,,,,,,,,,,,,,,,,大于,小于,,-0.289897511,-0.526041667,1,0,0,LeftButton,"[""LeftButton""]",,,,,,,,,,,,,,,,,,0,36,36,36,1,4,both_right.png,10,RandomDot41.png,LeftButton,5,,,,,,,,,,,,,
,,,,,,,,,,,,,,,,,,,,,,,,,,,,,,,守护,1,2024-05-31_24h59.13,interaction task chi,2021.2.3,Win32,50.14793641,,,,,,,,,,,,,,,,,小于,大于,,-0.368960469,-0.520833333,1,0,0,LeftButton,"[""LeftButton""]",,,,,,,,1,1.81895,space,4,2.60731,,,,,,0,37,37,37,1,2,only_sub_right.png,2,RandomDot5.png,No answer,21,0.6157,,,,,,,,,,,,
,,,,,,,,,,,,,,,,,,,,,,,,,,,,,,,守护,1,2024-05-31_24h59.13,interaction task chi,2021.2.3,Win32,50.14793641,,,,,,,,,,,,,,,,,小于,大于,,0.273792094,-0.5234375,1,0,0,RightButton,"[""RightButton""]",,,,,,,,,,,,,97.17748495,1.785855,space,5.48456749,2.727175,0,38,38,38,1,3,only_sub_wrong.png,3,RandomDot38.png,No answer,20,,,0.16461,,,,,,,,,,
,,,,,,,,,,,,,,,,,,,,,,,,,,,,,,,守护,1,2024-05-31_24h59.13,interaction task chi,2021.2.3,Win32,50.14793641,,,,,,,,,,,,,,,,,大于,小于,,-0.224011713,-0.536458333,1,0,0,LeftButton,"[""LeftButton""]",5,2.09999,space,,,,,,,,,,,,,,,0,39,39,39,1,2,only_sub_right.png,0,RandomDot8.png,No answer,20,,0.118165,,,,,,,,,,,
,,,,,,,,,,,,,,,,,,,,,,,,,,,,,,,守护,1,2024-05-31_24h59.13,interaction task chi,2021.2.3,Win32,50.14793641,,,,,,,,,,,,,,,,,小于,大于,,0.262079063,-0.520833333,1,0,0,RightButton,"[""RightButton""]",85,1.55037,space,,,,,,,,,,,,,,,0,40,40,40,1,1,both_wrong.png,0,RandomDot28.png,No answer,19,,0.27043,,,,,,,,,,,
,,,,,,,,,,,,,,,,,,,,,,,,,,,,,,,守护,1,2024-05-31_24h59.13,interaction task chi,2021.2.3,Win32,50.14793641,,,,,,,,,,,,,,,,,大于,小于,,0.266471449,-0.53125,1,0,0,RightButton,"[""RightButton""]",,,,,,,,59,2.630895,space,6,4.01241,,,,,,0,41,41,41,1,1,both_wrong.png,2,RandomDot13.png,No answer,21,0.684465,,,,,,,,,,,,
,,,,,,,,,,,,,,,,,,,,,,,,,,,,,,,守护,1,2024-05-31_24h59.13,interaction task chi,2021.2.3,Win32,50.14793641,,,,,,,,,,,,,,,,,,,,,,,,,,,,,,,,,,,,,,,,,,,,,,,,,,,,,,,,,,6.67057101,2.549275,5.467057101,3.349315,6.635431918,4.290855,4.535871157,6.176075,space,6.56386