﻿choose_trial,key_resp.keys,key_resp.rt,key_resp_4.keys,key_resp_4.rt,session_trait,key_resp_5.keys,key_resp_5.rt,slider_face_judge.response,slider_face_judge.rt,key_resp_3.keys,key_resp_3.rt,face_loop.thisRepN,face_loop.thisTrialN,face_loop.thisN,face_loop.thisIndex,face_loop.ran,face_serial,image_name,isCheck,answer,check_question,participant,session,date,expName,psychopyVersion,OS,frameRate,session.thisRepN,session.thisTrialN,session.thisN,session.thisIndex,session.ran,session_serial,slider_judge_img
"[0,1,2,3,4,5,6,7,8,9,10,11,12,13,14,15,16,17,18,19,20,21,22,23,24,25,26,27,28,29,30,31,32,33,34,35,36,37,38,39,40,41,42,43,44,45,46,47,48,49,57,53,54]",space,18.5809,space,8.8894,critical,space,7.2445,6.027777778,2.3183,space,0.7755,0,0,0,23,1,24,image/24.jpg,0,0,,爱购i,2,2024-05-31_01h07.16.194,face trait task chi,2021.2.3,Win32,60.24096386,,,,,,,
,,,,,,,,1.03333346,2.493,space,0.3959,0,1,1,2,1,3,image/3.jpg,0,0,,爱购i,2,2024-05-31_01h07.16.194,face trait task chi,2021.2.3,Win32,60.24096386,,,,,,,
,,,,,,,,5,2.0258,space,0.2851,0,2,2,30,1,31,image/31.jpg,0,0,,爱购i,2,2024-05-31_01h07.16.194,face trait task chi,2021.2.3,Win32,60.24096386,,,,,,,
,,,,,,,,3.966666751,1.9968,space,0.3632,0,3,3,7,1,8,image/8.jpg,0,0,,爱购i,2,2024-05-31_01h07.16.194,face trait task chi,2021.2.3,Win32,60.24096386,,,,,,,
,,,,,,,,5.977778117,1.5448,space,0.4198,0,4,4,36,1,37,image/37.jpg,0,0,,爱购i,2,2024-05-31_01h07.16.194,face trait task chi,2021.2.3,Win32,60.24096386,,,,,,,
,,,,,,,,3.022222307,3.1524,space,0.1146,0,5,5,44,1,45,image/45.jpg,0,0,,爱购i,2,2024-05-31_01h07.16.194,face trait task chi,2021.2.3,Win32,60.24096386,,,,,,,
,,,,,,,,5.016666836,2.5374,space,0.3391,0,6,6,46,1,47,image/47.jpg,0,0,,爱购i,2,2024-05-31_01h07.16.194,face trait task chi,2021.2.3,Win32,60.24096386,,,,,,,
,,,,,,,,4.977777693,1.5403,space,0.1753,0,7,7,26,1,27,image/27.jpg,0,0,,爱购i,2,2024-05-31_01h07.16.194,face trait task chi,2021.2.3,Win32,60.24096386,,,,,,,
,,,,,,,,1.977777905,1.909,space,0.4574,0,8,8,10,1,11,image/11.jpg,0,0,,爱购i,2,2024-05-31_01h07.16.194,face trait task chi,2021.2.3,Win32,60.24096386,,,,,,,
,,,,,,,,1.022222307,2.5386,space,0.2714,0,9,9,40,1,41,image/41.jpg,0,0,,爱购i,2,2024-05-31_01h07.16.194,face trait task chi,2021.2.3,Win32,60.24096386,,,,,,,
,,,,,,,,2.027777778,2.2026,space,0.3084,0,10,10,11,1,12,image/12.jpg,0,0,,爱购i,2,2024-05-31_01h07.16.194,face trait task chi,2021.2.3,Win32,60.24096386,,,,,,,
,,,,,,,,5.961111281,1.5541,space,0.4216,0,11,11,20,1,21,image/21.jpg,0,0,,爱购i,2,2024-05-31_01h07.16.194,face trait task chi,2021.2.3,Win32,60.24096386,,,,,,,
,,,,,,,,5.038889143,2.6668,space,0.1177,0,12,12,25,1,26,image/26.jpg,0,0,,爱购i,2,2024-05-31_01h07.16.194,face trait task chi,2021.2.3,Win32,60.24096386,,,,,,,
,,,,,,,,6.966667175,1.5063,space,0.3344,0,13,13,16,1,17,image/17.jpg,0,0,,爱购i,2,2024-05-31_01h07.16.194,face trait task chi,2021.2.3,Win32,60.24096386,,,,,,,
,,,,,,,,6.955555386,1.1414,space,0.1669,0,14,14,21,1,22,image/22.jpg,0,0,,爱购i,2,2024-05-31_01h07.16.194,face trait task chi,2021.2.3,Win32,60.24096386,,,,,,,
,,,,,,,,6.005555895,1.9861,space,0.3226,0,15,15,6,1,7,image/7.jpg,0,0,,爱购i,2,2024-05-31_01h07.16.194,face trait task chi,2021.2.3,Win32,60.24096386,,,,,,,
,,,,,,,,1.60555564,2.5633,space,0.185,0,16,16,3,1,4,image/4.jpg,0,0,,爱购i,2,2024-05-31_01h07.16.194,face trait task chi,2021.2.3,Win32,60.24096386,,,,,,,
,,,,,,,,6.516666836,1.8504,space,0.1781,0,17,17,27,1,28,image/28.jpg,0,0,,爱购i,2,2024-05-31_01h07.16.194,face trait task chi,2021.2.3,Win32,60.24096386,,,,,,,
,,,,,,,,6.983333164,1.3533,space,0.3535,0,18,18,12,1,13,image/13.jpg,0,0,,爱购i,2,2024-05-31_01h07.16.194,face trait task chi,2021.2.3,Win32,60.24096386,,,,,,,
,,,,,,,,6.444444444,1.8561,space,0.572,0,19,19,42,1,43,image/43.jpg,0,0,,爱购i,2,2024-05-31_01h07.16.194,face trait task chi,2021.2.3,Win32,60.24096386,,,,,,,
,,,,,,,,5.944444444,3.0145,space,0.2931,0,20,20,37,1,38,image/38.jpg,0,0,,爱购i,2,2024-05-31_01h07.16.194,face trait task chi,2021.2.3,Win32,60.24096386,,,,,,,
,,,,,,,,6.583333333,2.1015,space,0.3053,0,21,21,1,1,2,image/2.jpg,0,0,,爱购i,2,2024-05-31_01h07.16.194,face trait task chi,2021.2.3,Win32,60.24096386,,,,,,,
,,,,,,,,1.594444487,1.8949,space,0.1537,0,22,22,4,1,5,image/5.jpg,0,0,,爱购i,2,2024-05-31_01h07.16.194,face trait task chi,2021.2.3,Win32,60.24096386,,,,,,,
,,,,,,,,6.938889398,1.795,space,0.3893,0,23,23,39,1,40,image/40.jpg,0,0,,爱购i,2,2024-05-31_01h07.16.194,face trait task chi,2021.2.3,Win32,60.24096386,,,,,,,
,,,,,,,,7,3.3001,space,1.9634,0,24,24,50,1,58,image/fill_img.png,1,7,请将滑块完全移动到<右边>，以示您在专心判断。,爱购i,2,2024-05-31_01h07.16.194,face trait task chi,2021.2.3,Win32,60.24096386,,,,,,,
,,,,,,,,6.511110942,1.9461,space,0.3578,0,25,25,38,1,39,image/39.jpg,0,0,,爱购i,2,2024-05-31_01h07.16.194,face trait task chi,2021.2.3,Win32,60.24096386,,,,,,,
,,,,,,,,6.972222222,2.7203,space,0.3914,0,26,26,0,1,1,image/1.jpg,0,0,,爱购i,2,2024-05-31_01h07.16.194,face trait task chi,2021.2.3,Win32,60.24096386,,,,,,,
,,,,,,,,6.983333164,2.0151,space,0.3404,0,27,27,14,1,15,image/15.jpg,0,0,,爱购i,2,2024-05-31_01h07.16.194,face trait task chi,2021.2.3,Win32,60.24096386,,,,,,,
,,,,,,,,7,2.5798,space,1.2616,0,28,28,13,1,14,image/14.jpg,0,0,,爱购i,2,2024-05-31_01h07.16.194,face trait task chi,2021.2.3,Win32,60.24096386,,,,,,,
,,,,,,,,1.28333346,1.9311,space,0.2848,0,29,29,43,1,44,image/44.jpg,0,0,,爱购i,2,2024-05-31_01h07.16.194,face trait task chi,2021.2.3,Win32,60.24096386,,,,,,,
,,,,,,,,1.027777778,2.2115,space,0.3339,0,30,30,48,1,49,image/49.jpg,0,0,,爱购i,2,2024-05-31_01h07.16.194,face trait task chi,2021.2.3,Win32,60.24096386,,,,,,,
,,,,,,,,6.683333503,1.7421,space,0.1579,0,31,31,28,1,29,image/29.jpg,0,0,,爱购i,2,2024-05-31_01h07.16.194,face trait task chi,2021.2.3,Win32,60.24096386,,,,,,,
,,,,,,,,6.89999983,1.6065,space,0.2324,0,32,32,15,1,16,image/16.jpg,0,0,,爱购i,2,2024-05-31_01h07.16.194,face trait task chi,2021.2.3,Win32,60.24096386,,,,,,,
,,,,,,,,5.533333249,2.1252,space,0.2478,0,33,33,17,1,18,image/18.jpg,0,0,,爱购i,2,2024-05-31_01h07.16.194,face trait task chi,2021.2.3,Win32,60.24096386,,,,,,,
,,,,,,,,6.055555556,1.8963,space,0.1328,0,34,34,18,1,19,image/19.jpg,0,0,,爱购i,2,2024-05-31_01h07.16.194,face trait task chi,2021.2.3,Win32,60.24096386,,,,,,,
,,,,,,,,6.966667175,1.4841,space,0.3868,0,35,35,19,1,20,image/20.jpg,0,0,,爱购i,2,2024-05-31_01h07.16.194,face trait task chi,2021.2.3,Win32,60.24096386,,,,,,,
,,,,,,,,6,1.8565,space,0.1425,0,36,36,31,1,32,image/32.jpg,0,0,,爱购i,2,2024-05-31_01h07.16.194,face trait task chi,2021.2.3,Win32,60.24096386,,,,,,,
,,,,,,,,5.233333588,1.6039,space,0.1198,0,37,37,24,1,25,image/25.jpg,0,0,,爱购i,2,2024-05-31_01h07.16.194,face trait task chi,2021.2.3,Win32,60.24096386,,,,,,,
,,,,,,,,6.716667175,1.5166,space,0.1256,0,38,38,47,1,48,image/48.jpg,0,0,,爱购i,2,2024-05-31_01h07.16.194,face trait task chi,2021.2.3,Win32,60.24096386,,,,,,,
,,,,,,,,1,1.9772,space,0.641,0,39,39,52,1,55,image/fill_img.png,1,1,请将滑块完全移动到<左边>，以示您在专心判断。,爱购i,2,2024-05-31_01h07.16.194,face trait task chi,2021.2.3,Win32,60.24096386,,,,,,,
,,,,,,,,6.16111162,1.8312,space,0.1181,0,40,40,5,1,6,image/6.jpg,0,0,,爱购i,2,2024-05-31_01h07.16.194,face trait task chi,2021.2.3,Win32,60.24096386,,,,,,,
,,,,,,,,6.927777608,1.3307,space,0.1167,0,41,41,45,1,46,image/46.jpg,0,0,,爱购i,2,2024-05-31_01h07.16.194,face trait task chi,2021.2.3,Win32,60.24096386,,,,,,,
,,,,,,,,6.011110942,2.0005,space,0.0844,0,42,42,22,1,23,image/23.jpg,0,0,,爱购i,2,2024-05-31_01h07.16.194,face trait task chi,2021.2.3,Win32,60.24096386,,,,,,,
,,,,,,,,6.616667006,1.5253,space,1.0268,0,43,43,33,1,34,image/34.jpg,0,0,,爱购i,2,2024-05-31_01h07.16.194,face trait task chi,2021.2.3,Win32,60.24096386,,,,,,,
,,,,,,,,5.011111365,2.3345,space,0.1937,0,44,44,29,1,30,image/30.jpg,0,0,,爱购i,2,2024-05-31_01h07.16.194,face trait task chi,2021.2.3,Win32,60.24096386,,,,,,,
,,,,,,,,4.522222307,1.7606,space,0.1028,0,45,45,49,1,50,image/50.jpg,0,0,,爱购i,2,2024-05-31_01h07.16.194,face trait task chi,2021.2.3,Win32,60.24096386,,,,,,,
,,,,,,,,6.711111281,1.4687,space,0.4705,0,46,46,9,1,10,image/10.jpg,0,0,,爱购i,2,2024-05-31_01h07.16.194,face trait task chi,2021.2.3,Win32,60.24096386,,,,,,,
,,,,,,,,5.388888889,2.46,space,1.0002,0,47,47,32,1,33,image/33.jpg,0,0,,爱购i,2,2024-05-31_01h07.16.194,face trait task chi,2021.2.3,Win32,60.24096386,,,,,,,
,,,,,,,,1.005555683,1.7252,space,0.1706,0,48,48,34,1,35,image/35.jpg,0,0,,爱购i,2,2024-05-31_01h07.16.194,face trait task chi,2021.2.3,Win32,60.24096386,,,,,,,
,,,,,,,,3.533333249,2.837,space,0.0628,0,49,49,41,1,42,image/42.jpg,0,0,,爱购i,2,2024-05-31_01h07.16.194,face trait task chi,2021.2.3,Win32,60.24096386,,,,,,,
,,,,,,,,6.972222222,1.7035,space,0.1389,0,50,50,8,1,9,image/9.jpg,0,0,,爱购i,2,2024-05-31_01h07.16.194,face trait task chi,2021.2.3,Win32,60.24096386,,,,,,,
,,,,,,,,4.005555471,2.1391,space,0.7067,0,51,51,35,1,36,image/36.jpg,0,0,,爱购i,2,2024-05-31_01h07.16.194,face trait task chi,2021.2.3,Win32,60.24096386,,,,,,,
,,,,,,,,1.011111153,2.4901,space,0.4681,0,52,52,51,1,54,image/fill_img.png,1,1,请将滑块完全移动到<左边>，以示您在专心判断。,爱购i,2,2024-05-31_01h07.16.194,face trait task chi,2021.2.3,Win32,60.24096386,,,,,,,
,,,,,,,,,,,,,,,,,,,,,,爱购i,2,2024-05-31_01h07.16.194,face trait task chi,2021.2.3,Win32,60.24096386,0,0,0,0,1,0,critical.png
,,,,,competent,space,12.0442,5.011111365,2.3457,space,0.442,0,0,0,6,1,7,image/7.jpg,0,0,,爱购i,2,2024-05-31_01h07.16.194,face trait task chi,2021.2.3,Win32,60.24096386,,,,,,,
,,,,,,,,6.922222561,1.8886,space,0.1234,0,1,1,21,1,22,image/22.jpg,0,0,,爱购i,2,2024-05-31_01h07.16.194,face trait task chi,2021.2.3,Win32,60.24096386,,,,,,,
,,,,,,,,4.183333503,2.1764,space,0.2724,0,2,2,28,1,29,image/29.jpg,0,0,,爱购i,2,2024-05-31_01h07.16.194,face trait task chi,2021.2.3,Win32,60.24096386,,,,,,,
,,,,,,,,6.833333333,1.5692,space,0.3505,0,3,3,18,1,19,image/19.jpg,0,0,,爱购i,2,2024-05-31_01h07.16.194,face trait task chi,2021.2.3,Win32,60.24096386,,,,,,,
,,,,,,,,1.961111069,1.9618,space,0.764,0,4,4,2,1,3,image/3.jpg,0,0,,爱购i,2,2024-05-31_01h07.16.194,face trait task chi,2021.2.3,Win32,60.24096386,,,,,,,
,,,,,,,,2.983333588,2.0423,space,0.1031,0,5,5,47,1,48,image/48.jpg,0,0,,爱购i,2,2024-05-31_01h07.16.194,face trait task chi,2021.2.3,Win32,60.24096386,,,,,,,
,,,,,,,,7,3.0396,space,0.8871,0,6,6,50,1,58,image/fill_img.png,1,7,请将滑块完全移动到<右边>，以示您在专心判断。,爱购i,2,2024-05-31_01h07.16.194,face trait task chi,2021.2.3,Win32,60.24096386,,,,,,,
,,,,,,,,1,2.0453,space,0.6554,0,7,7,52,1,55,image/fill_img.png,1,1,请将滑块完全移动到<左边>，以示您在专心判断。,爱购i,2,2024-05-31_01h07.16.194,face trait task chi,2021.2.3,Win32,60.24096386,,,,,,,
,,,,,,,,1,3.618,space,1.3024,0,8,8,32,1,33,image/33.jpg,0,0,,爱购i,2,2024-05-31_01h07.16.194,face trait task chi,2021.2.3,Win32,60.24096386,,,,,,,
,,,,,,,,5.377777947,2.1197,space,0.0829,0,9,9,9,1,10,image/10.jpg,0,0,,爱购i,2,2024-05-31_01h07.16.194,face trait task chi,2021.2.3,Win32,60.24096386,,,,,,,
,,,,,,,,4.011111365,2.6202,space,0.1951,0,10,10,40,1,41,image/41.jpg,0,0,,爱购i,2,2024-05-31_01h07.16.194,face trait task chi,2021.2.3,Win32,60.24096386,,,,,,,
,,,,,,,,5.5,2.1971,space,0.0802,0,11,11,31,1,32,image/32.jpg,0,0,,爱购i,2,2024-05-31_01h07.16.194,face trait task chi,2021.2.3,Win32,60.24096386,,,,,,,
,,,,,,,,4.522222307,1.6779,space,0.065,0,12,12,30,1,31,image/31.jpg,0,0,,爱购i,2,2024-05-31_01h07.16.194,face trait task chi,2021.2.3,Win32,60.24096386,,,,,,,
,,,,,,,,6.505555895,1.6523,space,0.0698,0,13,13,5,1,6,image/6.jpg,0,0,,爱购i,2,2024-05-31_01h07.16.194,face trait task chi,2021.2.3,Win32,60.24096386,,,,,,,
,,,,,,,,6.011110942,2.4994,space,0.1328,0,14,14,7,1,8,image/8.jpg,0,0,,爱购i,2,2024-05-31_01h07.16.194,face trait task chi,2021.2.3,Win32,60.24096386,,,,,,,
,,,,,,,,4.983333588,2.3824,space,0.4025,0,15,15,3,1,4,image/4.jpg,0,0,,爱购i,2,2024-05-31_01h07.16.194,face trait task chi,2021.2.3,Win32,60.24096386,,,,,,,
,,,,,,,,5.444444444,2.2854,space,0.0674,0,16,16,4,1,5,image/5.jpg,0,0,,爱购i,2,2024-05-31_01h07.16.194,face trait task chi,2021.2.3,Win32,60.24096386,,,,,,,
,,,,,,,,4.85000017,2.881,space,0.0857,0,17,17,22,1,23,image/23.jpg,0,0,,爱购i,2,2024-05-31_01h07.16.194,face trait task chi,2021.2.3,Win32,60.24096386,,,,,,,
,,,,,,,,6.438889398,1.1854,space,0.0636,0,18,18,23,1,24,image/24.jpg,0,0,,爱购i,2,2024-05-31_01h07.16.194,face trait task chi,2021.2.3,Win32,60.24096386,,,,,,,
,,,,,,,,6.938889398,1.373,space,0.1304,0,19,19,38,1,39,image/39.jpg,0,0,,爱购i,2,2024-05-31_01h07.16.194,face trait task chi,2021.2.3,Win32,60.24096386,,,,,,,
,,,,,,,,5.983333164,2.2304,space,0.1193,0,20,20,0,1,1,image/1.jpg,0,0,,爱购i,2,2024-05-31_01h07.16.194,face trait task chi,2021.2.3,Win32,60.24096386,,,,,,,
,,,,,,,,5.005555471,1.8019,space,0.0264,0,21,21,35,1,36,image/36.jpg,0,0,,爱购i,2,2024-05-31_01h07.16.194,face trait task chi,2021.2.3,Win32,60.24096386,,,,,,,
,,,,,,,,4.472222222,2.0894,space,0.0634,0,22,22,26,1,27,image/27.jpg,0,0,,爱购i,2,2024-05-31_01h07.16.194,face trait task chi,2021.2.3,Win32,60.24096386,,,,,,,
,,,,,,,,2.294444614,2.4358,space,0.1232,0,23,23,37,1,38,image/38.jpg,0,0,,爱购i,2,2024-05-31_01h07.16.194,face trait task chi,2021.2.3,Win32,60.24096386,,,,,,,
,,,,,,,,6,3.0827,space,0.0788,0,24,24,44,1,45,image/45.jpg,0,0,,爱购i,2,2024-05-31_01h07.16.194,face trait task chi,2021.2.3,Win32,60.24096386,,,,,,,
,,,,,,,,1.155555513,2.0439,space,0.0733,0,25,25,14,1,15,image/15.jpg,0,0,,爱购i,2,2024-05-31_01h07.16.194,face trait task chi,2021.2.3,Win32,60.24096386,,,,,,,
,,,,,,,,6.972222222,1.4876,space,0.358,0,26,26,39,1,40,image/40.jpg,0,0,,爱购i,2,2024-05-31_01h07.16.194,face trait task chi,2021.2.3,Win32,60.24096386,,,,,,,
,,,,,,,,4.972222222,1.7476,space,0.2793,0,27,27,34,1,35,image/35.jpg,0,0,,爱购i,2,2024-05-31_01h07.16.194,face trait task chi,2021.2.3,Win32,60.24096386,,,,,,,
,,,,,,,,2.172222349,2.3158,space,0.1523,0,28,28,1,1,2,image/2.jpg,0,0,,爱购i,2,2024-05-31_01h07.16.194,face trait task chi,2021.2.3,Win32,60.24096386,,,,,,,
,,,,,,,,1.161111196,1.6087,space,0.0716,0,29,29,42,1,43,image/43.jpg,0,0,,爱购i,2,2024-05-31_01h07.16.194,face trait task chi,2021.2.3,Win32,60.24096386,,,,,,,
,,,,,,,,1.005555683,2.2961,space,0.4374,0,30,30,51,1,54,image/fill_img.png,1,1,请将滑块完全移动到<左边>，以示您在专心判断。,爱购i,2,2024-05-31_01h07.16.194,face trait task chi,2021.2.3,Win32,60.24096386,,,,,,,
,,,,,,,,4.238889058,1.7655,space,0.0316,0,31,31,20,1,21,image/21.jpg,0,0,,爱购i,2,2024-05-31_01h07.16.194,face trait task chi,2021.2.3,Win32,60.24096386,,,,,,,
,,,,,,,,6.605556064,1.6651,space,0.2615,0,32,32,10,1,11,image/11.jpg,0,0,,爱购i,2,2024-05-31_01h07.16.194,face trait task chi,2021.2.3,Win32,60.24096386,,,,,,,
,,,,,,,,6.822222392,1.5347,space,0.6116,0,33,33,25,1,26,image/26.jpg,0,0,,爱购i,2,2024-05-31_01h07.16.194,face trait task chi,2021.2.3,Win32,60.24096386,,,,,,,
,,,,,,,,5.050000085,1.9033,space,0.1472,0,34,34,29,1,30,image/30.jpg,0,0,,爱购i,2,2024-05-31_01h07.16.194,face trait task chi,2021.2.3,Win32,60.24096386,,,,,,,
,,,,,,,,5.988889058,2.5823,space,0.0718,0,35,35,43,1,44,image/44.jpg,0,0,,爱购i,2,2024-05-31_01h07.16.194,face trait task chi,2021.2.3,Win32,60.24096386,,,,,,,
,,,,,,,,5.005555471,1.6289,space,0.104,0,36,36,16,1,17,image/17.jpg,0,0,,爱购i,2,2024-05-31_01h07.16.194,face trait task chi,2021.2.3,Win32,60.24096386,,,,,,,
,,,,,,,,6.705555386,1.5322,space,0.1036,0,37,37,11,1,12,image/12.jpg,0,0,,爱购i,2,2024-05-31_01h07.16.194,face trait task chi,2021.2.3,Win32,60.24096386,,,,,,,
,,,,,,,,6.022222731,2.3435,space,0.0802,0,38,38,36,1,37,image/37.jpg,0,0,,爱购i,2,2024-05-31_01h07.16.194,face trait task chi,2021.2.3,Win32,60.24096386,,,,,,,
,,,,,,,,5.933333503,3.164,space,0.2188,0,39,39,8,1,9,image/9.jpg,0,0,,爱购i,2,2024-05-31_01h07.16.194,face trait task chi,2021.2.3,Win32,60.24096386,,,,,,,
,,,,,,,,6.427777608,3.3757,space,0.1415,0,40,40,12,1,13,image/13.jpg,0,0,,爱购i,2,2024-05-31_01h07.16.194,face trait task chi,2021.2.3,Win32,60.24096386,,,,,,,
,,,,,,,,1.338889016,1.7337,space,0.1447,0,41,41,46,1,47,image/47.jpg,0,0,,爱购i,2,2024-05-31_01h07.16.194,face trait task chi,2021.2.3,Win32,60.24096386,,,,,,,
,,,,,,,,3.016666836,1.9741,space,0.2839,0,42,42,49,1,50,image/50.jpg,0,0,,爱购i,2,2024-05-31_01h07.16.194,face trait task chi,2021.2.3,Win32,60.24096386,,,,,,,
,,,,,,,,1.005555683,1.9995,space,0.2961,0,43,43,13,1,14,image/14.jpg,0,0,,爱购i,2,2024-05-31_01h07.16.194,face trait task chi,2021.2.3,Win32,60.24096386,,,,,,,
,,,,,,,,6.81111145,2.6132,space,0.5733,0,44,44,41,1,42,image/42.jpg,0,0,,爱购i,2,2024-05-31_01h07.16.194,face trait task chi,2021.2.3,Win32,60.24096386,,,,,,,
,,,,,,,,2.577777863,2.3549,space,0.1458,0,45,45,24,1,25,image/25.jpg,0,0,,爱购i,2,2024-05-31_01h07.16.194,face trait task chi,2021.2.3,Win32,60.24096386,,,,,,,
,,,,,,,,6.550000509,1.553,space,0.2669,0,46,46,33,1,34,image/34.jpg,0,0,,爱购i,2,2024-05-31_01h07.16.194,face trait task chi,2021.2.3,Win32,60.24096386,,,,,,,
,,,,,,,,6.922222561,1.244,space,0.6142,0,47,47,45,1,46,image/46.jpg,0,0,,爱购i,2,2024-05-31_01h07.16.194,face trait task chi,2021.2.3,Win32,60.24096386,,,,,,,
,,,,,,,,1.138888889,1.7511,space,0.1789,0,48,48,15,1,16,image/16.jpg,0,0,,爱购i,2,2024-05-31_01h07.16.194,face trait task chi,2021.2.3,Win32,60.24096386,,,,,,,
,,,,,,,,5.75,1.7866,space,0.2331,0,49,49,17,1,18,image/18.jpg,0,0,,爱购i,2,2024-05-31_01h07.16.194,face trait task chi,2021.2.3,Win32,60.24096386,,,,,,,
,,,,,,,,5.038889143,3.1454,space,0.1202,0,50,50,19,1,20,image/20.jpg,0,0,,爱购i,2,2024-05-31_01h07.16.194,face trait task chi,2021.2.3,Win32,60.24096386,,,,,,,
,,,,,,,,4.005555471,3.7975,space,0.0983,0,51,51,48,1,49,image/49.jpg,0,0,,爱购i,2,2024-05-31_01h07.16.194,face trait task chi,2021.2.3,Win32,60.24096386,,,,,,,
,,,,,,,,6.588889228,1.5966,space,0.0703,0,52,52,27,1,28,image/28.jpg,0,0,,爱购i,2,2024-05-31_01h07.16.194,face trait task chi,2021.2.3,Win32,60.24096386,,,,,,,
,,,,,,,,,,,,,,,,,,,,,,爱购i,2,2024-05-31_01h07.16.194,face trait task chi,2021.2.3,Win32,60.24096386,0,1,1,1,1,1,competent.png
,,,,,friendly,space,15.0808,2.988889058,2.5906,space,0.2506,0,0,0,17,1,18,image/18.jpg,0,0,,爱购i,2,2024-05-31_01h07.16.194,face trait task chi,2021.2.3,Win32,60.24096386,,,,,,,
,,,,,,,,1.5,2.4932,space,0.1458,0,1,1,27,1,28,image/28.jpg,0,0,,爱购i,2,2024-05-31_01h07.16.194,face trait task chi,2021.2.3,Win32,60.24096386,,,,,,,
,,,,,,,,6.038888719,1.7999,space,0.1093,0,2,2,40,1,41,image/41.jpg,0,0,,爱购i,2,2024-05-31_01h07.16.194,face trait task chi,2021.2.3,Win32,60.24096386,,,,,,,
,,,,,,,,1.183333291,1.6806,space,0.0759,0,3,3,5,1,6,image/6.jpg,0,0,,爱购i,2,2024-05-31_01h07.16.194,face trait task chi,2021.2.3,Win32,60.24096386,,,,,,,
,,,,,,,,1.038888931,1.4276,space,0.3176,0,4,4,0,1,1,image/1.jpg,0,0,,爱购i,2,2024-05-31_01h07.16.194,face trait task chi,2021.2.3,Win32,60.24096386,,,,,,,
,,,,,,,,4.005555471,1.9838,space,0.2509,0,5,5,29,1,30,image/30.jpg,0,0,,爱购i,2,2024-05-31_01h07.16.194,face trait task chi,2021.2.3,Win32,60.24096386,,,,,,,
,,,,,,,,6.488889058,1.4613,space,0.53,0,6,6,48,1,49,image/49.jpg,0,0,,爱购i,2,2024-05-31_01h07.16.194,face trait task chi,2021.2.3,Win32,60.24096386,,,,,,,
,,,,,,,,4.988889058,1.6896,space,0.184,0,7,7,36,1,37,image/37.jpg,0,0,,爱购i,2,2024-05-31_01h07.16.194,face trait task chi,2021.2.3,Win32,60.24096386,,,,,,,
,,,,,,,,6.905555725,1.7283,space,0.1574,0,8,8,2,1,3,image/3.jpg,0,0,,爱购i,2,2024-05-31_01h07.16.194,face trait task chi,2021.2.3,Win32,60.24096386,,,,,,,
,,,,,,,,2.411111196,2.3218,space,0.1675,0,9,9,23,1,24,image/24.jpg,0,0,,爱购i,2,2024-05-31_01h07.16.194,face trait task chi,2021.2.3,Win32,60.24096386,,,,,,,
,,,,,,,,6.005555895,1.7205,space,0.1171,0,10,10,3,1,4,image/4.jpg,0,0,,爱购i,2,2024-05-31_01h07.16.194,face trait task chi,2021.2.3,Win32,60.24096386,,,,,,,
,,,,,,,,1.244444529,1.6795,space,0.0671,0,11,11,16,1,17,image/17.jpg,0,0,,爱购i,2,2024-05-31_01h07.16.194,face trait task chi,2021.2.3,Win32,60.24096386,,,,,,,
,,,,,,,,6.983333164,1.5936,space,0.1592,0,12,12,34,1,35,image/35.jpg,0,0,,爱购i,2,2024-05-31_01h07.16.194,face trait task chi,2021.2.3,Win32,60.24096386,,,,,,,
,,,,,,,,2.45555581,2.4995,space,0.2666,0,13,13,10,1,11,image/11.jpg,0,0,,爱购i,2,2024-05-31_01h07.16.194,face trait task chi,2021.2.3,Win32,60.24096386,,,,,,,
,,,,,,,,1.211111069,1.4933,space,0.0859,0,14,14,42,1,43,image/43.jpg,0,0,,爱购i,2,2024-05-31_01h07.16.194,face trait task chi,2021.2.3,Win32,60.24096386,,,,,,,
,,,,,,,,5.011111365,2.0527,space,0.1173,0,15,15,11,1,12,image/12.jpg,0,0,,爱购i,2,2024-05-31_01h07.16.194,face trait task chi,2021.2.3,Win32,60.24096386,,,,,,,
,,,,,,,,3.011111365,1.8513,space,0.1503,0,16,16,1,1,2,image/2.jpg,0,0,,爱购i,2,2024-05-31_01h07.16.194,face trait task chi,2021.2.3,Win32,60.24096386,,,,,,,
,,,,,,,,7,2.652,space,0.7929,0,17,17,50,1,58,image/fill_img.png,1,7,请将滑块完全移动到<右边>，以示您在专心判断。,爱购i,2,2024-05-31_01h07.16.194,face trait task chi,2021.2.3,Win32,60.24096386,,,,,,,
,,,,,,,,3.977777693,2.9461,space,0.2854,0,18,18,24,1,25,image/25.jpg,0,0,,爱购i,2,2024-05-31_01h07.16.194,face trait task chi,2021.2.3,Win32,60.24096386,,,,,,,
,,,,,,,,2.044444402,1.9067,space,0.0508,0,19,19,37,1,38,image/38.jpg,0,0,,爱购i,2,2024-05-31_01h07.16.194,face trait task chi,2021.2.3,Win32,60.24096386,,,,,,,
,,,,,,,,5.411111196,3.2305,space,0.0745,0,20,20,20,1,21,image/21.jpg,0,0,,爱购i,2,2024-05-31_01h07.16.194,face trait task chi,2021.2.3,Win32,60.24096386,,,,,,,
,,,,,,,,6.605556064,1.3037,space,0.0864,0,21,21,43,1,44,image/44.jpg,0,0,,爱购i,2,2024-05-31_01h07.16.194,face trait task chi,2021.2.3,Win32,60.24096386,,,,,,,
,,,,,,,,1.133333418,1.5026,space,0.6633,0,22,22,21,1,22,image/22.jpg,0,0,,爱购i,2,2024-05-31_01h07.16.194,face trait task chi,2021.2.3,Win32,60.24096386,,,,,,,
,,,,,,,,3.994444529,2.9316,space,0.6085,0,23,23,7,1,8,image/8.jpg,0,0,,爱购i,2,2024-05-31_01h07.16.194,face trait task chi,2021.2.3,Win32,60.24096386,,,,,,,
,,,,,,,,4.011111365,3.2514,space,1.1508,0,24,24,6,1,7,image/7.jpg,0,0,,爱购i,2,2024-05-31_01h07.16.194,face trait task chi,2021.2.3,Win32,60.24096386,,,,,,,
,,,,,,,,5,1.869,space,0.0841,0,25,25,25,1,26,image/26.jpg,0,0,,爱购i,2,2024-05-31_01h07.16.194,face trait task chi,2021.2.3,Win32,60.24096386,,,,,,,
,,,,,,,,1.316666709,1.6295,space,0.2167,0,26,26,14,1,15,image/15.jpg,0,0,,爱购i,2,2024-05-31_01h07.16.194,face trait task chi,2021.2.3,Win32,60.24096386,,,,,,,
,,,,,,,,1.066666709,1.8195,space,0.0434,0,27,27,41,1,42,image/42.jpg,0,0,,爱购i,2,2024-05-31_01h07.16.194,face trait task chi,2021.2.3,Win32,60.24096386,,,,,,,
,,,,,,,,3.022222307,1.9022,space,0.6538,0,28,28,47,1,48,image/48.jpg,0,0,,爱购i,2,2024-05-31_01h07.16.194,face trait task chi,2021.2.3,Win32,60.24096386,,,,,,,
,,,,,,,,5.972222222,1.8199,space,0.0587,0,29,29,4,1,5,image/5.jpg,0,0,,爱购i,2,2024-05-31_01h07.16.194,face trait task chi,2021.2.3,Win32,60.24096386,,,,,,,
,,,,,,,,4.016666836,2.1909,space,0.0978,0,30,30,26,1,27,image/27.jpg,0,0,,爱购i,2,2024-05-31_01h07.16.194,face trait task chi,2021.2.3,Win32,60.24096386,,,,,,,
,,,,,,,,1.03333346,1.5831,space,0.1503,0,31,31,19,1,20,image/20.jpg,0,0,,爱购i,2,2024-05-31_01h07.16.194,face trait task chi,2021.2.3,Win32,60.24096386,,,,,,,
,,,,,,,,1.450000127,1.7099,space,0.1005,0,32,32,45,1,46,image/46.jpg,0,0,,爱购i,2,2024-05-31_01h07.16.194,face trait task chi,2021.2.3,Win32,60.24096386,,,,,,,
,,,,,,,,5.561111026,1.5649,space,0.1447,0,33,33,44,1,45,image/45.jpg,0,0,,爱购i,2,2024-05-31_01h07.16.194,face trait task chi,2021.2.3,Win32,60.24096386,,,,,,,
,,,,,,,,4.994444529,1.7964,space,0.0673,0,34,34,22,1,23,image/23.jpg,0,0,,爱购i,2,2024-05-31_01h07.16.194,face trait task chi,2021.2.3,Win32,60.24096386,,,,,,,
,,,,,,,,1,3.4416,space,0.7579,0,35,35,51,1,54,image/fill_img.png,1,1,请将滑块完全移动到<左边>，以示您在专心判断。,爱购i,2,2024-05-31_01h07.16.194,face trait task chi,2021.2.3,Win32,60.24096386,,,,,,,
,,,,,,,,2.005555683,1.68,space,0.0838,0,36,36,39,1,40,image/40.jpg,0,0,,爱购i,2,2024-05-31_01h07.16.194,face trait task chi,2021.2.3,Win32,60.24096386,,,,,,,
,,,,,,,,4.994444529,1.991,space,0.0489,0,37,37,46,1,47,image/47.jpg,0,0,,爱购i,2,2024-05-31_01h07.16.194,face trait task chi,2021.2.3,Win32,60.24096386,,,,,,,
,,,,,,,,4.011111365,2.1098,space,0.2213,0,38,38,33,1,34,image/34.jpg,0,0,,爱购i,2,2024-05-31_01h07.16.194,face trait task chi,2021.2.3,Win32,60.24096386,,,,,,,
,,,,,,,,1.044444402,1.6239,space,0.2004,0,39,39,8,1,9,image/9.jpg,0,0,,爱购i,2,2024-05-31_01h07.16.194,face trait task chi,2021.2.3,Win32,60.24096386,,,,,,,
,,,,,,,,2.005555683,2.6857,space,0.0363,0,40,40,38,1,39,image/39.jpg,0,0,,爱购i,2,2024-05-31_01h07.16.194,face trait task chi,2021.2.3,Win32,60.24096386,,,,,,,
,,,,,,,,1.294444402,1.6274,space,0.0412,0,41,41,12,1,13,image/13.jpg,0,0,,爱购i,2,2024-05-31_01h07.16.194,face trait task chi,2021.2.3,Win32,60.24096386,,,,,,,
,,,,,,,,1.088889016,2.464,space,0.0693,0,42,42,28,1,29,image/29.jpg,0,0,,爱购i,2,2024-05-31_01h07.16.194,face trait task chi,2021.2.3,Win32,60.24096386,,,,,,,
,,,,,,,,4.527777778,2.5947,space,0.1283,0,43,43,32,1,33,image/33.jpg,0,0,,爱购i,2,2024-05-31_01h07.16.194,face trait task chi,2021.2.3,Win32,60.24096386,,,,,,,
,,,,,,,,2.461111281,1.53,space,0.0505,0,44,44,30,1,31,image/31.jpg,0,0,,爱购i,2,2024-05-31_01h07.16.194,face trait task chi,2021.2.3,Win32,60.24096386,,,,,,,
,,,,,,,,1.655555513,1.9332,space,0.063,0,45,45,9,1,10,image/10.jpg,0,0,,爱购i,2,2024-05-31_01h07.16.194,face trait task chi,2021.2.3,Win32,60.24096386,,,,,,,
,,,,,,,,6.027777778,1.3211,space,0.1673,0,46,46,49,1,50,image/50.jpg,0,0,,爱购i,2,2024-05-31_01h07.16.194,face trait task chi,2021.2.3,Win32,60.24096386,,,,,,,
,,,,,,,,2.038888931,1.6529,space,0.3239,0,47,47,15,1,16,image/16.jpg,0,0,,爱购i,2,2024-05-31_01h07.16.194,face trait task chi,2021.2.3,Win32,60.24096386,,,,,,,
,,,,,,,,6.511110942,1.4954,space,0.0905,0,48,48,31,1,32,image/32.jpg,0,0,,爱购i,2,2024-05-31_01h07.16.194,face trait task chi,2021.2.3,Win32,60.24096386,,,,,,,
,,,,,,,,1.305555556,1.5286,space,0.1634,0,49,49,13,1,14,image/14.jpg,0,0,,爱购i,2,2024-05-31_01h07.16.194,face trait task chi,2021.2.3,Win32,60.24096386,,,,,,,
,,,,,,,,4.005555471,2.3298,space,0.1941,0,50,50,35,1,36,image/36.jpg,0,0,,爱购i,2,2024-05-31_01h07.16.194,face trait task chi,2021.2.3,Win32,60.24096386,,,,,,,
,,,,,,,,1,2.6192,space,0.55,0,51,51,52,1,55,image/fill_img.png,1,1,请将滑块完全移动到<左边>，以示您在专心判断。,爱购i,2,2024-05-31_01h07.16.194,face trait task chi,2021.2.3,Win32,60.24096386,,,,,,,
,,,,,,,,1.066666709,1.6498,space,0.1338,0,52,52,18,1,19,image/19.jpg,0,0,,爱购i,2,2024-05-31_01h07.16.194,face trait task chi,2021.2.3,Win32,60.24096386,,,,,,,
,,,,,,,,,,,,,,,,,,,,,,爱购i,2,2024-05-31_01h07.16.194,face trait task chi,2021.2.3,Win32,60.24096386,0,2,2,3,1,3,friendly.png
,,,,,trustworthy,space,10.1014,4,2.7473,space,0.2619,0,0,0,23,1,24,image/24.jpg,0,0,,爱购i,2,2024-05-31_01h07.16.194,face trait task chi,2021.2.3,Win32,60.24096386,,,,,,,
,,,,,,,,1.422222349,1.7858,space,0.2669,0,1,1,13,1,14,image/14.jpg,0,0,,爱购i,2,2024-05-31_01h07.16.194,face trait task chi,2021.2.3,Win32,60.24096386,,,,,,,
,,,,,,,,5.566666921,2.286,space,0.1373,0,2,2,10,1,11,image/11.jpg,0,0,,爱购i,2,2024-05-31_01h07.16.194,face trait task chi,2021.2.3,Win32,60.24096386,,,,,,,
,,,,,,,,6.033333672,1.8231,space,0.1504,0,3,3,27,1,28,image/28.jpg,0,0,,爱购i,2,2024-05-31_01h07.16.194,face trait task chi,2021.2.3,Win32,60.24096386,,,,,,,
,,,,,,,,2.661111196,2.6815,space,0.0838,0,4,4,19,1,20,image/20.jpg,0,0,,爱购i,2,2024-05-31_01h07.16.194,face trait task chi,2021.2.3,Win32,60.24096386,,,,,,,
,,,,,,,,6.988889058,1.3524,space,0.4183,0,5,5,45,1,46,image/46.jpg,0,0,,爱购i,2,2024-05-31_01h07.16.194,face trait task chi,2021.2.3,Win32,60.24096386,,,,,,,
,,,,,,,,5.005555471,1.6262,space,0.1364,0,6,6,36,1,37,image/37.jpg,0,0,,爱购i,2,2024-05-31_01h07.16.194,face trait task chi,2021.2.3,Win32,60.24096386,,,,,,,
,,,,,,,,3.672222137,2.8747,space,0.1686,0,7,7,17,1,18,image/18.jpg,0,0,,爱购i,2,2024-05-31_01h07.16.194,face trait task chi,2021.2.3,Win32,60.24096386,,,,,,,
,,,,,,,,2.055555556,1.9497,space,0.2809,0,8,8,1,1,2,image/2.jpg,0,0,,爱购i,2,2024-05-31_01h07.16.194,face trait task chi,2021.2.3,Win32,60.24096386,,,,,,,
,,,,,,,,1.027777778,1.5539,space,0.1,0,9,9,15,1,16,image/16.jpg,0,0,,爱购i,2,2024-05-31_01h07.16.194,face trait task chi,2021.2.3,Win32,60.24096386,,,,,,,
,,,,,,,,4.300000085,2.2967,space,0.459,0,10,10,6,1,7,image/7.jpg,0,0,,爱购i,2,2024-05-31_01h07.16.194,face trait task chi,2021.2.3,Win32,60.24096386,,,,,,,
,,,,,,,,1.394444572,1.5857,space,0.0554,0,11,11,24,1,25,image/25.jpg,0,0,,爱购i,2,2024-05-31_01h07.16.194,face trait task chi,2021.2.3,Win32,60.24096386,,,,,,,
,,,,,,,,6.461111281,1.6894,space,0.0831,0,12,12,34,1,35,image/35.jpg,0,0,,爱购i,2,2024-05-31_01h07.16.194,face trait task chi,2021.2.3,Win32,60.24096386,,,,,,,
,,,,,,,,1.077777863,1.3807,space,0.1848,0,13,13,14,1,15,image/15.jpg,0,0,,爱购i,2,2024-05-31_01h07.16.194,face trait task chi,2021.2.3,Win32,60.24096386,,,,,,,
,,,,,,,,3.088888804,3.7175,space,0.8333,0,14,14,30,1,31,image/31.jpg,0,0,,爱购i,2,2024-05-31_01h07.16.194,face trait task chi,2021.2.3,Win32,60.24096386,,,,,,,
,,,,,,,,1.133333418,1.9193,space,0.0724,0,15,15,2,1,3,image/3.jpg,0,0,,爱购i,2,2024-05-31_01h07.16.194,face trait task chi,2021.2.3,Win32,60.24096386,,,,,,,
,,,,,,,,6.055555556,1.5623,space,0.1341,0,16,16,35,1,36,image/36.jpg,0,0,,爱购i,2,2024-05-31_01h07.16.194,face trait task chi,2021.2.3,Win32,60.24096386,,,,,,,
,,,,,,,,5.305555556,1.9864,space,0.5027,0,17,17,43,1,44,image/44.jpg,0,0,,爱购i,2,2024-05-31_01h07.16.194,face trait task chi,2021.2.3,Win32,60.24096386,,,,,,,
,,,,,,,,5.027777778,2.0179,space,0.0838,0,18,18,5,1,6,image/6.jpg,0,0,,爱购i,2,2024-05-31_01h07.16.194,face trait task chi,2021.2.3,Win32,60.24096386,,,,,,,
,,,,,,,,6,2.0089,space,0.1003,0,19,19,31,1,32,image/32.jpg,0,0,,爱购i,2,2024-05-31_01h07.16.194,face trait task chi,2021.2.3,Win32,60.24096386,,,,,,,
,,,,,,,,5.022222307,2.0901,space,0.0503,0,20,20,7,1,8,image/8.jpg,0,0,,爱购i,2,2024-05-31_01h07.16.194,face trait task chi,2021.2.3,Win32,60.24096386,,,,,,,
,,,,,,,,4,3.0929,space,0.5252,0,21,21,11,1,12,image/12.jpg,0,0,,爱购i,2,2024-05-31_01h07.16.194,face trait task chi,2021.2.3,Win32,60.24096386,,,,,,,
,,,,,,,,1,2.6237,space,0.7067,0,22,22,51,1,54,image/fill_img.png,1,1,请将滑块完全移动到<左边>，以示您在专心判断。,爱购i,2,2024-05-31_01h07.16.194,face trait task chi,2021.2.3,Win32,60.24096386,,,,,,,
,,,,,,,,6.638888889,1.6335,space,0.1094,0,23,23,41,1,42,image/42.jpg,0,0,,爱购i,2,2024-05-31_01h07.16.194,face trait task chi,2021.2.3,Win32,60.24096386,,,,,,,
,,,,,,,,4.95555581,2.0212,space,0.0675,0,24,24,37,1,38,image/38.jpg,0,0,,爱购i,2,2024-05-31_01h07.16.194,face trait task chi,2021.2.3,Win32,60.24096386,,,,,,,
,,,,,,,,4.016666836,2.9173,space,0.8115,0,25,25,28,1,29,image/29.jpg,0,0,,爱购i,2,2024-05-31_01h07.16.194,face trait task chi,2021.2.3,Win32,60.24096386,,,,,,,
,,,,,,,,5.699999915,1.9028,space,0.0006,0,26,26,21,1,22,image/22.jpg,0,0,,爱购i,2,2024-05-31_01h07.16.194,face trait task chi,2021.2.3,Win32,60.24096386,,,,,,,
,,,,,,,,1.477777905,2.1469,space,0.1176,0,27,27,12,1,13,image/13.jpg,0,0,,爱购i,2,2024-05-31_01h07.16.194,face trait task chi,2021.2.3,Win32,60.24096386,,,,,,,
,,,,,,,,5,2.519,space,0.3355,0,28,28,47,1,48,image/48.jpg,0,0,,爱购i,2,2024-05-31_01h07.16.194,face trait task chi,2021.2.3,Win32,60.24096386,,,,,,,
,,,,,,,,6.977778117,1.3543,space,0.4167,0,29,29,38,1,39,image/39.jpg,0,0,,爱购i,2,2024-05-31_01h07.16.194,face trait task chi,2021.2.3,Win32,60.24096386,,,,,,,
,,,,,,,,6.994444953,1.7531,space,0.3379,0,30,30,33,1,34,image/34.jpg,0,0,,爱购i,2,2024-05-31_01h07.16.194,face trait task chi,2021.2.3,Win32,60.24096386,,,,,,,
,,,,,,,,4.972222222,1.7814,space,0.1504,0,31,31,48,1,49,image/49.jpg,0,0,,爱购i,2,2024-05-31_01h07.16.194,face trait task chi,2021.2.3,Win32,60.24096386,,,,,,,
,,,,,,,,5.483333588,1.7075,space,0.3538,0,32,32,22,1,23,image/23.jpg,0,0,,爱购i,2,2024-05-31_01h07.16.194,face trait task chi,2021.2.3,Win32,60.24096386,,,,,,,
,,,,,,,,7,2.6914,space,0.9171,0,33,33,50,1,58,image/fill_img.png,1,7,请将滑块完全移动到<右边>，以示您在专心判断。,爱购i,2,2024-05-31_01h07.16.194,face trait task chi,2021.2.3,Win32,60.24096386,,,,,,,
,,,,,,,,2.188888974,2.1801,space,0.6671,0,34,34,46,1,47,image/47.jpg,0,0,,爱购i,2,2024-05-31_01h07.16.194,face trait task chi,2021.2.3,Win32,60.24096386,,,,,,,
,,,,,,,,6.605556064,2.8189,space,0.0912,0,35,35,25,1,26,image/26.jpg,0,0,,爱购i,2,2024-05-31_01h07.16.194,face trait task chi,2021.2.3,Win32,60.24096386,,,,,,,
,,,,,,,,6.111111111,1.589,space,0.1699,0,36,36,26,1,27,image/27.jpg,0,0,,爱购i,2,2024-05-31_01h07.16.194,face trait task chi,2021.2.3,Win32,60.24096386,,,,,,,
,,,,,,,,1.127777735,1.7418,space,0.304,0,37,37,0,1,1,image/1.jpg,0,0,,爱购i,2,2024-05-31_01h07.16.194,face trait task chi,2021.2.3,Win32,60.24096386,,,,,,,
,,,,,,,,1,2.2852,space,0.8091,0,38,38,52,1,55,image/fill_img.png,1,1,请将滑块完全移动到<左边>，以示您在专心判断。,爱购i,2,2024-05-31_01h07.16.194,face trait task chi,2021.2.3,Win32,60.24096386,,,,,,,
,,,,,,,,1.055555556,1.5797,space,0.1725,0,39,39,32,1,33,image/33.jpg,0,0,,爱购i,2,2024-05-31_01h07.16.194,face trait task chi,2021.2.3,Win32,60.24096386,,,,,,,
,,,,,,,,1.977777905,2.0197,space,0.1172,0,40,40,49,1,50,image/50.jpg,0,0,,爱购i,2,2024-05-31_01h07.16.194,face trait task chi,2021.2.3,Win32,60.24096386,,,,,,,
,,,,,,,,1.133333418,1.4141,space,0.1171,0,41,41,16,1,17,image/17.jpg,0,0,,爱购i,2,2024-05-31_01h07.16.194,face trait task chi,2021.2.3,Win32,60.24096386,,,,,,,
,,,,,,,,1.966666751,3.0163,space,0.1,0,42,42,29,1,30,image/30.jpg,0,0,,爱购i,2,2024-05-31_01h07.16.194,face trait task chi,2021.2.3,Win32,60.24096386,,,,,,,
,,,,,,,,3.988889058,1.9878,space,0.1752,0,43,43,20,1,21,image/21.jpg,0,0,,爱购i,2,2024-05-31_01h07.16.194,face trait task chi,2021.2.3,Win32,60.24096386,,,,,,,
,,,,,,,,6.983333164,2.4022,space,0.3213,0,44,44,39,1,40,image/40.jpg,0,0,,爱购i,2,2024-05-31_01h07.16.194,face trait task chi,2021.2.3,Win32,60.24096386,,,,,,,
,,,,,,,,5,1.5306,space,0.0846,0,45,45,4,1,5,image/5.jpg,0,0,,爱购i,2,2024-05-31_01h07.16.194,face trait task chi,2021.2.3,Win32,60.24096386,,,,,,,
,,,,,,,,1.627777735,2.4323,space,0.1363,0,46,46,9,1,10,image/10.jpg,0,0,,爱购i,2,2024-05-31_01h07.16.194,face trait task chi,2021.2.3,Win32,60.24096386,,,,,,,
,,,,,,,,4.95555581,2.6838,space,0.1853,0,47,47,40,1,41,image/41.jpg,0,0,,爱购i,2,2024-05-31_01h07.16.194,face trait task chi,2021.2.3,Win32,60.24096386,,,,,,,
,,,,,,,,1.155555513,2.1859,space,0.1572,0,48,48,8,1,9,image/9.jpg,0,0,,爱购i,2,2024-05-31_01h07.16.194,face trait task chi,2021.2.3,Win32,60.24096386,,,,,,,
,,,,,,,,1.111111111,1.8575,space,0.1396,0,49,49,42,1,43,image/43.jpg,0,0,,爱购i,2,2024-05-31_01h07.16.194,face trait task chi,2021.2.3,Win32,60.24096386,,,,,,,
,,,,,,,,5.022222307,2.1107,space,0.0618,0,50,50,18,1,19,image/19.jpg,0,0,,爱购i,2,2024-05-31_01h07.16.194,face trait task chi,2021.2.3,Win32,60.24096386,,,,,,,
,,,,,,,,5.994444953,1.269,space,0.0272,0,51,51,44,1,45,image/45.jpg,0,0,,爱购i,2,2024-05-31_01h07.16.194,face trait task chi,2021.2.3,Win32,60.24096386,,,,,,,
,,,,,,,,6.055555556,2.7007,space,0.1896,0,52,52,3,1,4,image/4.jpg,0,0,,爱购i,2,2024-05-31_01h07.16.194,face trait task chi,2021.2.3,Win32,60.24096386,,,,,,,
,,,,,,,,,,,,,,,,,,,,,,爱购i,2,2024-05-31_01h07.16.194,face trait task chi,2021.2.3,Win32,60.24096386,0,3,3,2,1,2,trustworthy.png