﻿choose_trial,key_resp.keys,key_resp.rt,key_resp_4.keys,key_resp_4.rt,session_trait,key_resp_5.keys,key_resp_5.rt,slider_face_judge.response,slider_face_judge.rt,key_resp_3.keys,key_resp_3.rt,face_loop.thisRepN,face_loop.thisTrialN,face_loop.thisN,face_loop.thisIndex,face_loop.ran,face_serial,image_name,isCheck,answer,check_question,participant,session,date,expName,psychopyVersion,OS,frameRate,session.thisRepN,session.thisTrialN,session.thisN,session.thisIndex,session.ran,session_serial,slider_judge_img
"[0,1,2,3,4,5,6,7,8,9,10,11,12,13,14,15,16,17,18,19,20,21,22,23,24,25,26,27,28,29,30,31,32,33,34,35,36,37,38,39,40,41,42,43,44,45,46,47,48,49,54,53,60]",space,7.6007,space,14.7522,critical,space,7.4878,2.005555725,2.9025,space,0.7332,0,0,0,6,1,7,image/7.jpg,0,0,,土豆洋芋薯片,2,2024-05-31_04h30.18.688,face trait task chi,2021.2.3,Win32,59.95922773,,,,,,,
,,,,,,,,3.96111145,2.3015,space,0.6513,0,1,1,20,1,21,image/21.jpg,0,0,,土豆洋芋薯片,2,2024-05-31_04h30.18.688,face trait task chi,2021.2.3,Win32,59.95922773,,,,,,,
,,,,,,,,5.005555725,2.6486,space,0.4174,0,2,2,23,1,24,image/24.jpg,0,0,,土豆洋芋薯片,2,2024-05-31_04h30.18.688,face trait task chi,2021.2.3,Win32,59.95922773,,,,,,,
,,,,,,,,3.022222392,2.556,space,0.5512,0,3,3,4,1,5,image/5.jpg,0,0,,土豆洋芋薯片,2,2024-05-31_04h30.18.688,face trait task chi,2021.2.3,Win32,59.95922773,,,,,,,
,,,,,,,,2.972222392,1.737,space,0.376,0,4,4,34,1,35,image/35.jpg,0,0,,土豆洋芋薯片,2,2024-05-31_04h30.18.688,face trait task chi,2021.2.3,Win32,59.95922773,,,,,,,
,,,,,,,,5.01111145,3.0505,space,0.3841,0,5,5,38,1,39,image/39.jpg,0,0,,土豆洋芋薯片,2,2024-05-31_04h30.18.688,face trait task chi,2021.2.3,Win32,59.95922773,,,,,,,
,,,,,,,,4.01111145,1.6987,space,0.7666,0,6,6,5,1,6,image/6.jpg,0,0,,土豆洋芋薯片,2,2024-05-31_04h30.18.688,face trait task chi,2021.2.3,Win32,59.95922773,,,,,,,
,,,,,,,,2.977778117,1.916,space,0.4011,0,7,7,42,1,43,image/43.jpg,0,0,,土豆洋芋薯片,2,2024-05-31_04h30.18.688,face trait task chi,2021.2.3,Win32,59.95922773,,,,,,,
,,,,,,,,5.977778117,2.5665,space,0.3852,0,8,8,16,1,17,image/17.jpg,0,0,,土豆洋芋薯片,2,2024-05-31_04h30.18.688,face trait task chi,2021.2.3,Win32,59.95922773,,,,,,,
,,,,,,,,1.016666667,8.6539,space,1.4173,0,9,9,50,1,55,image/fill_img.png,1,1,请将滑块完全移动到<左边>，以示您在专心判断。,土豆洋芋薯片,2,2024-05-31_04h30.18.688,face trait task chi,2021.2.3,Win32,59.95922773,,,,,,,
,,,,,,,,4,3.0483,space,0.4827,0,10,10,13,1,14,image/14.jpg,0,0,,土豆洋芋薯片,2,2024-05-31_04h30.18.688,face trait task chi,2021.2.3,Win32,59.95922773,,,,,,,
,,,,,,,,2.033333333,1.6987,space,0.3516,0,11,11,2,1,3,image/3.jpg,0,0,,土豆洋芋薯片,2,2024-05-31_04h30.18.688,face trait task chi,2021.2.3,Win32,59.95922773,,,,,,,
,,,,,,,,5.027778117,1.8515,space,0.3676,0,12,12,14,1,15,image/15.jpg,0,0,,土豆洋芋薯片,2,2024-05-31_04h30.18.688,face trait task chi,2021.2.3,Win32,59.95922773,,,,,,,
,,,,,,,,1.994444529,2.815,space,1.2252,0,13,13,33,1,34,image/34.jpg,0,0,,土豆洋芋薯片,2,2024-05-31_04h30.18.688,face trait task chi,2021.2.3,Win32,59.95922773,,,,,,,
,,,,,,,,6.016666667,1.832,space,0.5682,0,14,14,21,1,22,image/22.jpg,0,0,,土豆洋芋薯片,2,2024-05-31_04h30.18.688,face trait task chi,2021.2.3,Win32,59.95922773,,,,,,,
,,,,,,,,4.016666667,1.7154,space,0.5513,0,15,15,22,1,23,image/23.jpg,0,0,,土豆洋芋薯片,2,2024-05-31_04h30.18.688,face trait task chi,2021.2.3,Win32,59.95922773,,,,,,,
,,,,,,,,4.977778117,1.9555,space,0.4223,0,16,16,10,1,11,image/11.jpg,0,0,,土豆洋芋薯片,2,2024-05-31_04h30.18.688,face trait task chi,2021.2.3,Win32,59.95922773,,,,,,,
,,,,,,,,4.972222392,1.5505,space,0.2883,0,17,17,17,1,18,image/18.jpg,0,0,,土豆洋芋薯片,2,2024-05-31_04h30.18.688,face trait task chi,2021.2.3,Win32,59.95922773,,,,,,,
,,,,,,,,3.977778117,1.7394,space,0.3331,0,18,18,43,1,44,image/44.jpg,0,0,,土豆洋芋薯片,2,2024-05-31_04h30.18.688,face trait task chi,2021.2.3,Win32,59.95922773,,,,,,,
,,,,,,,,4.988889058,2.2735,space,0.9506,0,19,19,8,1,9,image/9.jpg,0,0,,土豆洋芋薯片,2,2024-05-31_04h30.18.688,face trait task chi,2021.2.3,Win32,59.95922773,,,,,,,
,,,,,,,,2.977778117,3.222,space,0.2961,0,20,20,45,1,46,image/46.jpg,0,0,,土豆洋芋薯片,2,2024-05-31_04h30.18.688,face trait task chi,2021.2.3,Win32,59.95922773,,,,,,,
,,,,,,,,2.016666667,1.8611,space,0.5508,0,21,21,36,1,37,image/37.jpg,0,0,,土豆洋芋薯片,2,2024-05-31_04h30.18.688,face trait task chi,2021.2.3,Win32,59.95922773,,,,,,,
,,,,,,,,4.96111145,2.034,space,0.4148,0,22,22,12,1,13,image/13.jpg,0,0,,土豆洋芋薯片,2,2024-05-31_04h30.18.688,face trait task chi,2021.2.3,Win32,59.95922773,,,,,,,
,,,,,,,,5.994444784,2.2427,space,0.5876,0,23,23,9,1,10,image/10.jpg,0,0,,土豆洋芋薯片,2,2024-05-31_04h30.18.688,face trait task chi,2021.2.3,Win32,59.95922773,,,,,,,
,,,,,,,,3.983333333,1.7177,space,0.1673,0,24,24,47,1,48,image/48.jpg,0,0,,土豆洋芋薯片,2,2024-05-31_04h30.18.688,face trait task chi,2021.2.3,Win32,59.95922773,,,,,,,
,,,,,,,,7,3.7477,space,2.5504,0,25,25,52,1,61,image/fill_img.png,1,7,请将滑块完全移动到<右边>，以示您在专心判断。,土豆洋芋薯片,2,2024-05-31_04h30.18.688,face trait task chi,2021.2.3,Win32,59.95922773,,,,,,,
,,,,,,,,3.977778117,4.2297,space,1.0015,0,26,26,19,1,20,image/20.jpg,0,0,,土豆洋芋薯片,2,2024-05-31_04h30.18.688,face trait task chi,2021.2.3,Win32,59.95922773,,,,,,,
,,,,,,,,2.983333333,1.486,space,0.3673,0,27,27,39,1,40,image/40.jpg,0,0,,土豆洋芋薯片,2,2024-05-31_04h30.18.688,face trait task chi,2021.2.3,Win32,59.95922773,,,,,,,
,,,,,,,,2.983333333,2.3033,space,0.3859,0,28,28,15,1,16,image/16.jpg,0,0,,土豆洋芋薯片,2,2024-05-31_04h30.18.688,face trait task chi,2021.2.3,Win32,59.95922773,,,,,,,
,,,,,,,,2.016666667,1.9242,space,0.5512,0,29,29,30,1,31,image/31.jpg,0,0,,土豆洋芋薯片,2,2024-05-31_04h30.18.688,face trait task chi,2021.2.3,Win32,59.95922773,,,,,,,
,,,,,,,,5.022222392,4.0331,space,0.2484,0,30,30,32,1,33,image/33.jpg,0,0,,土豆洋芋薯片,2,2024-05-31_04h30.18.688,face trait task chi,2021.2.3,Win32,59.95922773,,,,,,,
,,,,,,,,3.016666667,2.0686,space,0.3798,0,31,31,48,1,49,image/49.jpg,0,0,,土豆洋芋薯片,2,2024-05-31_04h30.18.688,face trait task chi,2021.2.3,Win32,59.95922773,,,,,,,
,,,,,,,,3.994444784,2.8299,space,0.3856,0,32,32,26,1,27,image/27.jpg,0,0,,土豆洋芋薯片,2,2024-05-31_04h30.18.688,face trait task chi,2021.2.3,Win32,59.95922773,,,,,,,
,,,,,,,,3,1.7347,space,0.2506,0,33,33,11,1,12,image/12.jpg,0,0,,土豆洋芋薯片,2,2024-05-31_04h30.18.688,face trait task chi,2021.2.3,Win32,59.95922773,,,,,,,
,,,,,,,,3.983333333,1.8347,space,0.2558,0,34,34,27,1,28,image/28.jpg,0,0,,土豆洋芋薯片,2,2024-05-31_04h30.18.688,face trait task chi,2021.2.3,Win32,59.95922773,,,,,,,
,,,,,,,,2.96111145,2.326,space,0.6525,0,35,35,28,1,29,image/29.jpg,0,0,,土豆洋芋薯片,2,2024-05-31_04h30.18.688,face trait task chi,2021.2.3,Win32,59.95922773,,,,,,,
,,,,,,,,2.988889058,2.2532,space,0.9173,0,36,36,41,1,42,image/42.jpg,0,0,,土豆洋芋薯片,2,2024-05-31_04h30.18.688,face trait task chi,2021.2.3,Win32,59.95922773,,,,,,,
,,,,,,,,2.977778117,2.2661,space,0.4499,0,37,37,24,1,25,image/25.jpg,0,0,,土豆洋芋薯片,2,2024-05-31_04h30.18.688,face trait task chi,2021.2.3,Win32,59.95922773,,,,,,,
,,,,,,,,4.01111145,2.0191,space,0.3174,0,38,38,37,1,38,image/38.jpg,0,0,,土豆洋芋薯片,2,2024-05-31_04h30.18.688,face trait task chi,2021.2.3,Win32,59.95922773,,,,,,,
,,,,,,,,5.005555725,2.7868,space,0.3339,0,39,39,18,1,19,image/19.jpg,0,0,,土豆洋芋薯片,2,2024-05-31_04h30.18.688,face trait task chi,2021.2.3,Win32,59.95922773,,,,,,,
,,,,,,,,3.983333333,2.0236,space,0.2462,0,40,40,7,1,8,image/8.jpg,0,0,,土豆洋芋薯片,2,2024-05-31_04h30.18.688,face trait task chi,2021.2.3,Win32,59.95922773,,,,,,,
,,,,,,,,4.972222392,3.2028,space,0.3819,0,41,41,49,1,50,image/50.jpg,0,0,,土豆洋芋薯片,2,2024-05-31_04h30.18.688,face trait task chi,2021.2.3,Win32,59.95922773,,,,,,,
,,,,,,,,5.988889058,1.6219,space,0.31,0,42,42,31,1,32,image/32.jpg,0,0,,土豆洋芋薯片,2,2024-05-31_04h30.18.688,face trait task chi,2021.2.3,Win32,59.95922773,,,,,,,
,,,,,,,,6.01111145,2.6917,space,1.4015,0,43,43,25,1,26,image/26.jpg,0,0,,土豆洋芋薯片,2,2024-05-31_04h30.18.688,face trait task chi,2021.2.3,Win32,59.95922773,,,,,,,
,,,,,,,,4.994444784,2.9569,space,0.3479,0,44,44,40,1,41,image/41.jpg,0,0,,土豆洋芋薯片,2,2024-05-31_04h30.18.688,face trait task chi,2021.2.3,Win32,59.95922773,,,,,,,
,,,,,,,,2.977778117,1.6404,space,0.3431,0,45,45,35,1,36,image/36.jpg,0,0,,土豆洋芋薯片,2,2024-05-31_04h30.18.688,face trait task chi,2021.2.3,Win32,59.95922773,,,,,,,
,,,,,,,,3.01111145,2.5356,space,0.3841,0,46,46,29,1,30,image/30.jpg,0,0,,土豆洋芋薯片,2,2024-05-31_04h30.18.688,face trait task chi,2021.2.3,Win32,59.95922773,,,,,,,
,,,,,,,,2.977778117,2.2563,space,0.2882,0,47,47,46,1,47,image/47.jpg,0,0,,土豆洋芋薯片,2,2024-05-31_04h30.18.688,face trait task chi,2021.2.3,Win32,59.95922773,,,,,,,
,,,,,,,,3.977778117,1.8018,space,0.3328,0,48,48,0,1,1,image/1.jpg,0,0,,土豆洋芋薯片,2,2024-05-31_04h30.18.688,face trait task chi,2021.2.3,Win32,59.95922773,,,,,,,
,,,,,,,,2.955555725,2.2769,space,0.633,0,49,49,44,1,45,image/45.jpg,0,0,,土豆洋芋薯片,2,2024-05-31_04h30.18.688,face trait task chi,2021.2.3,Win32,59.95922773,,,,,,,
,,,,,,,,1,3.6815,space,2.0942,0,50,50,51,1,54,image/fill_img.png,1,1,请将滑块完全移动到<左边>，以示您在专心判断。,土豆洋芋薯片,2,2024-05-31_04h30.18.688,face trait task chi,2021.2.3,Win32,59.95922773,,,,,,,
,,,,,,,,3.977778117,1.6951,space,0.3349,0,51,51,3,1,4,image/4.jpg,0,0,,土豆洋芋薯片,2,2024-05-31_04h30.18.688,face trait task chi,2021.2.3,Win32,59.95922773,,,,,,,
,,,,,,,,5.01111145,1.9137,space,0.3004,0,52,52,1,1,2,image/2.jpg,0,0,,土豆洋芋薯片,2,2024-05-31_04h30.18.688,face trait task chi,2021.2.3,Win32,59.95922773,,,,,,,
,,,,,,,,,,,,,,,,,,,,,,土豆洋芋薯片,2,2024-05-31_04h30.18.688,face trait task chi,2021.2.3,Win32,59.95922773,0,0,0,0,1,0,critical.png
,,,,,competent,space,8.6612,5.033333333,2.7124,space,0.6765,0,0,0,26,1,27,image/27.jpg,0,0,,土豆洋芋薯片,2,2024-05-31_04h30.18.688,face trait task chi,2021.2.3,Win32,59.95922773,,,,,,,
,,,,,,,,3.027778117,2.7932,space,0.367,0,1,1,37,1,38,image/38.jpg,0,0,,土豆洋芋薯片,2,2024-05-31_04h30.18.688,face trait task chi,2021.2.3,Win32,59.95922773,,,,,,,
,,,,,,,,3.988889058,1.8377,space,0.4343,0,2,2,22,1,23,image/23.jpg,0,0,,土豆洋芋薯片,2,2024-05-31_04h30.18.688,face trait task chi,2021.2.3,Win32,59.95922773,,,,,,,
,,,,,,,,3,1.6407,space,0.401,0,3,3,7,1,8,image/8.jpg,0,0,,土豆洋芋薯片,2,2024-05-31_04h30.18.688,face trait task chi,2021.2.3,Win32,59.95922773,,,,,,,
,,,,,,,,5.016666667,1.68,space,0.4353,0,4,4,45,1,46,image/46.jpg,0,0,,土豆洋芋薯片,2,2024-05-31_04h30.18.688,face trait task chi,2021.2.3,Win32,59.95922773,,,,,,,
,,,,,,,,5.977778117,1.7327,space,0.3249,0,5,5,27,1,28,image/28.jpg,0,0,,土豆洋芋薯片,2,2024-05-31_04h30.18.688,face trait task chi,2021.2.3,Win32,59.95922773,,,,,,,
,,,,,,,,3.983333333,1.7993,space,0.2686,0,6,6,19,1,20,image/20.jpg,0,0,,土豆洋芋薯片,2,2024-05-31_04h30.18.688,face trait task chi,2021.2.3,Win32,59.95922773,,,,,,,
,,,,,,,,5.005555725,2.3315,space,1.184,0,7,7,30,1,31,image/31.jpg,0,0,,土豆洋芋薯片,2,2024-05-31_04h30.18.688,face trait task chi,2021.2.3,Win32,59.95922773,,,,,,,
,,,,,,,,6.01111145,1.6373,space,0.3707,0,8,8,25,1,26,image/26.jpg,0,0,,土豆洋芋薯片,2,2024-05-31_04h30.18.688,face trait task chi,2021.2.3,Win32,59.95922773,,,,,,,
,,,,,,,,2.994444784,1.8561,space,0.2699,0,9,9,2,1,3,image/3.jpg,0,0,,土豆洋芋薯片,2,2024-05-31_04h30.18.688,face trait task chi,2021.2.3,Win32,59.95922773,,,,,,,
,,,,,,,,2.994444784,1.3228,space,0.5251,0,10,10,23,1,24,image/24.jpg,0,0,,土豆洋芋薯片,2,2024-05-31_04h30.18.688,face trait task chi,2021.2.3,Win32,59.95922773,,,,,,,
,,,,,,,,4.955555725,2.0154,space,0.3258,0,11,11,5,1,6,image/6.jpg,0,0,,土豆洋芋薯片,2,2024-05-31_04h30.18.688,face trait task chi,2021.2.3,Win32,59.95922773,,,,,,,
,,,,,,,,2.977778117,2.3516,space,0.2334,0,12,12,10,1,11,image/11.jpg,0,0,,土豆洋芋薯片,2,2024-05-31_04h30.18.688,face trait task chi,2021.2.3,Win32,59.95922773,,,,,,,
,,,,,,,,5.977778117,2.0456,space,0.426,0,13,13,34,1,35,image/35.jpg,0,0,,土豆洋芋薯片,2,2024-05-31_04h30.18.688,face trait task chi,2021.2.3,Win32,59.95922773,,,,,,,
,,,,,,,,3.977778117,1.7712,space,0.2887,0,14,14,29,1,30,image/30.jpg,0,0,,土豆洋芋薯片,2,2024-05-31_04h30.18.688,face trait task chi,2021.2.3,Win32,59.95922773,,,,,,,
,,,,,,,,4.988889058,1.7249,space,0.3175,0,15,15,17,1,18,image/18.jpg,0,0,,土豆洋芋薯片,2,2024-05-31_04h30.18.688,face trait task chi,2021.2.3,Win32,59.95922773,,,,,,,
,,,,,,,,4.005555725,1.9025,space,0.2851,0,16,16,47,1,48,image/48.jpg,0,0,,土豆洋芋薯片,2,2024-05-31_04h30.18.688,face trait task chi,2021.2.3,Win32,59.95922773,,,,,,,
,,,,,,,,6.022222392,1.7432,space,0.3509,0,17,17,49,1,50,image/50.jpg,0,0,,土豆洋芋薯片,2,2024-05-31_04h30.18.688,face trait task chi,2021.2.3,Win32,59.95922773,,,,,,,
,,,,,,,,6.977778117,2.508,space,0.3012,0,18,18,31,1,32,image/32.jpg,0,0,,土豆洋芋薯片,2,2024-05-31_04h30.18.688,face trait task chi,2021.2.3,Win32,59.95922773,,,,,,,
,,,,,,,,4.977778117,1.9708,space,0.2405,0,19,19,44,1,45,image/45.jpg,0,0,,土豆洋芋薯片,2,2024-05-31_04h30.18.688,face trait task chi,2021.2.3,Win32,59.95922773,,,,,,,
,,,,,,,,1.005555725,2.784,space,1.1336,0,20,20,50,1,55,image/fill_img.png,1,1,请将滑块完全移动到<左边>，以示您在专心判断。,土豆洋芋薯片,2,2024-05-31_04h30.18.688,face trait task chi,2021.2.3,Win32,59.95922773,,,,,,,
,,,,,,,,2.977778117,2.5062,space,1.16,0,21,21,40,1,41,image/41.jpg,0,0,,土豆洋芋薯片,2,2024-05-31_04h30.18.688,face trait task chi,2021.2.3,Win32,59.95922773,,,,,,,
,,,,,,,,2.994444784,2.9353,space,0.2373,0,22,22,43,1,44,image/44.jpg,0,0,,土豆洋芋薯片,2,2024-05-31_04h30.18.688,face trait task chi,2021.2.3,Win32,59.95922773,,,,,,,
,,,,,,,,5.994444784,3.5412,space,2.1172,0,23,23,12,1,13,image/13.jpg,0,0,,土豆洋芋薯片,2,2024-05-31_04h30.18.688,face trait task chi,2021.2.3,Win32,59.95922773,,,,,,,
,,,,,,,,3.988889058,2.1527,space,0.2507,0,24,24,18,1,19,image/19.jpg,0,0,,土豆洋芋薯片,2,2024-05-31_04h30.18.688,face trait task chi,2021.2.3,Win32,59.95922773,,,,,,,
,,,,,,,,3.005555725,2.4137,space,0.3878,0,25,25,4,1,5,image/5.jpg,0,0,,土豆洋芋薯片,2,2024-05-31_04h30.18.688,face trait task chi,2021.2.3,Win32,59.95922773,,,,,,,
,,,,,,,,3.01111145,2.1069,space,0.3252,0,26,26,1,1,2,image/2.jpg,0,0,,土豆洋芋薯片,2,2024-05-31_04h30.18.688,face trait task chi,2021.2.3,Win32,59.95922773,,,,,,,
,,,,,,,,4.01111145,2.3217,space,0.4717,0,27,27,38,1,39,image/39.jpg,0,0,,土豆洋芋薯片,2,2024-05-31_04h30.18.688,face trait task chi,2021.2.3,Win32,59.95922773,,,,,,,
,,,,,,,,6.005555725,2.0817,space,0.3304,0,28,28,42,1,43,image/43.jpg,0,0,,土豆洋芋薯片,2,2024-05-31_04h30.18.688,face trait task chi,2021.2.3,Win32,59.95922773,,,,,,,
,,,,,,,,7,3.0271,space,1.3691,0,29,29,52,1,61,image/fill_img.png,1,7,请将滑块完全移动到<右边>，以示您在专心判断。,土豆洋芋薯片,2,2024-05-31_04h30.18.688,face trait task chi,2021.2.3,Win32,59.95922773,,,,,,,
,,,,,,,,5.027778117,2.3569,space,0.677,0,30,30,39,1,40,image/40.jpg,0,0,,土豆洋芋薯片,2,2024-05-31_04h30.18.688,face trait task chi,2021.2.3,Win32,59.95922773,,,,,,,
,,,,,,,,4.988889058,3.108,space,0.4339,0,31,31,33,1,34,image/34.jpg,0,0,,土豆洋芋薯片,2,2024-05-31_04h30.18.688,face trait task chi,2021.2.3,Win32,59.95922773,,,,,,,
,,,,,,,,6.01111145,1.8306,space,0.4587,0,32,32,41,1,42,image/42.jpg,0,0,,土豆洋芋薯片,2,2024-05-31_04h30.18.688,face trait task chi,2021.2.3,Win32,59.95922773,,,,,,,
,,,,,,,,2.966666667,1.8321,space,0.5353,0,33,33,0,1,1,image/1.jpg,0,0,,土豆洋芋薯片,2,2024-05-31_04h30.18.688,face trait task chi,2021.2.3,Win32,59.95922773,,,,,,,
,,,,,,,,4.983333333,2.8482,space,0.2908,0,34,34,14,1,15,image/15.jpg,0,0,,土豆洋芋薯片,2,2024-05-31_04h30.18.688,face trait task chi,2021.2.3,Win32,59.95922773,,,,,,,
,,,,,,,,5.005555725,2.1184,space,0.3849,0,35,35,16,1,17,image/17.jpg,0,0,,土豆洋芋薯片,2,2024-05-31_04h30.18.688,face trait task chi,2021.2.3,Win32,59.95922773,,,,,,,
,,,,,,,,3.972222392,1.8182,space,0.3506,0,36,36,8,1,9,image/9.jpg,0,0,,土豆洋芋薯片,2,2024-05-31_04h30.18.688,face trait task chi,2021.2.3,Win32,59.95922773,,,,,,,
,,,,,,,,3.022222392,2.3509,space,0.369,0,37,37,6,1,7,image/7.jpg,0,0,,土豆洋芋薯片,2,2024-05-31_04h30.18.688,face trait task chi,2021.2.3,Win32,59.95922773,,,,,,,
,,,,,,,,2.988889058,2.0291,space,0.2806,0,38,38,11,1,12,image/12.jpg,0,0,,土豆洋芋薯片,2,2024-05-31_04h30.18.688,face trait task chi,2021.2.3,Win32,59.95922773,,,,,,,
,,,,,,,,1,2.7293,space,1.6454,0,39,39,51,1,54,image/fill_img.png,1,1,请将滑块完全移动到<左边>，以示您在专心判断。,土豆洋芋薯片,2,2024-05-31_04h30.18.688,face trait task chi,2021.2.3,Win32,59.95922773,,,,,,,
,,,,,,,,3.983333333,1.7044,space,0.3524,0,40,40,32,1,33,image/33.jpg,0,0,,土豆洋芋薯片,2,2024-05-31_04h30.18.688,face trait task chi,2021.2.3,Win32,59.95922773,,,,,,,
,,,,,,,,5.027778117,1.552,space,0.3844,0,41,41,21,1,22,image/22.jpg,0,0,,土豆洋芋薯片,2,2024-05-31_04h30.18.688,face trait task chi,2021.2.3,Win32,59.95922773,,,,,,,
,,,,,,,,2.977778117,2.9304,space,0.3029,0,42,42,13,1,14,image/14.jpg,0,0,,土豆洋芋薯片,2,2024-05-31_04h30.18.688,face trait task chi,2021.2.3,Win32,59.95922773,,,,,,,
,,,,,,,,4.983333333,2.2055,space,0.7881,0,43,43,24,1,25,image/25.jpg,0,0,,土豆洋芋薯片,2,2024-05-31_04h30.18.688,face trait task chi,2021.2.3,Win32,59.95922773,,,,,,,
,,,,,,,,4.977778117,2.219,space,0.6283,0,44,44,36,1,37,image/37.jpg,0,0,,土豆洋芋薯片,2,2024-05-31_04h30.18.688,face trait task chi,2021.2.3,Win32,59.95922773,,,,,,,
,,,,,,,,3.994444784,3.0836,space,1.0525,0,45,45,28,1,29,image/29.jpg,0,0,,土豆洋芋薯片,2,2024-05-31_04h30.18.688,face trait task chi,2021.2.3,Win32,59.95922773,,,,,,,
,,,,,,,,6.022222392,2.9984,space,0.3845,0,46,46,20,1,21,image/21.jpg,0,0,,土豆洋芋薯片,2,2024-05-31_04h30.18.688,face trait task chi,2021.2.3,Win32,59.95922773,,,,,,,
,,,,,,,,4.977778117,2.3196,space,0.3368,0,47,47,48,1,49,image/49.jpg,0,0,,土豆洋芋薯片,2,2024-05-31_04h30.18.688,face trait task chi,2021.2.3,Win32,59.95922773,,,,,,,
,,,,,,,,4.01111145,2.2793,space,0.4221,0,48,48,15,1,16,image/16.jpg,0,0,,土豆洋芋薯片,2,2024-05-31_04h30.18.688,face trait task chi,2021.2.3,Win32,59.95922773,,,,,,,
,,,,,,,,6,2.6872,space,0.3348,0,49,49,3,1,4,image/4.jpg,0,0,,土豆洋芋薯片,2,2024-05-31_04h30.18.688,face trait task chi,2021.2.3,Win32,59.95922773,,,,,,,
,,,,,,,,6,1.9909,space,0.5178,0,50,50,35,1,36,image/36.jpg,0,0,,土豆洋芋薯片,2,2024-05-31_04h30.18.688,face trait task chi,2021.2.3,Win32,59.95922773,,,,,,,
,,,,,,,,2.966666667,1.9614,space,0.4551,0,51,51,9,1,10,image/10.jpg,0,0,,土豆洋芋薯片,2,2024-05-31_04h30.18.688,face trait task chi,2021.2.3,Win32,59.95922773,,,,,,,
,,,,,,,,3.988889058,2.0394,space,0.4021,0,52,52,46,1,47,image/47.jpg,0,0,,土豆洋芋薯片,2,2024-05-31_04h30.18.688,face trait task chi,2021.2.3,Win32,59.95922773,,,,,,,
,,,,,,,,,,,,,,,,,,,,,,土豆洋芋薯片,2,2024-05-31_04h30.18.688,face trait task chi,2021.2.3,Win32,59.95922773,0,1,1,1,1,1,competent.png
,,,,,friendly,space,7.3887,4.983333333,2.6185,space,0.421,0,0,0,22,1,23,image/23.jpg,0,0,,土豆洋芋薯片,2,2024-05-31_04h30.18.688,face trait task chi,2021.2.3,Win32,59.95922773,,,,,,,
,,,,,,,,3.044444784,1.5413,space,0.6208,0,1,1,13,1,14,image/14.jpg,0,0,,土豆洋芋薯片,2,2024-05-31_04h30.18.688,face trait task chi,2021.2.3,Win32,59.95922773,,,,,,,
,,,,,,,,3.977778117,2.9242,space,0.3506,0,2,2,29,1,30,image/30.jpg,0,0,,土豆洋芋薯片,2,2024-05-31_04h30.18.688,face trait task chi,2021.2.3,Win32,59.95922773,,,,,,,
,,,,,,,,4.988889058,1.4688,space,0.4176,0,3,3,42,1,43,image/43.jpg,0,0,,土豆洋芋薯片,2,2024-05-31_04h30.18.688,face trait task chi,2021.2.3,Win32,59.95922773,,,,,,,
,,,,,,,,2.994444784,2.3803,space,0.3403,0,4,4,25,1,26,image/26.jpg,0,0,,土豆洋芋薯片,2,2024-05-31_04h30.18.688,face trait task chi,2021.2.3,Win32,59.95922773,,,,,,,
,,,,,,,,5.01111145,1.9189,space,0.3567,0,5,5,39,1,40,image/40.jpg,0,0,,土豆洋芋薯片,2,2024-05-31_04h30.18.688,face trait task chi,2021.2.3,Win32,59.95922773,,,,,,,
,,,,,,,,2,1.736,space,0.3677,0,6,6,40,1,41,image/41.jpg,0,0,,土豆洋芋薯片,2,2024-05-31_04h30.18.688,face trait task chi,2021.2.3,Win32,59.95922773,,,,,,,
,,,,,,,,2.988889058,1.6743,space,0.4047,0,7,7,43,1,44,image/44.jpg,0,0,,土豆洋芋薯片,2,2024-05-31_04h30.18.688,face trait task chi,2021.2.3,Win32,59.95922773,,,,,,,
,,,,,,,,1,2.6176,space,1.119,0,8,8,51,1,54,image/fill_img.png,1,1,请将滑块完全移动到<左边>，以示您在专心判断。,土豆洋芋薯片,2,2024-05-31_04h30.18.688,face trait task chi,2021.2.3,Win32,59.95922773,,,,,,,
,,,,,,,,4.966666667,1.9161,space,0.3369,0,9,9,44,1,45,image/45.jpg,0,0,,土豆洋芋薯片,2,2024-05-31_04h30.18.688,face trait task chi,2021.2.3,Win32,59.95922773,,,,,,,
,,,,,,,,1.966666667,1.8495,space,0.4009,0,10,10,8,1,9,image/9.jpg,0,0,,土豆洋芋薯片,2,2024-05-31_04h30.18.688,face trait task chi,2021.2.3,Win32,59.95922773,,,,,,,
,,,,,,,,3.966666667,1.4834,space,0.465,0,11,11,15,1,16,image/16.jpg,0,0,,土豆洋芋薯片,2,2024-05-31_04h30.18.688,face trait task chi,2021.2.3,Win32,59.95922773,,,,,,,
,,,,,,,,5.01111145,1.4844,space,0.3344,0,12,12,48,1,49,image/49.jpg,0,0,,土豆洋芋薯片,2,2024-05-31_04h30.18.688,face trait task chi,2021.2.3,Win32,59.95922773,,,,,,,
,,,,,,,,4.016666667,1.8426,space,0.3506,0,13,13,14,1,15,image/15.jpg,0,0,,土豆洋芋薯片,2,2024-05-31_04h30.18.688,face trait task chi,2021.2.3,Win32,59.95922773,,,,,,,
,,,,,,,,3.005555725,2.6602,space,0.3515,0,14,14,35,1,36,image/36.jpg,0,0,,土豆洋芋薯片,2,2024-05-31_04h30.18.688,face trait task chi,2021.2.3,Win32,59.95922773,,,,,,,
,,,,,,,,2.988889058,1.7541,space,0.368,0,15,15,21,1,22,image/22.jpg,0,0,,土豆洋芋薯片,2,2024-05-31_04h30.18.688,face trait task chi,2021.2.3,Win32,59.95922773,,,,,,,
,,,,,,,,4.022222392,2.1966,space,0.5682,0,16,16,26,1,27,image/27.jpg,0,0,,土豆洋芋薯片,2,2024-05-31_04h30.18.688,face trait task chi,2021.2.3,Win32,59.95922773,,,,,,,
,,,,,,,,3.988889058,3.1311,space,0.7513,0,17,17,5,1,6,image/6.jpg,0,0,,土豆洋芋薯片,2,2024-05-31_04h30.18.688,face trait task chi,2021.2.3,Win32,59.95922773,,,,,,,
,,,,,,,,4.972222392,2.1092,space,0.3692,0,18,18,38,1,39,image/39.jpg,0,0,,土豆洋芋薯片,2,2024-05-31_04h30.18.688,face trait task chi,2021.2.3,Win32,59.95922773,,,,,,,
,,,,,,,,2.988889058,1.5307,space,0.2347,0,19,19,1,1,2,image/2.jpg,0,0,,土豆洋芋薯片,2,2024-05-31_04h30.18.688,face trait task chi,2021.2.3,Win32,59.95922773,,,,,,,
,,,,,,,,4.005555725,1.8106,space,0.251,0,20,20,23,1,24,image/24.jpg,0,0,,土豆洋芋薯片,2,2024-05-31_04h30.18.688,face trait task chi,2021.2.3,Win32,59.95922773,,,,,,,
,,,,,,,,4.983333333,1.7658,space,0.3344,0,21,21,41,1,42,image/42.jpg,0,0,,土豆洋芋薯片,2,2024-05-31_04h30.18.688,face trait task chi,2021.2.3,Win32,59.95922773,,,,,,,
,,,,,,,,4.977778117,2.8819,space,0.3173,0,22,22,47,1,48,image/48.jpg,0,0,,土豆洋芋薯片,2,2024-05-31_04h30.18.688,face trait task chi,2021.2.3,Win32,59.95922773,,,,,,,
,,,,,,,,2.022222392,1.772,space,0.3439,0,23,23,32,1,33,image/33.jpg,0,0,,土豆洋芋薯片,2,2024-05-31_04h30.18.688,face trait task chi,2021.2.3,Win32,59.95922773,,,,,,,
,,,,,,,,2.016666667,2.7974,space,0.3012,0,24,24,18,1,19,image/19.jpg,0,0,,土豆洋芋薯片,2,2024-05-31_04h30.18.688,face trait task chi,2021.2.3,Win32,59.95922773,,,,,,,
,,,,,,,,5.01111145,2.7126,space,0.2847,0,25,25,33,1,34,image/34.jpg,0,0,,土豆洋芋薯片,2,2024-05-31_04h30.18.688,face trait task chi,2021.2.3,Win32,59.95922773,,,,,,,
,,,,,,,,2.966666667,1.6709,space,0.24,0,26,26,2,1,3,image/3.jpg,0,0,,土豆洋芋薯片,2,2024-05-31_04h30.18.688,face trait task chi,2021.2.3,Win32,59.95922773,,,,,,,
,,,,,,,,5.983333333,1.5641,space,0.3721,0,27,27,36,1,37,image/37.jpg,0,0,,土豆洋芋薯片,2,2024-05-31_04h30.18.688,face trait task chi,2021.2.3,Win32,59.95922773,,,,,,,
,,,,,,,,2,2.0878,space,0.6372,0,28,28,20,1,21,image/21.jpg,0,0,,土豆洋芋薯片,2,2024-05-31_04h30.18.688,face trait task chi,2021.2.3,Win32,59.95922773,,,,,,,
,,,,,,,,2.95,3.823,space,1.4886,0,29,29,17,1,18,image/18.jpg,0,0,,土豆洋芋薯片,2,2024-05-31_04h30.18.688,face trait task chi,2021.2.3,Win32,59.95922773,,,,,,,
,,,,,,,,4.972222392,2.0835,space,0.371,0,30,30,27,1,28,image/28.jpg,0,0,,土豆洋芋薯片,2,2024-05-31_04h30.18.688,face trait task chi,2021.2.3,Win32,59.95922773,,,,,,,
,,,,,,,,3.972222392,1.3082,space,0.4376,0,31,31,37,1,38,image/38.jpg,0,0,,土豆洋芋薯片,2,2024-05-31_04h30.18.688,face trait task chi,2021.2.3,Win32,59.95922773,,,,,,,
,,,,,,,,4.95,1.801,space,0.4248,0,32,32,45,1,46,image/46.jpg,0,0,,土豆洋芋薯片,2,2024-05-31_04h30.18.688,face trait task chi,2021.2.3,Win32,59.95922773,,,,,,,
,,,,,,,,3.005555725,1.4164,space,0.3013,0,33,33,16,1,17,image/17.jpg,0,0,,土豆洋芋薯片,2,2024-05-31_04h30.18.688,face trait task chi,2021.2.3,Win32,59.95922773,,,,,,,
,,,,,,,,2.983333333,2.2523,space,0.2839,0,34,34,12,1,13,image/13.jpg,0,0,,土豆洋芋薯片,2,2024-05-31_04h30.18.688,face trait task chi,2021.2.3,Win32,59.95922773,,,,,,,
,,,,,,,,4.01111145,3.5304,space,2.4497,0,35,35,0,1,1,image/1.jpg,0,0,,土豆洋芋薯片,2,2024-05-31_04h30.18.688,face trait task chi,2021.2.3,Win32,59.95922773,,,,,,,
,,,,,,,,4,3.5634,space,0.2498,0,36,36,3,1,4,image/4.jpg,0,0,,土豆洋芋薯片,2,2024-05-31_04h30.18.688,face trait task chi,2021.2.3,Win32,59.95922773,,,,,,,
,,,,,,,,2.983333333,1.3869,space,0.3025,0,37,37,10,1,11,image/11.jpg,0,0,,土豆洋芋薯片,2,2024-05-31_04h30.18.688,face trait task chi,2021.2.3,Win32,59.95922773,,,,,,,
,,,,,,,,1.988889058,1.6927,space,0.3208,0,38,38,9,1,10,image/10.jpg,0,0,,土豆洋芋薯片,2,2024-05-31_04h30.18.688,face trait task chi,2021.2.3,Win32,59.95922773,,,,,,,
,,,,,,,,3.966666667,1.8329,space,0.3504,0,39,39,4,1,5,image/5.jpg,0,0,,土豆洋芋薯片,2,2024-05-31_04h30.18.688,face trait task chi,2021.2.3,Win32,59.95922773,,,,,,,
,,,,,,,,1,3.7302,space,1.1185,0,40,40,50,1,55,image/fill_img.png,1,1,请将滑块完全移动到<左边>，以示您在专心判断。,土豆洋芋薯片,2,2024-05-31_04h30.18.688,face trait task chi,2021.2.3,Win32,59.95922773,,,,,,,
,,,,,,,,5.01111145,2.9144,space,0.4534,0,41,41,31,1,32,image/32.jpg,0,0,,土豆洋芋薯片,2,2024-05-31_04h30.18.688,face trait task chi,2021.2.3,Win32,59.95922773,,,,,,,
,,,,,,,,4.027778117,1.6069,space,0.3687,0,42,42,28,1,29,image/29.jpg,0,0,,土豆洋芋薯片,2,2024-05-31_04h30.18.688,face trait task chi,2021.2.3,Win32,59.95922773,,,,,,,
,,,,,,,,6.044444784,1.7089,space,0.4866,0,43,43,34,1,35,image/35.jpg,0,0,,土豆洋芋薯片,2,2024-05-31_04h30.18.688,face trait task chi,2021.2.3,Win32,59.95922773,,,,,,,
,,,,,,,,4.994444784,1.7232,space,0.3266,0,44,44,11,1,12,image/12.jpg,0,0,,土豆洋芋薯片,2,2024-05-31_04h30.18.688,face trait task chi,2021.2.3,Win32,59.95922773,,,,,,,
,,,,,,,,2.977778117,2.3686,space,0.217,0,45,45,49,1,50,image/50.jpg,0,0,,土豆洋芋薯片,2,2024-05-31_04h30.18.688,face trait task chi,2021.2.3,Win32,59.95922773,,,,,,,
,,,,,,,,2.972222392,1.397,space,0.3357,0,46,46,19,1,20,image/20.jpg,0,0,,土豆洋芋薯片,2,2024-05-31_04h30.18.688,face trait task chi,2021.2.3,Win32,59.95922773,,,,,,,
,,,,,,,,4.005555725,1.591,space,0.3216,0,47,47,6,1,7,image/7.jpg,0,0,,土豆洋芋薯片,2,2024-05-31_04h30.18.688,face trait task chi,2021.2.3,Win32,59.95922773,,,,,,,
,,,,,,,,3.966666667,2.6252,space,0.384,0,48,48,30,1,31,image/31.jpg,0,0,,土豆洋芋薯片,2,2024-05-31_04h30.18.688,face trait task chi,2021.2.3,Win32,59.95922773,,,,,,,
,,,,,,,,5.027778117,2.0468,space,0.7458,0,49,49,24,1,25,image/25.jpg,0,0,,土豆洋芋薯片,2,2024-05-31_04h30.18.688,face trait task chi,2021.2.3,Win32,59.95922773,,,,,,,
,,,,,,,,3.972222392,1.5242,space,1.039,0,50,50,7,1,8,image/8.jpg,0,0,,土豆洋芋薯片,2,2024-05-31_04h30.18.688,face trait task chi,2021.2.3,Win32,59.95922773,,,,,,,
,,,,,,,,4.977778117,1.9569,space,0.3739,0,51,51,46,1,47,image/47.jpg,0,0,,土豆洋芋薯片,2,2024-05-31_04h30.18.688,face trait task chi,2021.2.3,Win32,59.95922773,,,,,,,
,,,,,,,,7,2.3124,space,1.3676,0,52,52,52,1,61,image/fill_img.png,1,7,请将滑块完全移动到<右边>，以示您在专心判断。,土豆洋芋薯片,2,2024-05-31_04h30.18.688,face trait task chi,2021.2.3,Win32,59.95922773,,,,,,,
,,,,,,,,,,,,,,,,,,,,,,土豆洋芋薯片,2,2024-05-31_04h30.18.688,face trait task chi,2021.2.3,Win32,59.95922773,0,2,2,3,1,3,friendly.png
,,,,,trustworthy,space,6.2242,5.005555725,1.882,space,0.4846,0,0,0,27,1,28,image/28.jpg,0,0,,土豆洋芋薯片,2,2024-05-31_04h30.18.688,face trait task chi,2021.2.3,Win32,59.95922773,,,,,,,
,,,,,,,,4.96111145,1.6274,space,0.4903,0,1,1,5,1,6,image/6.jpg,0,0,,土豆洋芋薯片,2,2024-05-31_04h30.18.688,face trait task chi,2021.2.3,Win32,59.95922773,,,,,,,
,,,,,,,,3.01111145,2.6891,space,0.2676,0,2,2,1,1,2,image/2.jpg,0,0,,土豆洋芋薯片,2,2024-05-31_04h30.18.688,face trait task chi,2021.2.3,Win32,59.95922773,,,,,,,
,,,,,,,,3.977778117,2.3777,space,0.3197,0,3,3,25,1,26,image/26.jpg,0,0,,土豆洋芋薯片,2,2024-05-31_04h30.18.688,face trait task chi,2021.2.3,Win32,59.95922773,,,,,,,
,,,,,,,,1.983333333,1.3995,space,0.4501,0,4,4,40,1,41,image/41.jpg,0,0,,土豆洋芋薯片,2,2024-05-31_04h30.18.688,face trait task chi,2021.2.3,Win32,59.95922773,,,,,,,
,,,,,,,,4.96111145,2.4011,space,0.4193,0,5,5,20,1,21,image/21.jpg,0,0,,土豆洋芋薯片,2,2024-05-31_04h30.18.688,face trait task chi,2021.2.3,Win32,59.95922773,,,,,,,
,,,,,,,,4.016666667,1.715,space,0.2671,0,6,6,24,1,25,image/25.jpg,0,0,,土豆洋芋薯片,2,2024-05-31_04h30.18.688,face trait task chi,2021.2.3,Win32,59.95922773,,,,,,,
,,,,,,,,4.977778117,1.8811,space,0.401,0,7,7,22,1,23,image/23.jpg,0,0,,土豆洋芋薯片,2,2024-05-31_04h30.18.688,face trait task chi,2021.2.3,Win32,59.95922773,,,,,,,
,,,,,,,,4.027778117,2.2219,space,0.4526,0,8,8,30,1,31,image/31.jpg,0,0,,土豆洋芋薯片,2,2024-05-31_04h30.18.688,face trait task chi,2021.2.3,Win32,59.95922773,,,,,,,
,,,,,,,,2.938889058,1.796,space,0.4674,0,9,9,2,1,3,image/3.jpg,0,0,,土豆洋芋薯片,2,2024-05-31_04h30.18.688,face trait task chi,2021.2.3,Win32,59.95922773,,,,,,,
,,,,,,,,3.994444784,2.3817,space,0.3074,0,10,10,3,1,4,image/4.jpg,0,0,,土豆洋芋薯片,2,2024-05-31_04h30.18.688,face trait task chi,2021.2.3,Win32,59.95922773,,,,,,,
,,,,,,,,1,2.517,space,1.1179,0,11,11,50,1,55,image/fill_img.png,1,1,请将滑块完全移动到<左边>，以示您在专心判断。,土豆洋芋薯片,2,2024-05-31_04h30.18.688,face trait task chi,2021.2.3,Win32,59.95922773,,,,,,,
,,,,,,,,5.044444784,1.5011,space,0.8684,0,12,12,45,1,46,image/46.jpg,0,0,,土豆洋芋薯片,2,2024-05-31_04h30.18.688,face trait task chi,2021.2.3,Win32,59.95922773,,,,,,,
,,,,,,,,3,2.5818,space,0.6509,0,13,13,43,1,44,image/44.jpg,0,0,,土豆洋芋薯片,2,2024-05-31_04h30.18.688,face trait task chi,2021.2.3,Win32,59.95922773,,,,,,,
,,,,,,,,4.988889058,3.2486,space,0.3512,0,14,14,18,1,19,image/19.jpg,0,0,,土豆洋芋薯片,2,2024-05-31_04h30.18.688,face trait task chi,2021.2.3,Win32,59.95922773,,,,,,,
,,,,,,,,5.972222392,1.4475,space,0.3167,0,15,15,39,1,40,image/40.jpg,0,0,,土豆洋芋薯片,2,2024-05-31_04h30.18.688,face trait task chi,2021.2.3,Win32,59.95922773,,,,,,,
,,,,,,,,4,2.0542,space,0.1874,0,16,16,15,1,16,image/16.jpg,0,0,,土豆洋芋薯片,2,2024-05-31_04h30.18.688,face trait task chi,2021.2.3,Win32,59.95922773,,,,,,,
,,,,,,,,1.994444529,2.1293,space,0.3814,0,17,17,9,1,10,image/10.jpg,0,0,,土豆洋芋薯片,2,2024-05-31_04h30.18.688,face trait task chi,2021.2.3,Win32,59.95922773,,,,,,,
,,,,,,,,6,2.3302,space,0.3343,0,18,18,31,1,32,image/32.jpg,0,0,,土豆洋芋薯片,2,2024-05-31_04h30.18.688,face trait task chi,2021.2.3,Win32,59.95922773,,,,,,,
,,,,,,,,4.994444784,1.4762,space,0.3176,0,19,19,29,1,30,image/30.jpg,0,0,,土豆洋芋薯片,2,2024-05-31_04h30.18.688,face trait task chi,2021.2.3,Win32,59.95922773,,,,,,,
,,,,,,,,5,1.26,space,0.3239,0,20,20,14,1,15,image/15.jpg,0,0,,土豆洋芋薯片,2,2024-05-31_04h30.18.688,face trait task chi,2021.2.3,Win32,59.95922773,,,,,,,
,,,,,,,,5.005555725,1.7747,space,0.2005,0,21,21,11,1,12,image/12.jpg,0,0,,土豆洋芋薯片,2,2024-05-31_04h30.18.688,face trait task chi,2021.2.3,Win32,59.95922773,,,,,,,
,,,,,,,,4.016666667,1.9527,space,0.3845,0,22,22,0,1,1,image/1.jpg,0,0,,土豆洋芋薯片,2,2024-05-31_04h30.18.688,face trait task chi,2021.2.3,Win32,59.95922773,,,,,,,
,,,,,,,,4.983333333,1.9112,space,0.333,0,23,23,33,1,34,image/34.jpg,0,0,,土豆洋芋薯片,2,2024-05-31_04h30.18.688,face trait task chi,2021.2.3,Win32,59.95922773,,,,,,,
,,,,,,,,4.994444784,1.9067,space,0.3834,0,24,24,21,1,22,image/22.jpg,0,0,,土豆洋芋薯片,2,2024-05-31_04h30.18.688,face trait task chi,2021.2.3,Win32,59.95922773,,,,,,,
,,,,,,,,3.994444784,2.2743,space,0.2731,0,25,25,12,1,13,image/13.jpg,0,0,,土豆洋芋薯片,2,2024-05-31_04h30.18.688,face trait task chi,2021.2.3,Win32,59.95922773,,,,,,,
,,,,,,,,5.022222392,5.0243,space,0.2822,0,26,26,23,1,24,image/24.jpg,0,0,,土豆洋芋薯片,2,2024-05-31_04h30.18.688,face trait task chi,2021.2.3,Win32,59.95922773,,,,,,,
,,,,,,,,3.972222392,3.0519,space,0.351,0,27,27,17,1,18,image/18.jpg,0,0,,土豆洋芋薯片,2,2024-05-31_04h30.18.688,face trait task chi,2021.2.3,Win32,59.95922773,,,,,,,
,,,,,,,,2.994444784,4.0877,space,0.3353,0,28,28,4,1,5,image/5.jpg,0,0,,土豆洋芋薯片,2,2024-05-31_04h30.18.688,face trait task chi,2021.2.3,Win32,59.95922773,,,,,,,
,,,,,,,,5,1.8343,space,0.301,0,29,29,47,1,48,image/48.jpg,0,0,,土豆洋芋薯片,2,2024-05-31_04h30.18.688,face trait task chi,2021.2.3,Win32,59.95922773,,,,,,,
,,,,,,,,1.972222392,2.0894,space,0.2858,0,30,30,32,1,33,image/33.jpg,0,0,,土豆洋芋薯片,2,2024-05-31_04h30.18.688,face trait task chi,2021.2.3,Win32,59.95922773,,,,,,,
,,,,,,,,4.988889058,1.7008,space,0.268,0,31,31,46,1,47,image/47.jpg,0,0,,土豆洋芋薯片,2,2024-05-31_04h30.18.688,face trait task chi,2021.2.3,Win32,59.95922773,,,,,,,
,,,,,,,,2.994444784,2.2072,space,0.2326,0,32,32,10,1,11,image/11.jpg,0,0,,土豆洋芋薯片,2,2024-05-31_04h30.18.688,face trait task chi,2021.2.3,Win32,59.95922773,,,,,,,
,,,,,,,,5.027778117,1.9248,space,0.4038,0,33,33,36,1,37,image/37.jpg,0,0,,土豆洋芋薯片,2,2024-05-31_04h30.18.688,face trait task chi,2021.2.3,Win32,59.95922773,,,,,,,
,,,,,,,,5.972222392,2.3845,space,1.0702,0,34,34,44,1,45,image/45.jpg,0,0,,土豆洋芋薯片,2,2024-05-31_04h30.18.688,face trait task chi,2021.2.3,Win32,59.95922773,,,,,,,
,,,,,,,,2.977778117,2.9379,space,0.2081,0,35,35,13,1,14,image/14.jpg,0,0,,土豆洋芋薯片,2,2024-05-31_04h30.18.688,face trait task chi,2021.2.3,Win32,59.95922773,,,,,,,
,,,,,,,,6.016666667,2.14,space,0.334,0,36,36,49,1,50,image/50.jpg,0,0,,土豆洋芋薯片,2,2024-05-31_04h30.18.688,face trait task chi,2021.2.3,Win32,59.95922773,,,,,,,
,,,,,,,,1,2.6265,space,1.2843,0,37,37,51,1,54,image/fill_img.png,1,1,请将滑块完全移动到<左边>，以示您在专心判断。,土豆洋芋薯片,2,2024-05-31_04h30.18.688,face trait task chi,2021.2.3,Win32,59.95922773,,,,,,,
,,,,,,,,5.988889058,2.7373,space,0.3359,0,38,38,42,1,43,image/43.jpg,0,0,,土豆洋芋薯片,2,2024-05-31_04h30.18.688,face trait task chi,2021.2.3,Win32,59.95922773,,,,,,,
,,,,,,,,5,1.7015,space,0.5454,0,39,39,26,1,27,image/27.jpg,0,0,,土豆洋芋薯片,2,2024-05-31_04h30.18.688,face trait task chi,2021.2.3,Win32,59.95922773,,,,,,,
,,,,,,,,4.966666667,2.2329,space,0.4843,0,40,40,48,1,49,image/49.jpg,0,0,,土豆洋芋薯片,2,2024-05-31_04h30.18.688,face trait task chi,2021.2.3,Win32,59.95922773,,,,,,,
,,,,,,,,5.022222392,2.1207,space,0.389,0,41,41,38,1,39,image/39.jpg,0,0,,土豆洋芋薯片,2,2024-05-31_04h30.18.688,face trait task chi,2021.2.3,Win32,59.95922773,,,,,,,
,,,,,,,,3.972222392,2.1857,space,0.4344,0,42,42,6,1,7,image/7.jpg,0,0,,土豆洋芋薯片,2,2024-05-31_04h30.18.688,face trait task chi,2021.2.3,Win32,59.95922773,,,,,,,
,,,,,,,,2.972222392,1.3655,space,0.3567,0,43,43,7,1,8,image/8.jpg,0,0,,土豆洋芋薯片,2,2024-05-31_04h30.18.688,face trait task chi,2021.2.3,Win32,59.95922773,,,,,,,
,,,,,,,,7,2.773,space,1.1897,0,44,44,52,1,61,image/fill_img.png,1,7,请将滑块完全移动到<右边>，以示您在专心判断。,土豆洋芋薯片,2,2024-05-31_04h30.18.688,face trait task chi,2021.2.3,Win32,59.95922773,,,,,,,
,,,,,,,,4.01111145,2.2668,space,0.934,0,45,45,16,1,17,image/17.jpg,0,0,,土豆洋芋薯片,2,2024-05-31_04h30.18.688,face trait task chi,2021.2.3,Win32,59.95922773,,,,,,,
,,,,,,,,5.983333333,1.8588,space,0.3192,0,46,46,34,1,35,image/35.jpg,0,0,,土豆洋芋薯片,2,2024-05-31_04h30.18.688,face trait task chi,2021.2.3,Win32,59.95922773,,,,,,,
,,,,,,,,5.01111145,3.2452,space,0.3755,0,47,47,37,1,38,image/38.jpg,0,0,,土豆洋芋薯片,2,2024-05-31_04h30.18.688,face trait task chi,2021.2.3,Win32,59.95922773,,,,,,,
,,,,,,,,2,2.1853,space,0.2965,0,48,48,8,1,9,image/9.jpg,0,0,,土豆洋芋薯片,2,2024-05-31_04h30.18.688,face trait task chi,2021.2.3,Win32,59.95922773,,,,,,,
,,,,,,,,2.988889058,1.9969,space,0.5211,0,49,49,19,1,20,image/20.jpg,0,0,,土豆洋芋薯片,2,2024-05-31_04h30.18.688,face trait task chi,2021.2.3,Win32,59.95922773,,,,,,,
,,,,,,,,5.005555725,3.7568,space,1.2847,0,50,50,35,1,36,image/36.jpg,0,0,,土豆洋芋薯片,2,2024-05-31_04h30.18.688,face trait task chi,2021.2.3,Win32,59.95922773,,,,,,,
,,,,,,,,3.983333333,2.5576,space,0.2347,0,51,51,28,1,29,image/29.jpg,0,0,,土豆洋芋薯片,2,2024-05-31_04h30.18.688,face trait task chi,2021.2.3,Win32,59.95922773,,,,,,,
,,,,,,,,5.005555725,1.6177,space,0.3471,0,52,52,41,1,42,image/42.jpg,0,0,,土豆洋芋薯片,2,2024-05-31_04h30.18.688,face trait task chi,2021.2.3,Win32,59.95922773,,,,,,,
,,,,,,,,,,,,,,,,,,,,,,土豆洋芋薯片,2,2024-05-31_04h30.18.688,face trait task chi,2021.2.3,Win32,59.95922773,0,3,3,2,1,2,trustworthy.png