﻿chooserow,ParID,pre_instru_resp_2.keys,pre_instru_resp_2.rt,pre_instru_resp_3.keys,pre_instru_resp_3.rt,pre_instru_resp_9.keys,pre_instru_resp_9.rt,pre_instru_resp_8.keys,pre_instru_resp_8.rt,pre_instru_resp_4.keys,pre_instru_resp_4.rt,pre_instru_resp_5.keys,pre_instru_resp_5.rt,pre_instru_resp_6.keys,pre_instru_resp_6.rt,key_resp_3.keys,key_resp_3.rt,key_resp_4.keys,key_resp_4.rt,key_resp_5.keys,key_resp_5.rt,key_resp_6.keys,key_resp_6.rt,key_resp_7.keys,key_resp_7.rt,trials_2.thisRepN,trials_2.thisTrialN,trials_2.thisN,trials_2.thisIndex,trials_2.ran,participant,session,date,expName,psychopyVersion,OS,frameRate,pre_instru_resp.keys,pre_instru_resp.rt,clicked,judge_2.x,judge_2.y,judge_2.leftButton,judge_2.midButton,judge_2.rightButton,judge_2.clicked_name,trials.thisRepN,trials.thisTrialN,trials.thisN,trials.thisIndex,trials.ran,prac_answer,prac_dot_sti,dotlefttext,dotrighttext,prac_acc,judge.x,judge.y,judge.leftButton,judge.midButton,judge.rightButton,judge.clicked_name,clicked_guilt,slider_guilt.response,slider_guilt.rt,key_guilt.keys,key_guilt.rt,share_slider.response,share_slider.rt,key_share.keys,slider_apology.response,slider_apology.rt,key_apology.keys,slider_hide.response,slider_hide.rt,slider_forgiveness.response,slider_forgiveness.rt,key_forgiveness.keys,slider_mad.response,slider_mad.rt,trialseq.thisRepN,trialseq.thisTrialN,trialseq.thisN,trialseq.thisIndex,trialseq.ran,type_trial,stipic,DV,picture,answer,number,key_share.rt,incompleteTrials,key_apology.rt,key_forgiveness.rt,slider_friendly.response,slider_friendly.rt,slider_trustworthy.response,slider_trustworthy.rt,slider_competence.response,slider_competence.rt,slider_critical.response,slider_critical.rt,key_resp.keys,trials_redo.thisRepN,trials_redo.thisTrialN,trials_redo.thisN,trials_redo.thisIndex,trials_redo.ran,key_resp.rt
"[52,35,22,51,62,59,44,3,68,82,76,60,89,79,88,93,105,106,119,98,130,133,138,109,115,121,142,122,152,150,165,159,148,163,180,171,182,191,203,169,196,176]",er3,space,2.111,space,1.085,space,29.96,space,3.721,space,0.861,space,1.158,space,0.475,3,1.915,1,3.223,3,3.702,2,0.564,2,1.71,0,0,0,0,1,er3,1,2024-05-31_01h32.36.846,interaction task chi,2021.2.3,Win32,165.5629139,,,,,,,,,,,,,,,,,,,,,,,,,,,,,,,,,,,,,,,,,,,,,,,,,,,,,,,,,,,,,,,,,,,,,,,,,
,,,,,,,,,,,,,,,,,,,,,,,,,,,,,,,er3,1,2024-05-31_01h32.36.846,interaction task chi,2021.2.3,Win32,165.5629139,space,0.965,"[""LeftButton_2""]",-0.226260258,-0.329166667,1,0,0,LeftButton_2,0,0,0,0,1,RightButton_2,9dot1.png,大于,小于,,,,,,,,,,,,,,,,,,,,,,,,,,,,,,,,,,,,,,,,,,,,,,,,,,,,,,,
,,,,,,,,,,,,,,,,,,,,,,,,,,,,,,,er3,1,2024-05-31_01h32.36.846,interaction task chi,2021.2.3,Win32,165.5629139,,,"[""RightButton_2""]",0.309495897,-0.35625,1,0,0,RightButton_2,0,1,1,1,1,RightButton_2,9dot1.png,大于,小于,,,,,,,,,,,,,,,,,,,,,,,,,,,,,,,,,,,,,,,,,,,,,,,,,,,,,,,
,,,,,,,,,,,,,,,,,,,,,,,,,,,,,,,er3,1,2024-05-31_01h32.36.846,interaction task chi,2021.2.3,Win32,165.5629139,,,"[""RightButton_2""]",0.248534584,-0.3125,1,0,0,RightButton_2,0,2,2,2,1,RightButton_2,11dot1.png,小于,大于,,,,,,,,,,,,,,,,,,,,,,,,,,,,,,,,,,,,,,,,,,,,,,,,,,,,,,,
,,,,,,,,,,,,,,,,,,,,,,,,,,,,,,,er3,1,2024-05-31_01h32.36.846,interaction task chi,2021.2.3,Win32,165.5629139,,,,,,,,,,,,,,,,,大于,小于,0.4,-0.294255569,-0.539583333,1,0,0,LeftButton,"[""LeftButton""]",39,2.274,space,0.79,,,,,,,,,,,,,,0,0,0,0,1,1,both_wrong.png,0,RandomDot10.png,No answer,20,,,,,,,,,,,,,,,,,,,
,,,,,,,,,,,,,,,,,,,,,,,,,,,,,,,er3,1,2024-05-31_01h32.36.846,interaction task chi,2021.2.3,Win32,165.5629139,,,,,,,,,,,,,,,,,小于,大于,,-0.262602579,-0.472916667,1,0,0,LeftButton,"[""LeftButton""]",,,,,,,,,,,,,,,,,,0,1,1,1,1,0,both_right.png,2,RandomDot25.png,No answer,19,,,,,,,,,,,,,,,,,,,
,,,,,,,,,,,,,,,,,,,,,,,,,,,,,,,er3,1,2024-05-31_01h32.36.846,interaction task chi,2021.2.3,Win32,165.5629139,,,,,,,,,,,,,,,,,小于,大于,,0.337631887,-0.472916667,1,0,0,RightButton,"[""RightButton""]",,,,,,,,,,,,,,,,,,0,2,2,2,1,0,both_right.png,1,RandomDot21.png,No answer,20,,,,,,,,,,,,,,,,,,,
,,,,,,,,,,,,,,,,,,,,,,,,,,,,,,,er3,1,2024-05-31_01h32.36.846,interaction task chi,2021.2.3,Win32,165.5629139,,,,,,,,,,,,,,,,,大于,小于,,-0.315357562,-0.504166667,1,0,0,LeftButton,"[""LeftButton""]",31,2.368,space,1.129,,,,,,,,,,,,,,0,3,3,3,1,1,both_wrong.png,0,RandomDot14.png,No answer,19,,,,,,,,,,,,,,,,,,,
,,,,,,,,,,,,,,,,,,,,,,,,,,,,,,,er3,1,2024-05-31_01h32.36.846,interaction task chi,2021.2.3,Win32,165.5629139,,,,,,,,,,,,,,,,,大于,小于,,0.311840563,-0.53125,1,0,0,RightButton,"[""RightButton""]",,,,,1.110785463,3.178,space,,,,,,,,,,,0,4,4,4,1,1,both_wrong.png,1,RandomDot28.png,No answer,21,0.601,,,,,,,,,,,,,,,,,,
,,,,,,,,,,,,,,,,,,,,,,,,,,,,,,,er3,1,2024-05-31_01h32.36.846,interaction task chi,2021.2.3,Win32,165.5629139,,,,,,,,,,,,,,,,,小于,大于,,0.092614302,-0.147916667,0,0,0,,[],,,,,,,,,,,,,,,,,,0,5,5,5,1,1,both_wrong.png,0,RandomDot14.png,No answer,21,,59,,,,,,,,,,,,,,,,,
,,,,,,,,,,,,,,,,,,,,,,,,,,,,,,,er3,1,2024-05-31_01h32.36.846,interaction task chi,2021.2.3,Win32,165.5629139,,,,,,,,,,,,,,,,,小于,大于,,0.260257913,-0.53125,1,0,0,RightButton,"[""RightButton""]",,,,,,,,,,,,,,,,,,0,6,6,6,1,0,both_right.png,3,RandomDot26.png,No answer,20,,,,,,,,,,,,,,,,,,,
,,,,,,,,,,,,,,,,,,,,,,,,,,,,,,,er3,1,2024-05-31_01h32.36.846,interaction task chi,2021.2.3,Win32,165.5629139,,,,,,,,,,,,,,,,,大于,小于,,-0.253223916,-0.529166667,1,0,0,LeftButton,"[""LeftButton""]",,,,,,,,,,,,,,,,,,0,7,7,7,1,0,both_right.png,0,RandomDot22.png,No answer,21,,,,,,,,,,,,,,,,,,,
,,,,,,,,,,,,,,,,,,,,,,,,,,,,,,,er3,1,2024-05-31_01h32.36.846,interaction task chi,2021.2.3,Win32,165.5629139,,,,,,,,,,,,,,,,,小于,大于,,-0.233294256,-0.514583333,1,0,0,LeftButton,"[""LeftButton""]",,,,,1.210433763,2.1,space,,,,,,,,,,,0,8,8,8,1,1,both_wrong.png,1,RandomDot8.png,No answer,21,0.543,,,,,,,,,,,,,,,,,,
,,,,,,,,,,,,,,,,,,,,,,,,,,,,,,,er3,1,2024-05-31_01h32.36.846,interaction task chi,2021.2.3,Win32,165.5629139,,,,,,,,,,,,,,,,,小于,大于,,-0.27901524,-0.485416667,1,0,0,LeftButton,"[""LeftButton""]",,,,,,,,50,2.538,space,36,3.663,,,,,,0,9,9,9,1,1,both_wrong.png,2,RandomDot7.png,No answer,21,,,0.977,,,,,,,,,,,,,,,,
,,,,,,,,,,,,,,,,,,,,,,,,,,,,,,,er3,1,2024-05-31_01h32.36.846,interaction task chi,2021.2.3,Win32,165.5629139,,,,,,,,,,,,,,,,,大于,小于,,-0.361078546,-0.497916667,1,0,0,LeftButton,"[""LeftButton""]",,,,,,,,51,4.901,space,46,5.711,,,,,,0,10,10,10,1,1,both_wrong.png,2,RandomDot9.png,No answer,21,,,0.364,,,,,,,,,,,,,,,,
,,,,,,,,,,,,,,,,,,,,,,,,,,,,,,,er3,1,2024-05-31_01h32.36.846,interaction task chi,2021.2.3,Win32,165.5629139,,,,,,,,,,,,,,,,,大于,小于,,-0.253223916,-0.51875,1,0,0,LeftButton,"[""LeftButton""]",,,,,1.140093787,1.143,space,,,,,,,,,,,0,11,11,11,1,1,both_wrong.png,1,RandomDot13.png,No answer,19,0.225,,,,,,,,,,,,,,,,,,
,,,,,,,,,,,,,,,,,,,,,,,,,,,,,,,er3,1,2024-05-31_01h32.36.846,interaction task chi,2021.2.3,Win32,165.5629139,,,,,,,,,,,,,,,,,大于,小于,,-0.308323564,-0.5,1,0,0,LeftButton,"[""LeftButton""]",,,,,,,,,,,,,66.57844565,1.841,space,29.15852547,2.57,0,12,12,12,1,1,both_wrong.png,3,RandomDot6.png,No answer,21,,,,0.254,,,,,,,,,,,,,,,
,,,,,,,,,,,,,,,,,,,,,,,,,,,,,,,er3,1,2024-05-31_01h32.36.846,interaction task chi,2021.2.3,Win32,165.5629139,,,,,,,,,,,,,,,,,小于,大于,,-0.320046893,-0.477083333,1,0,0,LeftButton,"[""LeftButton""]",,,,,,,,51,1.834,space,45,2.723,,,,,,0,13,13,13,1,1,both_wrong.png,2,RandomDot24.png,No answer,21,,,0.846,,,,,,,,,,,,,,,,
,,,,,,,,,,,,,,,,,,,,,,,,,,,,,,,er3,1,2024-05-31_01h32.36.846,interaction task chi,2021.2.3,Win32,165.5629139,,,,,,,,,,,,,,,,,大于,小于,,-0.293083236,-0.477083333,1,0,0,LeftButton,"[""LeftButton""]",,,,,,,,,,,,,68.94679503,1.463,space,21.34297252,2.159,0,14,14,14,1,1,both_wrong.png,3,RandomDot30.png,No answer,20,,,,0.786,,,,,,,,,,,,,,,
,,,,,,,,,,,,,,,,,,,,,,,,,,,,,,,er3,1,2024-05-31_01h32.36.846,interaction task chi,2021.2.3,Win32,165.5629139,,,,,,,,,,,,,,,,,小于,大于,,-0.260257913,-0.525,1,0,0,LeftButton,"[""LeftButton""]",,,,,,,,,,,,,62.07858183,1.485,space,30.22428269,2.776,0,15,15,15,1,1,both_wrong.png,3,RandomDot12.png,No answer,21,,,,0.35,,,,,,,,,,,,,,,
,,,,,,,,,,,,,,,,,,,,,,,,,,,,,,,er3,1,2024-05-31_01h32.36.846,interaction task chi,2021.2.3,Win32,165.5629139,,,,,,,,,,,,,,,,,小于,大于,,-0.232121923,-0.460416667,1,0,0,LeftButton,"[""LeftButton""]",2,1.12,space,0.181,,,,,,,,,,,,,,0,16,16,16,1,2,only_sub_right.png,0,RandomDot17.png,No answer,20,,,,,,,,,,,,,,,,,,,
,,,,,,,,,,,,,,,,,,,,,,,,,,,,,,,er3,1,2024-05-31_01h32.36.846,interaction task chi,2021.2.3,Win32,165.5629139,,,,,,,,,,,,,,,,,小于,大于,,-0.2989449,-0.525,1,0,0,LeftButton,"[""LeftButton""]",2,1.543,space,0.475,,,,,,,,,,,,,,0,17,17,17,1,2,only_sub_right.png,0,RandomDot39.png,No answer,19,,,,,,,,,,,,,,,,,,,
,,,,,,,,,,,,,,,,,,,,,,,,,,,,,,,er3,1,2024-05-31_01h32.36.846,interaction task chi,2021.2.3,Win32,165.5629139,,,,,,,,,,,,,,,,,小于,大于,,-0.289566237,-0.485416667,1,0,0,LeftButton,"[""LeftButton""]",,,,,0.04982415,2.04,space,,,,,,,,,,,0,18,18,18,1,2,only_sub_right.png,1,RandomDot38.png,No answer,19,0.337,,,,,,,,,,,,,,,,,,
,,,,,,,,,,,,,,,,,,,,,,,,,,,,,,,er3,1,2024-05-31_01h32.36.846,interaction task chi,2021.2.3,Win32,165.5629139,,,,,,,,,,,,,,,,,大于,小于,,0.274325909,-0.53125,1,0,0,RightButton,"[""RightButton""]",1,1.32,space,0.283,,,,,,,,,,,,,,0,19,19,19,1,2,only_sub_right.png,0,RandomDot16.png,No answer,20,,,,,,,,,,,,,,,,,,,
,,,,,,,,,,,,,,,,,,,,,,,,,,,,,,,er3,1,2024-05-31_01h32.36.846,interaction task chi,2021.2.3,Win32,165.5629139,,,,,,,,,,,,,,,,,小于,大于,,-0.295427902,-0.502083333,1,0,0,LeftButton,"[""LeftButton""]",,,,,,,,3,1.447,space,7,4.376,,,,,,0,20,20,20,1,2,only_sub_right.png,2,RandomDot8.png,No answer,21,,,0.266,,,,,,,,,,,,,,,,
,,,,,,,,,,,,,,,,,,,,,,,,,,,,,,,er3,1,2024-05-31_01h32.36.846,interaction task chi,2021.2.3,Win32,165.5629139,,,,,,,,,,,,,,,,,大于,小于,,0.223915592,-0.520833333,1,0,0,RightButton,"[""RightButton""]",,,,,,,,,,,,,95.82756048,2.188,space,3.817187111,2.993,0,21,21,21,1,2,only_sub_right.png,3,RandomDot36.png,No answer,20,,,,0.264,,,,,,,,,,,,,,,
,,,,,,,,,,,,,,,,,,,,,,,,,,,,,,,er3,1,2024-05-31_01h32.36.846,interaction task chi,2021.2.3,Win32,165.5629139,,,,,,,,,,,,,,,,,小于,大于,,-0.301289566,-0.510416667,1,0,0,LeftButton,"[""LeftButton""]",,,,,,,,,,,,,92.63028882,2.117,space,4.409274456,3.193,0,22,22,22,1,2,only_sub_right.png,3,RandomDot25.png,No answer,21,,,,0.461,,,,,,,,,,,,,,,
,,,,,,,,,,,,,,,,,,,,,,,,,,,,,,,er3,1,2024-05-31_01h32.36.846,interaction task chi,2021.2.3,Win32,165.5629139,,,,,,,,,,,,,,,,,大于,小于,,0.327080891,-0.479166667,1,0,0,RightButton,"[""RightButton""]",,,,,0.108440797,1.581,space,,,,,,,,,,,0,23,23,23,1,2,only_sub_right.png,1,RandomDot3.png,No answer,19,0.474,,,,,,,,,,,,,,,,,,
,,,,,,,,,,,,,,,,,,,,,,,,,,,,,,,er3,1,2024-05-31_01h32.36.846,interaction task chi,2021.2.3,Win32,165.5629139,,,,,,,,,,,,,,,,,小于,大于,,0.339976553,-0.5125,1,0,0,RightButton,"[""RightButton""]",,,,,0.172919109,1.488,space,,,,,,,,,,,0,24,24,24,1,2,only_sub_right.png,1,RandomDot14.png,No answer,20,0.787,,,,,,,,,,,,,,,,,,
,,,,,,,,,,,,,,,,,,,,,,,,,,,,,,,er3,1,2024-05-31_01h32.36.846,interaction task chi,2021.2.3,Win32,165.5629139,,,,,,,,,,,,,,,,,大于,小于,,0.365767878,-0.520833333,1,0,0,RightButton,"[""RightButton""]",,,,,,,,2,2.157,space,3,3.039,,,,,,0,25,25,25,1,2,only_sub_right.png,2,RandomDot18.png,No answer,19,,,1.067,,,,,,,,,,,,,,,,
,,,,,,,,,,,,,,,,,,,,,,,,,,,,,,,er3,1,2024-05-31_01h32.36.846,interaction task chi,2021.2.3,Win32,165.5629139,,,,,,,,,,,,,,,,,小于,大于,,-0.275498242,-0.489583333,1,0,0,LeftButton,"[""LeftButton""]",,,,,,,,,,,,,94.52496832,1.939,space,4.409274456,2.792,0,26,26,26,1,2,only_sub_right.png,3,RandomDot18.png,No answer,20,,,,0.17,,,,,,,,,,,,,,,
,,,,,,,,,,,,,,,,,,,,,,,,,,,,,,,er3,1,2024-05-31_01h32.36.846,interaction task chi,2021.2.3,Win32,165.5629139,,,,,,,,,,,,,,,,,大于,小于,,0.307151231,-0.491666667,1,0,0,RightButton,"[""RightButton""]",,,,,,,,2,2.612,space,87,5.478,,,,,,0,27,27,27,1,2,only_sub_right.png,2,RandomDot33.png,No answer,20,,,2.319,,,,,,,,,,,,,,,,
,,,,,,,,,,,,,,,,,,,,,,,,,,,,,,,er3,1,2024-05-31_01h32.36.846,interaction task chi,2021.2.3,Win32,165.5629139,,,,,,,,,,,,,,,,,小于,大于,,-0.245017585,-0.502083333,1,0,0,LeftButton,"[""LeftButton""]",83,1.459,space,1.138,,,,,,,,,,,,,,0,28,28,28,1,3,only_sub_wrong.png,0,RandomDot9.png,No answer,19,,,,,,,,,,,,,,,,,,,
,,,,,,,,,,,,,,,,,,,,,,,,,,,,,,,er3,1,2024-05-31_01h32.36.846,interaction task chi,2021.2.3,Win32,165.5629139,,,,,,,,,,,,,,,,,小于,大于,,-0.23094959,-0.525,1,0,0,LeftButton,"[""LeftButton""]",80,1.406,space,0.333,,,,,,,,,,,,,,0,29,29,29,1,3,only_sub_wrong.png,0,RandomDot16.png,No answer,21,,,,,,,,,,,,,,,,,,,
,,,,,,,,,,,,,,,,,,,,,,,,,,,,,,,er3,1,2024-05-31_01h32.36.846,interaction task chi,2021.2.3,Win32,165.5629139,,,,,,,,,,,,,,,,,小于,大于,,-0.277842907,-0.51875,1,0,0,LeftButton,"[""LeftButton""]",,,,,1.251465416,2.831,space,,,,,,,,,,,0,30,30,30,1,3,only_sub_wrong.png,1,RandomDot6.png,No answer,21,0.236,,,,,,,,,,,,,,,,,,
,,,,,,,,,,,,,,,,,,,,,,,,,,,,,,,er3,1,2024-05-31_01h32.36.846,interaction task chi,2021.2.3,Win32,165.5629139,,,,,,,,,,,,,,,,,大于,小于,,-0.264947245,-0.54375,1,0,0,LeftButton,"[""LeftButton""]",,,,,1.028722157,1.896,space,,,,,,,,,,,0,31,31,31,1,3,only_sub_wrong.png,1,RandomDot11.png,No answer,20,0.395,,,,,,,,,,,,,,,,,,
,,,,,,,,,,,,,,,,,,,,,,,,,,,,,,,er3,1,2024-05-31_01h32.36.846,interaction task chi,2021.2.3,Win32,165.5629139,,,,,,,,,,,,,,,,,大于,小于,,0.255568581,-0.50625,1,0,0,RightButton,"[""RightButton""]",77,2.068,space,0.569,,,,,,,,,,,,,,0,32,32,32,1,3,only_sub_wrong.png,0,RandomDot12.png,No answer,20,,,,,,,,,,,,,,,,,,,
,,,,,,,,,,,,,,,,,,,,,,,,,,,,,,,er3,1,2024-05-31_01h32.36.846,interaction task chi,2021.2.3,Win32,165.5629139,,,,,,,,,,,,,,,,,小于,大于,,-0.288393904,-0.54375,0,0,0,,[],,,,,,,,,,,,,,,,,,0,33,33,33,1,3,only_sub_wrong.png,1,RandomDot6.png,No answer,20,,163,,,,,,,,,,,,,,,,,
,,,,,,,,,,,,,,,,,,,,,,,,,,,,,,,er3,1,2024-05-31_01h32.36.846,interaction task chi,2021.2.3,Win32,165.5629139,,,,,,,,,,,,,,,,,大于,小于,,0.288393904,-0.525,1,0,0,RightButton,"[""RightButton""]",,,,,,,,,,,,,50.94733975,3.981,space,16.13260388,4.585,0,34,34,34,1,3,only_sub_wrong.png,3,RandomDot20.png,No answer,19,,,,0.163,,,,,,,,,,,,,,,
,,,,,,,,,,,,,,,,,,,,,,,,,,,,,,,er3,1,2024-05-31_01h32.36.846,interaction task chi,2021.2.3,Win32,165.5629139,,,,,,,,,,,,,,,,,大于,小于,,-0.260257913,-0.472916667,1,0,0,LeftButton,"[""LeftButton""]",,,,,,,,70,3.437,space,80,5.721,,,,,,0,35,35,35,1,3,only_sub_wrong.png,2,RandomDot23.png,No answer,20,,,0.242,,,,,,,,,,,,,,,,
,,,,,,,,,,,,,,,,,,,,,,,,,,,,,,,er3,1,2024-05-31_01h32.36.846,interaction task chi,2021.2.3,Win32,165.5629139,,,,,,,,,,,,,,,,,大于,小于,,-0.273153576,-0.520833333,1,0,0,LeftButton,"[""LeftButton""]",,,,,,,,,,,,,72.85457151,1.199,space,40.76343742,5.444,0,36,36,36,1,3,only_sub_wrong.png,3,RandomDot8.png,No answer,21,,,,3.516,,,,,,,,,,,,,,,
,,,,,,,,,,,,,,,,,,,,,,,,,,,,,,,er3,1,2024-05-31_01h32.36.846,interaction task chi,2021.2.3,Win32,165.5629139,,,,,,,,,,,,,,,,,小于,大于,,0.337631887,-0.489583333,1,0,0,RightButton,"[""RightButton""]",,,,,,,,,,,,,72.4993191,6.243,space,55.68403851,7.916,0,37,37,37,1,3,only_sub_wrong.png,3,RandomDot36.png,No answer,21,,,,3.07,,,,,,,,,,,,,,,
,,,,,,,,,,,,,,,,,,,,,,,,,,,,,,,er3,1,2024-05-31_01h32.36.846,interaction task chi,2021.2.3,Win32,165.5629139,,,,,,,,,,,,,,,,,小于,大于,,-0.23915592,-0.466666667,1,0,0,LeftButton,"[""LeftButton""]",,,,,,,,,,,,,,,,,,0,38,38,38,1,5,both_right.png,10,RandomDot42.png,LeftButton,21,,,,,,,,,,,,,,,,,,,
,,,,,,,,,,,,,,,,,,,,,,,,,,,,,,,er3,1,2024-05-31_01h32.36.846,interaction task chi,2021.2.3,Win32,165.5629139,,,,,,,,,,,,,,,,,大于,小于,,-0.262602579,-0.54375,1,0,0,LeftButton,"[""LeftButton""]",,,,,,,,59,4.474,space,21,5.438,,,,,,0,39,39,39,1,3,only_sub_wrong.png,2,RandomDot1.png,No answer,20,,,3.016,,,,,,,,,,,,,,,,
,,,,,,,,,,,,,,,,,,,,,,,,,,,,,,,er3,1,2024-05-31_01h32.36.846,interaction task chi,2021.2.3,Win32,165.5629139,,,,,,,,,,,,,,,,,小于,大于,,0.257913247,-0.50625,1,0,0,RightButton,"[""RightButton""]",,,,,,,,,,,,,,,,,,0,40,40,40,1,4,both_right.png,10,RandomDot41.png,RightButton,5,,,,,,,,,,,,,,,,,,,
,,,,,,,,,,,,,,,,,,,,,,,,,,,,,,,er3,1,2024-05-31_01h32.36.846,interaction task chi,2021.2.3,Win32,165.5629139,,,,,,,,,,,,,,,,,小于,大于,,0.247362251,-0.527083333,1,0,0,RightButton,"[""RightButton""]",,,,,,,,74,3.203,space,37,4.037,,,,,,0,41,41,41,1,3,only_sub_wrong.png,2,RandomDot40.png,No answer,20,,,1.699,,,,,,,,,,,,,,,,
,,,,,,,,,,,,,,,,,,,,,,,,,,,,,,,er3,1,2024-05-31_01h32.36.846,interaction task chi,2021.2.3,Win32,165.5629139,,,,,,,,,,,,,,,,,小于,大于,,0.066822978,-0.50625,0,0,0,,[],,,,,,,,,,,,,,,,,,,,,,,1,both_wrong.png,0,RandomDot14.png,No answer,21,,176,,,,,,,,,,,,0,0,0,0,1,
,,,,,,,,,,,,,,,,,,,,,,,,,,,,,,,er3,1,2024-05-31_01h32.36.846,interaction task chi,2021.2.3,Win32,165.5629139,,,,,,,,,,,,,,,,,小于,大于,,-0.241500586,-0.529166667,1,0,0,LeftButton,"[""LeftButton""]",,,,,0.489449004,3.833,space,,,,,,,,,,,,,,,,3,only_sub_wrong.png,1,RandomDot6.png,No answer,20,0.363,,,,,,,,,,,,,0,1,1,1,1,
,,,,,,,,,,,,,,,,,,,,,,,,,,,,,,,er3,1,2024-05-31_01h32.36.846,interaction task chi,2021.2.3,Win32,165.5629139,,,,,,,,,,,,,,,,,,,,,,,,,,,,,,,,,,,,,,,,,,,,,,,,,,,,,,,,,,,5.012895662,2.622,4.977725674,14.748,3.746776084,9.557,3.141852286,11.099,space,,,,,,15.329