﻿chooserow,ParID,pre_instru_resp_2.keys,pre_instru_resp_2.rt,pre_instru_resp_3.keys,pre_instru_resp_3.rt,pre_instru_resp_9.keys,pre_instru_resp_9.rt,pre_instru_resp_8.keys,pre_instru_resp_8.rt,pre_instru_resp_4.keys,pre_instru_resp_4.rt,pre_instru_resp_5.keys,pre_instru_resp_5.rt,pre_instru_resp_6.keys,pre_instru_resp_6.rt,key_resp_3.keys,key_resp_3.rt,key_resp_4.keys,key_resp_4.rt,key_resp_5.keys,key_resp_5.rt,key_resp_6.keys,key_resp_6.rt,key_resp_7.keys,key_resp_7.rt,trials_2.thisRepN,trials_2.thisTrialN,trials_2.thisN,trials_2.thisIndex,trials_2.ran,participant,session,date,expName,psychopyVersion,OS,frameRate,pre_instru_resp.keys,pre_instru_resp.rt,clicked,judge_2.x,judge_2.y,judge_2.leftButton,judge_2.midButton,judge_2.rightButton,judge_2.clicked_name,trials.thisRepN,trials.thisTrialN,trials.thisN,trials.thisIndex,trials.ran,prac_answer,prac_dot_sti,dotlefttext,dotrighttext,prac_acc,judge.x,judge.y,judge.leftButton,judge.midButton,judge.rightButton,judge.clicked_name,clicked_guilt,slider_guilt.response,slider_guilt.rt,key_guilt.keys,share_slider.response,share_slider.rt,key_share.keys,key_share.rt,slider_apology.response,slider_apology.rt,key_apology.keys,slider_hide.response,slider_hide.rt,slider_forgiveness.response,slider_forgiveness.rt,key_forgiveness.keys,slider_mad.response,slider_mad.rt,trialseq.thisRepN,trialseq.thisTrialN,trialseq.thisN,trialseq.thisIndex,trialseq.ran,type_trial,stipic,DV,picture,answer,number,key_forgiveness.rt,incompleteTrials,key_apology.rt,key_guilt.rt,slider_friendly.response,slider_friendly.rt,slider_trustworthy.response,slider_trustworthy.rt,slider_competence.response,slider_competence.rt,slider_critical.response,slider_critical.rt,key_resp.keys,trials_redo.thisRepN,trials_redo.thisTrialN,trials_redo.thisN,trials_redo.thisIndex,trials_redo.ran,key_resp.rt
"[63,88,179,69,73,58,101,163,115,138,26,67,136,156,192,177,144,86,200,188,125,106,9,187,80,53,150,174,20,155,45,49,90,100,137,77,110,189,127,114,121,157]",加多宝,space,83.0977,space,0.45,space,53.6063,space,6.0661,space,19.18,space,0.9416,space,1.034,3,1.6795,3,2.3629,3,6.0405,2,8.2265,1,5.5488,0,0,0,0,1,加多宝,1,2024-05-31_01h01.13.809,interaction task chi,2021.2.3,Win32,60.24096386,,,,,,,,,,,,,,,,,,,,,,,,,,,,,,,,,,,,,,,,,,,,,,,,,,,,,,,,,,,,,,,,,,,,,,,,,
,,,,space,1.3563,space,0.6712,space,0.5449,space,1.2092,space,2.1995,space,0.8238,3,0.9751,1,0.439,3,0.6196,2,1.7949,2,0.3504,1,0,1,0,1,加多宝,1,2024-05-31_01h01.13.809,interaction task chi,2021.2.3,Win32,60.24096386,,,,,,,,,,,,,,,,,,,,,,,,,,,,,,,,,,,,,,,,,,,,,,,,,,,,,,,,,,,,,,,,,,,,,,,,,
,,,,,,,,,,,,,,,,,,,,,,,,,,,,,,,加多宝,1,2024-05-31_01h01.13.809,interaction task chi,2021.2.3,Win32,60.24096386,space,0.5004,"[""LeftButton_2""]",-0.283717177,-0.334816973,1,0,0,LeftButton_2,0,0,0,0,1,LeftButton_2,9dot1.png,小于,大于,,,,,,,,,,,,,,,,,,,,,,,,,,,,,,,,,,,,,,,,,,,,,,,,,,,,,,,
,,,,,,,,,,,,,,,,,,,,,,,,,,,,,,,加多宝,1,2024-05-31_01h01.13.809,interaction task chi,2021.2.3,Win32,60.24096386,,,"[""RightButton_2""]",0.256727184,-0.284216684,1,0,0,RightButton_2,0,1,1,1,1,RightButton_2,9dot1.png,大于,小于,,,,,,,,,,,,,,,,,,,,,,,,,,,,,,,,,,,,,,,,,,,,,,,,,,,,,,,
,,,,,,,,,,,,,,,,,,,,,,,,,,,,,,,加多宝,1,2024-05-31_01h01.13.809,interaction task chi,2021.2.3,Win32,60.24096386,,,"[""RightButton_2""]",0.228282828,-0.32732073,1,0,0,RightButton_2,0,2,2,2,1,LeftButton_2,11dot2.png,大于,小于,,,,,,,,,,,,,,,,,,,,,,,,,,,,,,,,,,,,,,,,,,,,,,,,,,,,,,,
,,,,,,,,,,,,,,,,,,,,,,,,,,,,,,,加多宝,1,2024-05-31_01h01.13.809,interaction task chi,2021.2.3,Win32,60.24096386,,,,,,,,,,,,,,,,,大于,小于,0.4,-0.270787896,-0.479121419,1,0,0,LeftButton,"[""LeftButton""]",,,,3.056450768,6.5211,space,1.5294,,,,,,,,,,,0,0,0,0,1,1,both_wrong.png,1,RandomDot27.png,No answer,19,,,,,,,,,,,,,,,,,,,
,,,,,,,,,,,,,,,,,,,,,,,,,,,,,,,加多宝,1,2024-05-31_01h01.13.809,interaction task chi,2021.2.3,Win32,60.24096386,,,,,,,,,,,,,,,,,大于,小于,,0.347232333,-0.499736378,1,0,0,RightButton,"[""RightButton""]",,,,,,,,,,,,,72.46659144,10.1478,space,49.2331308,5.1653,0,1,1,1,1,1,both_wrong.png,3,RandomDot30.png,No answer,20,2.6514,,,,,,,,,,,,,,,,,,
,,,,,,,,,,,,,,,,,,,,,,,,,,,,,,,加多宝,1,2024-05-31_01h01.13.809,interaction task chi,2021.2.3,Win32,60.24096386,,,,,,,,,,,,,,,,,小于,大于,,-0.987070709,0.546002948,0,0,0,,[],,,,,,,,,,,,,,,,,,0,2,2,2,1,3,only_sub_wrong.png,2,RandomDot15.png,No answer,20,,179,,,,,,,,,,,,,,,,,
,,,,,,,,,,,,,,,,,,,,,,,,,,,,,,,加多宝,1,2024-05-31_01h01.13.809,interaction task chi,2021.2.3,Win32,60.24096386,,,,,,,,,,,,,,,,,小于,大于,,-0.312161656,-0.490366007,1,0,0,LeftButton,"[""LeftButton""]",,,,3.883457893,2.7351,space,1.9085,,,,,,,,,,,0,3,3,3,1,1,both_wrong.png,1,RandomDot13.png,No answer,19,,,,,,,,,,,,,,,,,,,
,,,,,,,,,,,,,,,,,,,,,,,,,,,,,,,加多宝,1,2024-05-31_01h01.13.809,interaction task chi,2021.2.3,Win32,60.24096386,,,,,,,,,,,,,,,,,大于,小于,,-0.252686903,-0.490366007,1,0,0,LeftButton,"[""LeftButton""]",,,,,,,,57,2.8654,space,74,6.9722,,,,,,0,4,4,4,1,1,both_wrong.png,2,RandomDot24.png,No answer,19,,,0.3842,,,,,,,,,,,,,,,,
,,,,,,,,,,,,,,,,,,,,,,,,,,,,,,,加多宝,1,2024-05-31_01h01.13.809,interaction task chi,2021.2.3,Win32,60.24096386,,,,,,,,,,,,,,,,,小于,大于,,-0.296646457,-0.507232711,1,0,0,LeftButton,"[""LeftButton""]",65,3.3643,space,,,,,,,,,,,,,,,0,5,5,5,1,1,both_wrong.png,0,RandomDot34.png,No answer,19,,,,1.2821,,,,,,,,,,,,,,,
,,,,,,,,,,,,,,,,,,,,,,,,,,,,,,,加多宝,1,2024-05-31_01h01.13.809,interaction task chi,2021.2.3,Win32,60.24096386,,,,,,,,,,,,,,,,,大于,小于,,0.373090894,-0.525973453,1,0,0,RightButton,"[""RightButton""]",33,2.1806,space,,,,,,,,,,,,,,,0,6,6,6,1,2,only_sub_right.png,0,RandomDot18.png,No answer,21,,,,1.063,,,,,,,,,,,,,,,
,,,,,,,,,,,,,,,,,,,,,,,,,,,,,,,加多宝,1,2024-05-31_01h01.13.809,interaction task chi,2021.2.3,Win32,60.24096386,,,,,,,,,,,,,,,,,小于,大于,,-0.296646457,-0.522225376,1,0,0,LeftButton,"[""LeftButton""]",,,,2.927231097,3.6603,space,4.7819,,,,,,,,,,,0,7,7,7,1,3,only_sub_wrong.png,1,RandomDot6.png,No answer,20,,,,,,,,,,,,,,,,,,,
,,,,,,,,,,,,,,,,,,,,,,,,,,,,,,,加多宝,1,2024-05-31_01h01.13.809,interaction task chi,2021.2.3,Win32,60.24096386,,,,,,,,,,,,,,,,,小于,大于,,0.273776309,-0.501610506,1,0,0,RightButton,"[""RightButton""]",,,,3.744003584,1.8725,space,0.6684,,,,,,,,,,,0,8,8,8,1,2,only_sub_right.png,1,RandomDot14.png,No answer,20,,,,,,,,,,,,,,,,,,,
,,,,,,,,,,,,,,,,,,,,,,,,,,,,,,,加多宝,1,2024-05-31_01h01.13.809,interaction task chi,2021.2.3,Win32,60.24096386,,,,,,,,,,,,,,,,,小于,大于,,0.230210661,-0.520351427,1,0,0,RightButton,"[""RightButton""]",,,,,,,,,,,,,68.42618662,1.9956,space,31.54761257,3.4944,0,9,9,9,1,2,only_sub_right.png,3,RandomDot25.png,No answer,21,0.2145,,,,,,,,,,,,,,,,,,
,,,,,,,,,,,,,,,,,,,,,,,,,,,,,,,加多宝,1,2024-05-31_01h01.13.809,interaction task chi,2021.2.3,Win32,60.24096386,,,,,,,,,,,,,,,,,大于,小于,,0.29244733,-0.507232711,1,0,0,RightButton,"[""RightButton""]",,,,,,,,,,,,,,,,,,0,10,10,10,1,0,both_right.png,2,RandomDot36.png,No answer,19,,,,,,,,,,,,,,,,,,,
,,,,,,,,,,,,,,,,,,,,,,,,,,,,,,,加多宝,1,2024-05-31_01h01.13.809,interaction task chi,2021.2.3,Win32,60.24096386,,,,,,,,,,,,,,,,,小于,大于,,0.356758501,-0.512855094,1,0,0,RightButton,"[""RightButton""]",,,,4.055166258,7.5218,space,0.3211,,,,,,,,,,,0,11,11,11,1,1,both_wrong.png,1,RandomDot17.png,No answer,20,,,,,,,,,,,,,,,,,,,
,,,,,,,,,,,,,,,,,,,,,,,,,,,,,,,加多宝,1,2024-05-31_01h01.13.809,interaction task chi,2021.2.3,Win32,60.24096386,,,,,,,,,,,,,,,,,大于,小于,,-0.315397093,-0.49786234,1,0,0,LeftButton,"[""LeftButton""]",,,,,,,,,,,,,83.30333954,1.9426,space,33.85252126,2.9445,0,12,12,12,1,2,only_sub_right.png,3,RandomDot10.png,No answer,19,0.5013,,,,,,,,,,,,,,,,,,
,,,,,,,,,,,,,,,,,,,,,,,,,,,,,,,加多宝,1,2024-05-31_01h01.13.809,interaction task chi,2021.2.3,Win32,60.24096386,,,,,,,,,,,,,,,,,大于,小于,,0.290372728,-0.479121508,1,0,0,RightButton,"[""RightButton""]",,,,3.951445367,3.5818,space,0.2671,,,,,,,,,,,0,13,13,13,1,3,only_sub_wrong.png,1,RandomDot4.png,No answer,20,,,,,,,,,,,,,,,,,,,
,,,,,,,,,,,,,,,,,,,,,,,,,,,,,,,加多宝,1,2024-05-31_01h01.13.809,interaction task chi,2021.2.3,Win32,60.24096386,,,,,,,,,,,,,,,,,大于,小于,,-0.290502514,-0.544714373,1,0,0,LeftButton,"[""LeftButton""]",,,,,,,,,,,,,,,,,,0,14,14,14,1,4,both_right.png,10,RandomDot41.png,LeftButton,5,,,,,,,,,,,,,,,,,,,
,,,,,,,,,,,,,,,,,,,,,,,,,,,,,,,加多宝,1,2024-05-31_01h01.13.809,interaction task chi,2021.2.3,Win32,60.24096386,,,,,,,,,,,,,,,,,小于,大于,,0.290372728,-0.516603171,1,0,0,RightButton,"[""RightButton""]",,,,,,,,70,2.6819,space,21,4.5008,,,,,,0,15,15,15,1,3,only_sub_wrong.png,2,RandomDot31.png,No answer,19,,,1.3821,,,,,,,,,,,,,,,,
,,,,,,,,,,,,,,,,,,,,,,,,,,,,,,,加多宝,1,2024-05-31_01h01.13.809,interaction task chi,2021.2.3,Win32,60.24096386,,,,,,,,,,,,,,,,,大于,小于,,0.313192853,-0.535344092,1,0,0,RightButton,"[""RightButton""]",39,3.0894,space,,,,,,,,,,,,,,,0,16,16,16,1,3,only_sub_wrong.png,0,RandomDot33.png,No answer,19,,,,1.1619,,,,,,,,,,,,,,,
,,,,,,,,,,,,,,,,,,,,,,,,,,,,,,,加多宝,1,2024-05-31_01h01.13.809,interaction task chi,2021.2.3,Win32,60.24096386,,,,,,,,,,,,,,,,,大于,小于,,-0.307098883,-0.507232711,1,0,0,LeftButton,"[""LeftButton""]",,,,,,,,,,,,,74.29323692,2.6048,space,38.46234864,4.2332,0,17,17,17,1,1,both_wrong.png,3,RandomDot13.png,No answer,21,1.5844,,,,,,,,,,,,,,,,,,
,,,,,,,,,,,,,,,,,,,,,,,,,,,,,,,加多宝,1,2024-05-31_01h01.13.809,interaction task chi,2021.2.3,Win32,60.24096386,,,,,,,,,,,,,,,,,大于,小于,,0.275850911,-0.479121508,1,0,0,RightButton,"[""RightButton""]",,,,,,,,,,,,,,,,,,0,18,18,18,1,5,both_right.png,10,RandomDot42.png,RightButton,20,,,,,,,,,,,,,,,,,,,
,,,,,,,,,,,,,,,,,,,,,,,,,,,,,,,加多宝,1,2024-05-31_01h01.13.809,interaction task chi,2021.2.3,Win32,60.24096386,,,,,,,,,,,,,,,,,小于,大于,,0.296596434,-0.505358762,1,0,0,RightButton,"[""RightButton""]",,,,,,,,,,,,,40.55772017,2.9196,space,52.50135293,4.2675,0,19,19,19,1,3,only_sub_wrong.png,3,RandomDot22.png,No answer,21,0.4048,,,,,,,,,,,,,,,,,,
,,,,,,,,,,,,,,,,,,,,,,,,,,,,,,,加多宝,1,2024-05-31_01h01.13.809,interaction task chi,2021.2.3,Win32,60.24096386,,,,,,,,,,,,,,,,,大于,小于,,-0.236564105,-0.490366007,1,0,0,LeftButton,"[""LeftButton""]",,,,,,,,61,1.8759,space,32,3.3177,,,,,,0,20,20,20,1,2,only_sub_right.png,2,RandomDot36.png,No answer,21,,,0.3996,,,,,,,,,,,,,,,,
,,,,,,,,,,,,,,,,,,,,,,,,,,,,,,,加多宝,1,2024-05-31_01h01.13.809,interaction task chi,2021.2.3,Win32,60.24096386,,,,,,,,,,,,,,,,,小于,大于,,-0.251085921,-0.505358762,1,0,0,LeftButton,"[""LeftButton""]",38,2.7277,space,,,,,,,,,,,,,,,0,21,21,21,1,2,only_sub_right.png,0,RandomDot39.png,No answer,19,,,,1.9999,,,,,,,,,,,,,,,
,,,,,,,,,,,,,,,,,,,,,,,,,,,,,,,加多宝,1,2024-05-31_01h01.13.809,interaction task chi,2021.2.3,Win32,60.24096386,,,,,,,,,,,,,,,,,小于,大于,,0.223987054,-0.494114173,1,0,0,RightButton,"[""RightButton""]",,,,,,,,,,,,,,,,,,0,22,22,22,1,0,both_right.png,0,RandomDot5.png,No answer,21,,,,,,,,,,,,,,,,,,,
,,,,,,,,,,,,,,,,,,,,,,,,,,,,,,,加多宝,1,2024-05-31_01h01.13.809,interaction task chi,2021.2.3,Win32,60.24096386,,,,,,,,,,,,,,,,,小于,大于,,0.257179891,-0.535344092,1,0,0,RightButton,"[""RightButton""]",,,,,,,,,,,,,49.77737493,2.952,space,58.57793539,5.5516,0,23,23,23,1,3,only_sub_wrong.png,3,RandomDot18.png,No answer,21,0.381,,,,,,,,,,,,,,,,,,
,,,,,,,,,,,,,,,,,,,,,,,,,,,,,,,加多宝,1,2024-05-31_01h01.13.809,interaction task chi,2021.2.3,Win32,60.24096386,,,,,,,,,,,,,,,,,小于,大于,,-0.226191244,-0.524099682,1,0,0,LeftButton,"[""LeftButton""]",,,,,,,,69,1.416,space,44,2.2735,,,,,,0,24,24,24,1,1,both_wrong.png,2,RandomDot8.png,No answer,20,,,0.5223,,,,,,,,,,,,,,,,
,,,,,,,,,,,,,,,,,,,,,,,,,,,,,,,加多宝,1,2024-05-31_01h01.13.809,interaction task chi,2021.2.3,Win32,60.24096386,,,,,,,,,,,,,,,,,大于,小于,,-0.26768234,-0.490366007,1,0,0,LeftButton,"[""LeftButton""]",60,3.8064,space,,,,,,,,,,,,,,,0,25,25,25,1,1,both_wrong.png,0,RandomDot32.png,No answer,19,,,,0.8994,,,,,,,,,,,,,,,
,,,,,,,,,,,,,,,,,,,,,,,,,,,,,,,加多宝,1,2024-05-31_01h01.13.809,interaction task chi,2021.2.3,Win32,60.24096386,,,,,,,,,,,,,,,,,小于,大于,,-0.263533235,-0.509106839,1,0,0,LeftButton,"[""LeftButton""]",63,2.6756,space,,,,,,,,,,,,,,,0,26,26,26,1,3,only_sub_wrong.png,0,RandomDot16.png,No answer,21,,,,1.2035,,,,,,,,,,,,,,,
,,,,,,,,,,,,,,,,,,,,,,,,,,,,,,,加多宝,1,2024-05-31_01h01.13.809,interaction task chi,2021.2.3,Win32,60.24096386,,,,,,,,,,,,,,,,,小于,大于,,0.259254394,-0.475373342,1,0,0,RightButton,"[""RightButton""]",,,,,,,,76,3.6362,space,21,4.7488,,,,,,0,27,27,27,1,3,only_sub_wrong.png,2,RandomDot15.png,No answer,21,,,0.4834,,,,,,,,,,,,,,,,
,,,,,,,,,,,,,,,,,,,,,,,,,,,,,,,加多宝,1,2024-05-31_01h01.13.809,interaction task chi,2021.2.3,Win32,60.24096386,,,,,,,,,,,,,,,,,小于,大于,,-0.249011369,-0.48849179,1,0,0,LeftButton,"[""LeftButton""]",,,,,,,,,,,,,,,,,,0,28,28,28,1,0,both_right.png,1,RandomDot3.png,No answer,19,,,,,,,,,,,,,,,,,,,
,,,,,,,,,,,,,,,,,,,,,,,,,,,,,,,加多宝,1,2024-05-31_01h01.13.809,interaction task chi,2021.2.3,Win32,60.24096386,,,,,,,,,,,,,,,,,小于,大于,,0.242657975,-0.501610506,1,0,0,RightButton,"[""RightButton""]",58,2.8105,space,,,,,,,,,,,,,,,0,29,29,29,1,3,only_sub_wrong.png,0,RandomDot2.png,No answer,20,,,,1.4516,,,,,,,,,,,,,,,
,,,,,,,,,,,,,,,,,,,,,,,,,,,,,,,加多宝,1,2024-05-31_01h01.13.809,interaction task chi,2021.2.3,Win32,60.24096386,,,,,,,,,,,,,,,,,小于,大于,,0.29244733,-0.479121508,1,0,0,RightButton,"[""RightButton""]",,,,,,,,,,,,,,,,,,0,30,30,30,1,0,both_right.png,3,RandomDot13.png,No answer,20,,,,,,,,,,,,,,,,,,,
,,,,,,,,,,,,,,,,,,,,,,,,,,,,,,,加多宝,1,2024-05-31_01h01.13.809,interaction task chi,2021.2.3,Win32,60.24096386,,,,,,,,,,,,,,,,,大于,小于,,0.269627205,-0.501610506,1,0,0,RightButton,"[""RightButton""]",59,2.2094,space,,,,,,,,,,,,,,,0,31,31,31,1,1,both_wrong.png,0,RandomDot16.png,No answer,19,,,,1.2307,,,,,,,,,,,,,,,
,,,,,,,,,,,,,,,,,,,,,,,,,,,,,,,加多宝,1,2024-05-31_01h01.13.809,interaction task chi,2021.2.3,Win32,60.24096386,,,,,,,,,,,,,,,,,小于,大于,,0.313192853,-0.510980966,1,0,0,RightButton,"[""RightButton""]",,,,,,,,,,,,,68.21665446,1.2586,space,43.70078248,2.2412,0,32,32,32,1,1,both_wrong.png,3,RandomDot29.png,No answer,19,0.4336,,,,,,,,,,,,,,,,,,
,,,,,,,,,,,,,,,,,,,,,,,,,,,,,,,加多宝,1,2024-05-31_01h01.13.809,interaction task chi,2021.2.3,Win32,60.24096386,,,,,,,,,,,,,,,,,大于,小于,,0.221912452,-0.499736378,1,0,0,RightButton,"[""RightButton""]",59,1.5666,space,,,,,,,,,,,,,,,0,33,33,33,1,2,only_sub_right.png,0,RandomDot33.png,No answer,21,,,,0.3381,,,,,,,,,,,,,,,
,,,,,,,,,,,,,,,,,,,,,,,,,,,,,,,加多宝,1,2024-05-31_01h01.13.809,interaction task chi,2021.2.3,Win32,60.24096386,,,,,,,,,,,,,,,,,大于,小于,,0.300745539,-0.495988391,1,0,0,RightButton,"[""RightButton""]",,,,,,,,,,,,,46.84384478,1.6249,space,54.17765017,2.5938,0,34,34,34,1,2,only_sub_right.png,3,RandomDot23.png,No answer,20,1.3076,,,,,,,,,,,,,,,,,,
,,,,,,,,,,,,,,,,,,,,,,,,,,,,,,,加多宝,1,2024-05-31_01h01.13.809,interaction task chi,2021.2.3,Win32,60.24096386,,,,,,,,,,,,,,,,,大于,小于,,0.29244733,-0.512855094,1,0,0,RightButton,"[""RightButton""]",,,,,,,,62,2.6632,space,21,3.8454,,,,,,0,35,35,35,1,1,both_wrong.png,2,RandomDot13.png,No answer,21,,,0.1806,,,,,,,,,,,,,,,,
,,,,,,,,,,,,,,,,,,,,,,,,,,,,,,,加多宝,1,2024-05-31_01h01.13.809,interaction task chi,2021.2.3,Win32,60.24096386,,,,,,,,,,,,,,,,,大于,小于,,0.261328996,-0.509106839,1,0,0,RightButton,"[""RightButton""]",,,,3.028328693,1.5819,space,0.3318,,,,,,,,,,,0,36,36,36,1,2,only_sub_right.png,1,RandomDot6.png,No answer,21,,,,,,,,,,,,,,,,,,,
,,,,,,,,,,,,,,,,,,,,,,,,,,,,,,,加多宝,1,2024-05-31_01h01.13.809,interaction task chi,2021.2.3,Win32,60.24096386,,,,,,,,,,,,,,,,,小于,大于,,0.344311187,-0.510980966,1,0,0,RightButton,"[""RightButton""]",,,,,,,,,,,,,54.80625663,1.6763,space,63.60682709,3.6422,0,37,37,37,1,3,only_sub_wrong.png,3,RandomDot38.png,No answer,20,0.3021,,,,,,,,,,,,,,,,,,
,,,,,,,,,,,,,,,,,,,,,,,,,,,,,,,加多宝,1,2024-05-31_01h01.13.809,interaction task chi,2021.2.3,Win32,60.24096386,,,,,,,,,,,,,,,,,小于,大于,,0.250956184,-0.518477299,1,0,0,RightButton,"[""RightButton""]",,,,,,,,48,2.9822,space,24,5.0167,,,,,,0,38,38,38,1,2,only_sub_right.png,2,RandomDot22.png,No answer,19,,,1.5374,,,,,,,,,,,,,,,,
,,,,,,,,,,,,,,,,,,,,,,,,,,,,,,,加多宝,1,2024-05-31_01h01.13.809,interaction task chi,2021.2.3,Win32,60.24096386,,,,,,,,,,,,,,,,,小于,大于,,0.288298225,-0.524099682,1,0,0,RightButton,"[""RightButton""]",,,,3.183910277,1.8985,space,0.2351,,,,,,,,,,,0,39,39,39,1,2,only_sub_right.png,1,RandomDot15.png,No answer,19,,,,,,,,,,,,,,,,,,,
,,,,,,,,,,,,,,,,,,,,,,,,,,,,,,,加多宝,1,2024-05-31_01h01.13.809,interaction task chi,2021.2.3,Win32,60.24096386,,,,,,,,,,,,,,,,,大于,小于,,-0.238638657,-0.516603171,1,0,0,LeftButton,"[""LeftButton""]",,,,,,,,49,2.7636,space,29,3.5304,,,,,,0,40,40,40,1,2,only_sub_right.png,2,RandomDot18.png,No answer,19,,,0.6376,,,,,,,,,,,,,,,,
,,,,,,,,,,,,,,,,,,,,,,,,,,,,,,,加多宝,1,2024-05-31_01h01.13.809,interaction task chi,2021.2.3,Win32,60.24096386,,,,,,,,,,,,,,,,,大于,小于,,0.302820042,-0.48661793,1,0,0,RightButton,"[""RightButton""]",,,,2.976468,1.4817,space,0.2086,,,,,,,,,,,0,41,41,41,1,3,only_sub_wrong.png,1,RandomDot8.png,No answer,21,,,,,,,,,,,,,,,,,,,
,,,,,,,,,,,,,,,,,,,,,,,,,,,,,,,加多宝,1,2024-05-31_01h01.13.809,interaction task chi,2021.2.3,Win32,60.24096386,,,,,,,,,,,,,,,,,小于,大于,,-0.302949779,-0.490366007,1,0,0,LeftButton,"[""LeftButton""]",,,,,,,,68,1.3156,space,37,2.4036,,,,,,,,,,,3,only_sub_wrong.png,2,RandomDot15.png,No answer,20,,,1.7483,,,,,,,,,,,0,0,0,0,1,
,,,,,,,,,,,,,,,,,,,,,,,,,,,,,,,加多宝,1,2024-05-31_01h01.13.809,interaction task chi,2021.2.3,Win32,60.24096386,,,,,,,,,,,,,,,,,,,,,,,,,,,,,,,,,,,,,,,,,,,,,,,,,,,,,,,,,,,6.115130835,17.1552,4.24815242,19.2409,5.019836444,21.31,1.920653248,23.0929,space,,,,,,23.8406