﻿chooserow,ParID,pre_instru_resp_2.keys,pre_instru_resp_2.rt,pre_instru_resp_3.keys,pre_instru_resp_3.rt,pre_instru_resp_9.keys,pre_instru_resp_9.rt,pre_instru_resp_8.keys,pre_instru_resp_8.rt,pre_instru_resp_4.keys,pre_instru_resp_4.rt,pre_instru_resp_5.keys,pre_instru_resp_5.rt,pre_instru_resp_6.keys,pre_instru_resp_6.rt,key_resp_3.keys,key_resp_3.rt,key_resp_4.keys,key_resp_4.rt,key_resp_5.keys,key_resp_5.rt,key_resp_6.keys,key_resp_6.rt,key_resp_7.keys,key_resp_7.rt,trials_2.thisRepN,trials_2.thisTrialN,trials_2.thisN,trials_2.thisIndex,trials_2.ran,participant,session,date,expName,psychopyVersion,OS,frameRate,pre_instru_resp.keys,pre_instru_resp.rt,clicked,judge_2.x,judge_2.y,judge_2.leftButton,judge_2.midButton,judge_2.rightButton,judge_2.clicked_name,trials.thisRepN,trials.thisTrialN,trials.thisN,trials.thisIndex,trials.ran,prac_answer,prac_dot_sti,dotlefttext,dotrighttext,prac_acc,judge.x,judge.y,judge.leftButton,judge.midButton,judge.rightButton,judge.clicked_name,clicked_guilt,slider_guilt.response,slider_guilt.rt,key_guilt.keys,share_slider.response,share_slider.rt,key_share.keys,key_share.rt,slider_apology.response,slider_apology.rt,key_apology.keys,slider_hide.response,slider_hide.rt,slider_forgiveness.response,slider_forgiveness.rt,key_forgiveness.keys,slider_mad.response,slider_mad.rt,trialseq.thisRepN,trialseq.thisTrialN,trialseq.thisN,trialseq.thisIndex,trialseq.ran,type_trial,stipic,DV,picture,answer,number,key_forgiveness.rt,key_guilt.rt,key_apology.rt,slider_friendly.response,slider_friendly.rt,slider_trustworthy.response,slider_trustworthy.rt,slider_competence.response,slider_competence.rt,slider_critical.response,slider_critical.rt,key_resp.keys,key_resp.rt
"[62,112,182,132,154,54,81,84,21,7,140,137,164,158,198,37,94,48,191,90,124,147,26,70,56,99,79,123,163,75,173,110,172,111,193,170,68,155,189,106,122,97]",挽冬,space,1.6073,space,8.5641,space,19.7508,space,28.148,space,56.193,space,12.2959,space,5.399,3,10.8996,3,11.2471,3,9.7188,2,6.9977,2,2.2027,0,0,0,0,1,挽冬,1,2024-05-31_12h55.43.673,interaction task chi,2021.2.3,Win32,60.02040694,,,,,,,,,,,,,,,,,,,,,,,,,,,,,,,,,,,,,,,,,,,,,,,,,,,,,,,,,,,,,,,,,,,
,,,,space,8.355,space,4.4975,space,9.9647,space,1.8667,space,1.4036,space,1.4873,3,3.3166,1,3.4498,3,5.4906,2,1.7677,2,1.2011,1,0,1,0,1,挽冬,1,2024-05-31_12h55.43.673,interaction task chi,2021.2.3,Win32,60.02040694,,,,,,,,,,,,,,,,,,,,,,,,,,,,,,,,,,,,,,,,,,,,,,,,,,,,,,,,,,,,,,,,,,,
,,,,,,,,,,,,,,,,,,,,,,,,,,,,,,,挽冬,1,2024-05-31_12h55.43.673,interaction task chi,2021.2.3,Win32,60.02040694,space,5.8751,"[""RightButton_2""]",0.283333397,-0.309259288,1,0,0,RightButton_2,0,0,0,0,1,LeftButton_2,9dot1.png,小于,大于,,,,,,,,,,,,,,,,,,,,,,,,,,,,,,,,,,,,,,,,,,,,,,,,,
,,,,,,,,,,,,,,,,,,,,,,,,,,,,,,,挽冬,1,2024-05-31_12h55.43.673,interaction task chi,2021.2.3,Win32,60.02040694,,,"[""LeftButton_2""]",-0.301041651,-0.325925954,1,0,0,LeftButton_2,0,1,1,1,1,LeftButton_2,11dot1.png,大于,小于,,,,,,,,,,,,,,,,,,,,,,,,,,,,,,,,,,,,,,,,,,,,,,,,,
,,,,,,,,,,,,,,,,,,,,,,,,,,,,,,,挽冬,1,2024-05-31_12h55.43.673,interaction task chi,2021.2.3,Win32,60.02040694,,,"[""LeftButton_2""]",-0.290625,-0.274074131,1,0,0,LeftButton_2,0,2,2,2,1,LeftButton_2,11dot1.png,大于,小于,,,,,,,,,,,,,,,,,,,,,,,,,,,,,,,,,,,,,,,,,,,,,,,,,
,,,,,,,,,,,,,,,,,,,,,,,,,,,,,,,挽冬,1,2024-05-31_12h55.43.673,interaction task chi,2021.2.3,Win32,60.02040694,,,,,,,,,,,,,,,,,大于,小于,0.4,-0.289583302,-0.475926039,1,0,0,LeftButton,"[""LeftButton""]",,,,4.973958492,8.8258,space,1.1196,,,,,,,,,,,0,0,0,0,1,1,both_wrong.png,1,RandomDot28.png,No answer,21,,,,,,,,,,,,,
,,,,,,,,,,,,,,,,,,,,,,,,,,,,,,,挽冬,1,2024-05-31_12h55.43.673,interaction task chi,2021.2.3,Win32,60.02040694,,,,,,,,,,,,,,,,,大于,小于,,-0.328125,-0.496296353,1,0,0,LeftButton,"[""LeftButton""]",,,,4.963541985,4.8354,space,0.8895,,,,,,,,,,,0,1,1,1,1,2,only_sub_right.png,1,RandomDot32.png,No answer,19,,,,,,,,,,,,,
,,,,,,,,,,,,,,,,,,,,,,,,,,,,,,,挽冬,1,2024-05-31_12h55.43.673,interaction task chi,2021.2.3,Win32,60.02040694,,,,,,,,,,,,,,,,,大于,小于,,-0.294791651,-0.490740797,1,0,0,LeftButton,"[""LeftButton""]",,,,,,,,,,,,,70.09680777,9.358,space,49.47390893,13.6183,0,2,2,2,1,3,only_sub_wrong.png,3,RandomDot8.png,No answer,21,2.6332,,,,,,,,,,,,
,,,,,,,,,,,,,,,,,,,,,,,,,,,,,,,挽冬,1,2024-05-31_12h55.43.673,interaction task chi,2021.2.3,Win32,60.02040694,,,,,,,,,,,,,,,,,大于,小于,,-0.279166651,-0.503703817,1,0,0,LeftButton,"[""LeftButton""]",,,,,,,,,,,,,90.08838384,4.4057,space,20.22306558,6.5214,0,3,3,3,1,2,only_sub_right.png,3,RandomDot20.png,No answer,21,1.2168,,,,,,,,,,,,
,,,,,,,,,,,,,,,,,,,,,,,,,,,,,,,挽冬,1,2024-05-31_12h55.43.673,interaction task chi,2021.2.3,Win32,60.02040694,,,,,,,,,,,,,,,,,小于,大于,,-0.277083302,-0.505555556,1,0,0,LeftButton,"[""LeftButton""]",90,2.8057,space,,,,,,,,,,,,,,,0,4,4,4,1,3,only_sub_wrong.png,0,RandomDot25.png,No answer,21,,1.9007,,,,,,,,,,,
,,,,,,,,,,,,,,,,,,,,,,,,,,,,,,,挽冬,1,2024-05-31_12h55.43.673,interaction task chi,2021.2.3,Win32,60.02040694,,,,,,,,,,,,,,,,,小于,大于,,0.298958397,-0.501851908,1,0,0,RightButton,"[""RightButton""]",70,3.2737,space,,,,,,,,,,,,,,,0,5,5,5,1,1,both_wrong.png,0,RandomDot23.png,No answer,20,,1.0709,,,,,,,,,,,
,,,,,,,,,,,,,,,,,,,,,,,,,,,,,,,挽冬,1,2024-05-31_12h55.43.673,interaction task chi,2021.2.3,Win32,60.02040694,,,,,,,,,,,,,,,,,小于,大于,,0.320833397,-0.501851908,1,0,0,RightButton,"[""RightButton""]",,,,,,,,80,3.0528,space,50,9.1686,,,,,,0,6,6,6,1,1,both_wrong.png,2,RandomDot21.png,No answer,20,,,3.9169,,,,,,,,,,
,,,,,,,,,,,,,,,,,,,,,,,,,,,,,,,挽冬,1,2024-05-31_12h55.43.673,interaction task chi,2021.2.3,Win32,60.02040694,,,,,,,,,,,,,,,,,大于,小于,,-0.296875,-0.494444444,1,0,0,LeftButton,"[""LeftButton""]",,,,,,,,,,,,,69.36027257,3.3691,space,49.15825237,5.179,0,7,7,7,1,1,both_wrong.png,3,RandomDot6.png,No answer,20,2.169,,,,,,,,,,,,
,,,,,,,,,,,,,,,,,,,,,,,,,,,,,,,挽冬,1,2024-05-31_12h55.43.673,interaction task chi,2021.2.3,Win32,60.02040694,,,,,,,,,,,,,,,,,小于,大于,,-0.286458302,-0.496296353,1,0,0,LeftButton,"[""LeftButton""]",,,,,,,,,,,,,,,,,,0,8,8,8,1,0,both_right.png,1,RandomDot8.png,No answer,21,,,,,,,,,,,,,
,,,,,,,,,,,,,,,,,,,,,,,,,,,,,,,挽冬,1,2024-05-31_12h55.43.673,interaction task chi,2021.2.3,Win32,60.02040694,,,,,,,,,,,,,,,,,小于,大于,,0.282291698,-0.488888889,1,0,0,RightButton,"[""RightButton""]",,,,,,,,,,,,,,,,,,0,9,9,9,1,0,both_right.png,0,RandomDot27.png,No answer,19,,,,,,,,,,,,,
,,,,,,,,,,,,,,,,,,,,,,,,,,,,,,,挽冬,1,2024-05-31_12h55.43.673,interaction task chi,2021.2.3,Win32,60.02040694,,,,,,,,,,,,,,,,,小于,大于,,0.288541698,-0.492592706,1,0,0,RightButton,"[""RightButton""]",,,,,,,,,,,,,89.77272727,3.3503,space,19.6969697,6.5432,0,10,10,10,1,2,only_sub_right.png,3,RandomDot8.png,No answer,19,1.1015,,,,,,,,,,,,
,,,,,,,,,,,,,,,,,,,,,,,,,,,,,,,挽冬,1,2024-05-31_12h55.43.673,interaction task chi,2021.2.3,Win32,60.02040694,,,,,,,,,,,,,,,,,大于,小于,,-0.294791651,-0.485185242,1,0,0,LeftButton,"[""LeftButton""]",,,,,,,,,,,,,89.98317141,3.0546,space,19.80219176,5.2353,0,11,11,11,1,2,only_sub_right.png,3,RandomDot23.png,No answer,20,1.21,,,,,,,,,,,,
,,,,,,,,,,,,,,,,,,,,,,,,,,,,,,,挽冬,1,2024-05-31_12h55.43.673,interaction task chi,2021.2.3,Win32,60.02040694,,,,,,,,,,,,,,,,,小于,大于,,-0.294791651,-0.501851908,1,0,0,LeftButton,"[""LeftButton""]",,,,4.947916985,4.8532,space,5.8412,,,,,,,,,,,0,12,12,12,1,3,only_sub_wrong.png,1,RandomDot40.png,No answer,19,,,,,,,,,,,,,
,,,,,,,,,,,,,,,,,,,,,,,,,,,,,,,挽冬,1,2024-05-31_12h55.43.673,interaction task chi,2021.2.3,Win32,60.02040694,,,,,,,,,,,,,,,,,大于,小于,,0.3,-0.485185242,1,0,0,RightButton,"[""RightButton""]",,,,4.984375,2.7351,space,1.3404,,,,,,,,,,,0,13,13,13,1,3,only_sub_wrong.png,1,RandomDot1.png,No answer,19,,,,,,,,,,,,,
,,,,,,,,,,,,,,,,,,,,,,,,,,,,,,,挽冬,1,2024-05-31_12h55.43.673,interaction task chi,2021.2.3,Win32,60.02040694,,,,,,,,,,,,,,,,,大于,小于,,0.285416698,-0.466666667,1,0,0,RightButton,"[""RightButton""]",,,,,,,,,,,,,,,,,,0,14,14,14,1,5,both_right.png,10,RandomDot42.png,RightButton,20,,,,,,,,,,,,,
,,,,,,,,,,,,,,,,,,,,,,,,,,,,,,,挽冬,1,2024-05-31_12h55.43.673,interaction task chi,2021.2.3,Win32,60.02040694,,,,,,,,,,,,,,,,,大于,小于,,-0.310416651,-0.516666667,1,0,0,LeftButton,"[""LeftButton""]",,,,,,,,,,,,,,,,,,0,15,15,15,1,0,both_right.png,3,RandomDot27.png,No answer,20,,,,,,,,,,,,,
,,,,,,,,,,,,,,,,,,,,,,,,,,,,,,,挽冬,1,2024-05-31_12h55.43.673,interaction task chi,2021.2.3,Win32,60.02040694,,,,,,,,,,,,,,,,,小于,大于,,0.273958397,-0.505555556,1,0,0,RightButton,"[""RightButton""]",,,,,,,,,,,,,80.40825237,3.9318,space,49.36868687,5.7424,0,16,16,16,1,1,both_wrong.png,3,RandomDot25.png,No answer,21,0.92,,,,,,,,,,,,
,,,,,,,,,,,,,,,,,,,,,,,,,,,,,,,挽冬,1,2024-05-31_12h55.43.673,interaction task chi,2021.2.3,Win32,60.02040694,,,,,,,,,,,,,,,,,大于,小于,,0.298958397,-0.520370483,1,0,0,RightButton,"[""RightButton""]",69,2.9931,space,,,,,,,,,,,,,,,0,17,17,17,1,1,both_wrong.png,0,RandomDot24.png,No answer,21,,0.8572,,,,,,,,,,,
,,,,,,,,,,,,,,,,,,,,,,,,,,,,,,,挽冬,1,2024-05-31_12h55.43.673,interaction task chi,2021.2.3,Win32,60.02040694,,,,,,,,,,,,,,,,,小于,大于,,0.278125,-0.488888889,1,0,0,RightButton,"[""RightButton""]",,,,,,,,,,,,,64.20454545,4.1989,space,58.9436059,6.08,0,18,18,18,1,3,only_sub_wrong.png,3,RandomDot36.png,No answer,21,0.4543,,,,,,,,,,,,
,,,,,,,,,,,,,,,,,,,,,,,,,,,,,,,挽冬,1,2024-05-31_12h55.43.673,interaction task chi,2021.2.3,Win32,60.02040694,,,,,,,,,,,,,,,,,小于,大于,,0.298958397,-0.5,1,0,0,RightButton,"[""RightButton""]",,,,,,,,,,,,,69.67592914,4.4122,space,49.36868687,6.5031,0,19,19,19,1,1,both_wrong.png,3,RandomDot29.png,No answer,19,0.5245,,,,,,,,,,,,
,,,,,,,,,,,,,,,,,,,,,,,,,,,,,,,挽冬,1,2024-05-31_12h55.43.673,interaction task chi,2021.2.3,Win32,60.02040694,,,,,,,,,,,,,,,,,大于,小于,,0.319791698,-0.535185242,1,0,0,RightButton,"[""RightButton""]",,,,,,,,69,3.3811,space,51,7.4978,,,,,,0,20,20,20,1,2,only_sub_right.png,2,RandomDot20.png,No answer,20,,,0.4717,,,,,,,,,,
,,,,,,,,,,,,,,,,,,,,,,,,,,,,,,,挽冬,1,2024-05-31_12h55.43.673,interaction task chi,2021.2.3,Win32,60.02040694,,,,,,,,,,,,,,,,,大于,小于,,0.297916698,-0.514814928,1,0,0,RightButton,"[""RightButton""]",90,2.3289,space,,,,,,,,,,,,,,,0,21,21,21,1,3,only_sub_wrong.png,0,RandomDot5.png,No answer,20,,1.176,,,,,,,,,,,
,,,,,,,,,,,,,,,,,,,,,,,,,,,,,,,挽冬,1,2024-05-31_12h55.43.673,interaction task chi,2021.2.3,Win32,60.02040694,,,,,,,,,,,,,,,,,大于,小于,,0.292708397,-0.492592706,1,0,0,RightButton,"[""RightButton""]",,,,,,,,,,,,,,,,,,0,22,22,22,1,0,both_right.png,2,RandomDot36.png,No answer,19,,,,,,,,,,,,,
,,,,,,,,,,,,,,,,,,,,,,,,,,,,,,,挽冬,1,2024-05-31_12h55.43.673,interaction task chi,2021.2.3,Win32,60.02040694,,,,,,,,,,,,,,,,,小于,大于,,-0.301041651,-0.485185242,1,0,0,LeftButton,"[""LeftButton""]",,,,4.984375,3.3064,space,0.9708,,,,,,,,,,,0,23,23,23,1,1,both_wrong.png,1,RandomDot29.png,No answer,19,,,,,,,,,,,,,
,,,,,,,,,,,,,,,,,,,,,,,,,,,,,,,挽冬,1,2024-05-31_12h55.43.673,interaction task chi,2021.2.3,Win32,60.02040694,,,,,,,,,,,,,,,,,小于,大于,,-0.289583302,-0.48703715,1,0,0,LeftButton,"[""LeftButton""]",80,3.6035,space,,,,,,,,,,,,,,,0,24,24,24,1,1,both_wrong.png,0,RandomDot39.png,No answer,21,,1.5691,,,,,,,,,,,
,,,,,,,,,,,,,,,,,,,,,,,,,,,,,,,挽冬,1,2024-05-31_12h55.43.673,interaction task chi,2021.2.3,Win32,60.02040694,,,,,,,,,,,,,,,,,大于,小于,,-0.297916651,-0.527777778,1,0,0,LeftButton,"[""LeftButton""]",70,2.0601,space,,,,,,,,,,,,,,,0,25,25,25,1,2,only_sub_right.png,0,RandomDot21.png,No answer,19,,0.4989,,,,,,,,,,,
,,,,,,,,,,,,,,,,,,,,,,,,,,,,,,,挽冬,1,2024-05-31_12h55.43.673,interaction task chi,2021.2.3,Win32,60.02040694,,,,,,,,,,,,,,,,,小于,大于,,-0.289583302,-0.488888889,1,0,0,LeftButton,"[""LeftButton""]",,,,,,,,79,3.3337,space,39,5.2649,,,,,,0,26,26,26,1,1,both_wrong.png,2,RandomDot24.png,No answer,21,,,1.2162,,,,,,,,,,
,,,,,,,,,,,,,,,,,,,,,,,,,,,,,,,挽冬,1,2024-05-31_12h55.43.673,interaction task chi,2021.2.3,Win32,60.02040694,,,,,,,,,,,,,,,,,大于,小于,,-0.309375,-0.498148261,1,0,0,LeftButton,"[""LeftButton""]",,,,,,,,70,2.2163,space,29,3.7157,,,,,,0,27,27,27,1,2,only_sub_right.png,2,RandomDot16.png,No answer,20,,,0.4227,,,,,,,,,,
,,,,,,,,,,,,,,,,,,,,,,,,,,,,,,,挽冬,1,2024-05-31_12h55.43.673,interaction task chi,2021.2.3,Win32,60.02040694,,,,,,,,,,,,,,,,,小于,大于,,0.288541698,-0.507407464,1,0,0,RightButton,"[""RightButton""]",,,,4.96875,2.2836,space,0.4169,,,,,,,,,,,0,28,28,28,1,3,only_sub_wrong.png,1,RandomDot6.png,No answer,20,,,,,,,,,,,,,
,,,,,,,,,,,,,,,,,,,,,,,,,,,,,,,挽冬,1,2024-05-31_12h55.43.673,interaction task chi,2021.2.3,Win32,60.02040694,,,,,,,,,,,,,,,,,大于,小于,,0.290625,-0.503703817,1,0,0,RightButton,"[""RightButton""]",,,,,,,,89,2.0988,space,38,5.9528,,,,,,0,29,29,29,1,1,both_wrong.png,2,RandomDot10.png,No answer,20,,,0.3871,,,,,,,,,,
,,,,,,,,,,,,,,,,,,,,,,,,,,,,,,,挽冬,1,2024-05-31_12h55.43.673,interaction task chi,2021.2.3,Win32,60.02040694,,,,,,,,,,,,,,,,,大于,小于,,-0.290625,-0.485185242,1,0,0,LeftButton,"[""LeftButton""]",,,,,,,,100,2.5936,space,10,4.6999,,,,,,0,30,30,30,1,3,only_sub_wrong.png,2,RandomDot20.png,No answer,19,,,0.3407,,,,,,,,,,
,,,,,,,,,,,,,,,,,,,,,,,,,,,,,,,挽冬,1,2024-05-31_12h55.43.673,interaction task chi,2021.2.3,Win32,60.02040694,,,,,,,,,,,,,,,,,大于,小于,,-0.295833302,-0.516666667,1,0,0,LeftButton,"[""LeftButton""]",,,,4.989583492,2.9926,space,0.5116,,,,,,,,,,,0,31,31,31,1,2,only_sub_right.png,1,RandomDot6.png,No answer,21,,,,,,,,,,,,,
,,,,,,,,,,,,,,,,,,,,,,,,,,,,,,,挽冬,1,2024-05-31_12h55.43.673,interaction task chi,2021.2.3,Win32,60.02040694,,,,,,,,,,,,,,,,,大于,小于,,0.310416698,-0.490740797,1,0,0,RightButton,"[""RightButton""]",,,,,,,,91,2.2831,space,10,4.05,,,,,,0,32,32,32,1,3,only_sub_wrong.png,2,RandomDot38.png,No answer,21,,,0.4578,,,,,,,,,,
,,,,,,,,,,,,,,,,,,,,,,,,,,,,,,,挽冬,1,2024-05-31_12h55.43.673,interaction task chi,2021.2.3,Win32,60.02040694,,,,,,,,,,,,,,,,,大于,小于,,-0.286458302,-0.509259372,1,0,0,LeftButton,"[""LeftButton""]",,,,4.96875,2.5835,space,0.6534,,,,,,,,,,,0,33,33,33,1,2,only_sub_right.png,1,RandomDot4.png,No answer,19,,,,,,,,,,,,,
,,,,,,,,,,,,,,,,,,,,,,,,,,,,,,,挽冬,1,2024-05-31_12h55.43.673,interaction task chi,2021.2.3,Win32,60.02040694,,,,,,,,,,,,,,,,,大于,小于,,-0.3,-0.501851908,1,0,0,LeftButton,"[""LeftButton""]",,,,,,,,,,,,,,,,,,0,34,34,34,1,4,both_right.png,10,RandomDot41.png,LeftButton,5,,,,,,,,,,,,,
,,,,,,,,,,,,,,,,,,,,,,,,,,,,,,,挽冬,1,2024-05-31_12h55.43.673,interaction task chi,2021.2.3,Win32,60.02040694,,,,,,,,,,,,,,,,,大于,小于,,-0.314583302,-0.507407464,1,0,0,LeftButton,"[""LeftButton""]",,,,,,,,99,1.888,space,21,4.6175,,,,,,0,35,35,35,1,3,only_sub_wrong.png,2,RandomDot39.png,No answer,20,,,1.8996,,,,,,,,,,
,,,,,,,,,,,,,,,,,,,,,,,,,,,,,,,挽冬,1,2024-05-31_12h55.43.673,interaction task chi,2021.2.3,Win32,60.02040694,,,,,,,,,,,,,,,,,小于,大于,,-0.288541651,-0.5,1,0,0,LeftButton,"[""LeftButton""]",,,,4.984375,2.0888,space,0.4362,,,,,,,,,,,0,36,36,36,1,1,both_wrong.png,1,RandomDot8.png,No answer,21,,,,,,,,,,,,,
,,,,,,,,,,,,,,,,,,,,,,,,,,,,,,,挽冬,1,2024-05-31_12h55.43.673,interaction task chi,2021.2.3,Win32,60.02040694,,,,,,,,,,,,,,,,,小于,大于,,0.311458397,-0.48703715,1,0,0,RightButton,"[""RightButton""]",90,2.4301,space,,,,,,,,,,,,,,,0,37,37,37,1,3,only_sub_wrong.png,0,RandomDot2.png,No answer,20,,0.7158,,,,,,,,,,,
,,,,,,,,,,,,,,,,,,,,,,,,,,,,,,,挽冬,1,2024-05-31_12h55.43.673,interaction task chi,2021.2.3,Win32,60.02040694,,,,,,,,,,,,,,,,,小于,大于,,0.288541698,-0.466666667,1,0,0,RightButton,"[""RightButton""]",,,,,,,,,,,,,69.88636364,2.8977,space,55.26094918,5.4511,0,38,38,38,1,3,only_sub_wrong.png,3,RandomDot38.png,No answer,20,0.4012,,,,,,,,,,,,
,,,,,,,,,,,,,,,,,,,,,,,,,,,,,,,挽冬,1,2024-05-31_12h55.43.673,interaction task chi,2021.2.3,Win32,60.02040694,,,,,,,,,,,,,,,,,小于,大于,,0.2875,-0.505555556,1,0,0,RightButton,"[""RightButton""]",51,5.791,space,,,,,,,,,,,,,,,0,39,39,39,1,2,only_sub_right.png,0,RandomDot39.png,No answer,19,,4.0533,,,,,,,,,,,
,,,,,,,,,,,,,,,,,,,,,,,,,,,,,,,挽冬,1,2024-05-31_12h55.43.673,interaction task chi,2021.2.3,Win32,60.02040694,,,,,,,,,,,,,,,,,大于,小于,,-0.297916651,-0.496296353,1,0,0,LeftButton,"[""LeftButton""]",,,,,,,,60,3.1398,space,39,4.6068,,,,,,0,40,40,40,1,2,only_sub_right.png,2,RandomDot33.png,No answer,20,,,0.3488,,,,,,,,,,
,,,,,,,,,,,,,,,,,,,,,,,,,,,,,,,挽冬,1,2024-05-31_12h55.43.673,interaction task chi,2021.2.3,Win32,60.02040694,,,,,,,,,,,,,,,,,大于,小于,,-0.294791651,-0.518518575,1,0,0,LeftButton,"[""LeftButton""]",50,2.4974,space,,,,,,,,,,,,,,,0,41,41,41,1,2,only_sub_right.png,0,RandomDot8.png,No answer,20,,0.5333,,,,,,,,,,,
,,,,,,,,,,,,,,,,,,,,,,,,,,,,,,,挽冬,1,2024-05-31_12h55.43.673,interaction task chi,2021.2.3,Win32,60.02040694,,,,,,,,,,,,,,,,,,,,,,,,,,,,,,,,,,,,,,,,,,,,,,,,,,,,,,,,,,5.981250381,10.615,6.012500191,24.4387,6.018750381,30.3752,2.981250381,28.5262,space,32.6694