﻿choose_trial,key_resp.keys,key_resp.rt,key_resp_4.keys,key_resp_4.rt,session_trait,key_resp_5.keys,key_resp_5.rt,slider_face_judge.response,slider_face_judge.rt,key_resp_3.keys,key_resp_3.rt,face_loop.thisRepN,face_loop.thisTrialN,face_loop.thisN,face_loop.thisIndex,face_loop.ran,face_serial,image_name,isCheck,answer,check_question,participant,session,date,expName,psychopyVersion,OS,frameRate,session.thisRepN,session.thisTrialN,session.thisN,session.thisIndex,session.ran,session_serial,slider_judge_img
"[0,1,2,3,4,5,6,7,8,9,10,11,12,13,14,15,16,17,18,19,20,21,22,23,24,25,26,27,28,29,30,31,32,33,34,35,36,37,38,39,40,41,42,43,44,45,46,47,48,49,58,55,57]",space,2.4186,space,117.8606,critical,space,22.6034,1.155555513,3.361,space,0.0829,0,0,0,48,1,49,image/49.jpg,0,0,,这是一个小天才,2,2024-05-31_01h49.52.191,face trait task chi,2021.2.3,Win32,60.24096386,,,,,,,
,,,,,,,,1.133333418,2.3877,space,0.1552,0,1,1,32,1,33,image/33.jpg,0,0,,这是一个小天才,2,2024-05-31_01h49.52.191,face trait task chi,2021.2.3,Win32,60.24096386,,,,,,,
,,,,,,,,4.972222222,2.1867,space,0.2004,0,2,2,26,1,27,image/27.jpg,0,0,,这是一个小天才,2,2024-05-31_01h49.52.191,face trait task chi,2021.2.3,Win32,60.24096386,,,,,,,
,,,,,,,,2.400000254,2.2696,space,0.2237,0,3,3,43,1,44,image/44.jpg,0,0,,这是一个小天才,2,2024-05-31_01h49.52.191,face trait task chi,2021.2.3,Win32,60.24096386,,,,,,,
,,,,,,,,1.394444572,1.7549,space,0.1168,0,4,4,20,1,21,image/21.jpg,0,0,,这是一个小天才,2,2024-05-31_01h49.52.191,face trait task chi,2021.2.3,Win32,60.24096386,,,,,,,
,,,,,,,,6.955555386,1.2464,space,0.4197,0,5,5,39,1,40,image/40.jpg,0,0,,这是一个小天才,2,2024-05-31_01h49.52.191,face trait task chi,2021.2.3,Win32,60.24096386,,,,,,,
,,,,,,,,6.094444275,1.6637,space,0.0921,0,6,6,16,1,17,image/17.jpg,0,0,,这是一个小天才,2,2024-05-31_01h49.52.191,face trait task chi,2021.2.3,Win32,60.24096386,,,,,,,
,,,,,,,,2.322222392,2.0547,space,0.2416,0,7,7,37,1,38,image/38.jpg,0,0,,这是一个小天才,2,2024-05-31_01h49.52.191,face trait task chi,2021.2.3,Win32,60.24096386,,,,,,,
,,,,,,,,6.238889058,1.3112,space,0.1022,0,8,8,47,1,48,image/48.jpg,0,0,,这是一个小天才,2,2024-05-31_01h49.52.191,face trait task chi,2021.2.3,Win32,60.24096386,,,,,,,
,,,,,,,,6.91111162,1.3962,space,0.4087,0,9,9,27,1,28,image/28.jpg,0,0,,这是一个小天才,2,2024-05-31_01h49.52.191,face trait task chi,2021.2.3,Win32,60.24096386,,,,,,,
,,,,,,,,6.922222561,1.4062,space,0.2653,0,10,10,42,1,43,image/43.jpg,0,0,,这是一个小天才,2,2024-05-31_01h49.52.191,face trait task chi,2021.2.3,Win32,60.24096386,,,,,,,
,,,,,,,,6.955555386,1.4773,space,0.3047,0,11,11,0,1,1,image/1.jpg,0,0,,这是一个小天才,2,2024-05-31_01h49.52.191,face trait task chi,2021.2.3,Win32,60.24096386,,,,,,,
,,,,,,,,2.083333333,2.5035,space,0.1334,0,12,12,24,1,25,image/25.jpg,0,0,,这是一个小天才,2,2024-05-31_01h49.52.191,face trait task chi,2021.2.3,Win32,60.24096386,,,,,,,
,,,,,,,,6.005555895,2.9736,space,0.137,0,13,13,15,1,16,image/16.jpg,0,0,,这是一个小天才,2,2024-05-31_01h49.52.191,face trait task chi,2021.2.3,Win32,60.24096386,,,,,,,
,,,,,,,,4.022222307,1.7196,space,0.1741,0,14,14,25,1,26,image/26.jpg,0,0,,这是一个小天才,2,2024-05-31_01h49.52.191,face trait task chi,2021.2.3,Win32,60.24096386,,,,,,,
,,,,,,,,4.972222222,1.9297,space,0.1334,0,15,15,22,1,23,image/23.jpg,0,0,,这是一个小天才,2,2024-05-31_01h49.52.191,face trait task chi,2021.2.3,Win32,60.24096386,,,,,,,
,,,,,,,,1.561111238,1.8807,space,0.1879,0,16,16,4,1,5,image/5.jpg,0,0,,这是一个小天才,2,2024-05-31_01h49.52.191,face trait task chi,2021.2.3,Win32,60.24096386,,,,,,,
,,,,,,,,4,3.3446,space,0.1854,0,17,17,35,1,36,image/36.jpg,0,0,,这是一个小天才,2,2024-05-31_01h49.52.191,face trait task chi,2021.2.3,Win32,60.24096386,,,,,,,
,,,,,,,,2.527777778,2.5746,space,0.102,0,18,18,31,1,32,image/32.jpg,0,0,,这是一个小天才,2,2024-05-31_01h49.52.191,face trait task chi,2021.2.3,Win32,60.24096386,,,,,,,
,,,,,,,,3.994444529,2.4674,space,0.1758,0,19,19,7,1,8,image/8.jpg,0,0,,这是一个小天才,2,2024-05-31_01h49.52.191,face trait task chi,2021.2.3,Win32,60.24096386,,,,,,,
,,,,,,,,5.983333164,2.9029,space,0.4266,0,20,20,13,1,14,image/14.jpg,0,0,,这是一个小天才,2,2024-05-31_01h49.52.191,face trait task chi,2021.2.3,Win32,60.24096386,,,,,,,
,,,,,,,,6.855556064,1.78,space,0.2271,0,21,21,9,1,10,image/10.jpg,0,0,,这是一个小天才,2,2024-05-31_01h49.52.191,face trait task chi,2021.2.3,Win32,60.24096386,,,,,,,
,,,,,,,,2.5,5.0541,space,0.2494,0,22,22,11,1,12,image/12.jpg,0,0,,这是一个小天才,2,2024-05-31_01h49.52.191,face trait task chi,2021.2.3,Win32,60.24096386,,,,,,,
,,,,,,,,7,3.0303,space,1.1657,0,23,23,51,1,56,image/fill_img.png,1,7,请将滑块完全移动到<右边>，以示您在专心判断。,这是一个小天才,2,2024-05-31_01h49.52.191,face trait task chi,2021.2.3,Win32,60.24096386,,,,,,,
,,,,,,,,4.983333588,1.8345,space,0.0749,0,24,24,36,1,37,image/37.jpg,0,0,,这是一个小天才,2,2024-05-31_01h49.52.191,face trait task chi,2021.2.3,Win32,60.24096386,,,,,,,
,,,,,,,,6.005555895,1.2816,space,0.2442,0,25,25,6,1,7,image/7.jpg,0,0,,这是一个小天才,2,2024-05-31_01h49.52.191,face trait task chi,2021.2.3,Win32,60.24096386,,,,,,,
,,,,,,,,3.022222307,1.8351,space,0.1415,0,26,26,46,1,47,image/47.jpg,0,0,,这是一个小天才,2,2024-05-31_01h49.52.191,face trait task chi,2021.2.3,Win32,60.24096386,,,,,,,
,,,,,,,,6.672222561,1.7524,space,0.2326,0,27,27,10,1,11,image/11.jpg,0,0,,这是一个小天才,2,2024-05-31_01h49.52.191,face trait task chi,2021.2.3,Win32,60.24096386,,,,,,,
,,,,,,,,6.988889058,2.1266,space,0.3682,0,28,28,14,1,15,image/15.jpg,0,0,,这是一个小天才,2,2024-05-31_01h49.52.191,face trait task chi,2021.2.3,Win32,60.24096386,,,,,,,
,,,,,,,,1.988888847,1.8624,space,0.1183,0,29,29,49,1,50,image/50.jpg,0,0,,这是一个小天才,2,2024-05-31_01h49.52.191,face trait task chi,2021.2.3,Win32,60.24096386,,,,,,,
,,,,,,,,6.64999983,1.9301,space,0.0925,0,30,30,19,1,20,image/20.jpg,0,0,,这是一个小天才,2,2024-05-31_01h49.52.191,face trait task chi,2021.2.3,Win32,60.24096386,,,,,,,
,,,,,,,,4.983333588,2.212,space,0.1505,0,31,31,44,1,45,image/45.jpg,0,0,,这是一个小天才,2,2024-05-31_01h49.52.191,face trait task chi,2021.2.3,Win32,60.24096386,,,,,,,
,,,,,,,,6.944444444,1.5026,space,0.1825,0,32,32,45,1,46,image/46.jpg,0,0,,这是一个小天才,2,2024-05-31_01h49.52.191,face trait task chi,2021.2.3,Win32,60.24096386,,,,,,,
,,,,,,,,1.211111069,1.5701,space,0.1406,0,33,33,2,1,3,image/3.jpg,0,0,,这是一个小天才,2,2024-05-31_01h49.52.191,face trait task chi,2021.2.3,Win32,60.24096386,,,,,,,
,,,,,,,,4.5,1.9811,space,0.1044,0,34,34,12,1,13,image/13.jpg,0,0,,这是一个小天才,2,2024-05-31_01h49.52.191,face trait task chi,2021.2.3,Win32,60.24096386,,,,,,,
,,,,,,,,7,2.525,space,0.695,0,35,35,50,1,59,image/fill_img.png,1,7,请将滑块完全移动到<右边>，以示您在专心判断。,这是一个小天才,2,2024-05-31_01h49.52.191,face trait task chi,2021.2.3,Win32,60.24096386,,,,,,,
,,,,,,,,6.988889058,1.5871,space,0.3698,0,36,36,41,1,42,image/42.jpg,0,0,,这是一个小天才,2,2024-05-31_01h49.52.191,face trait task chi,2021.2.3,Win32,60.24096386,,,,,,,
,,,,,,,,6.038888719,1.5306,space,0.5406,0,37,37,33,1,34,image/34.jpg,0,0,,这是一个小天才,2,2024-05-31_01h49.52.191,face trait task chi,2021.2.3,Win32,60.24096386,,,,,,,
,,,,,,,,4.016666836,2.27,space,0.3435,0,38,38,1,1,2,image/2.jpg,0,0,,这是一个小天才,2,2024-05-31_01h49.52.191,face trait task chi,2021.2.3,Win32,60.24096386,,,,,,,
,,,,,,,,1.211111069,1.4789,space,0.1777,0,39,39,3,1,4,image/4.jpg,0,0,,这是一个小天才,2,2024-05-31_01h49.52.191,face trait task chi,2021.2.3,Win32,60.24096386,,,,,,,
,,,,,,,,6.983333164,2.2422,space,0.3744,0,40,40,21,1,22,image/22.jpg,0,0,,这是一个小天才,2,2024-05-31_01h49.52.191,face trait task chi,2021.2.3,Win32,60.24096386,,,,,,,
,,,,,,,,6.905555725,1.9204,space,0.962,0,41,41,38,1,39,image/39.jpg,0,0,,这是一个小天才,2,2024-05-31_01h49.52.191,face trait task chi,2021.2.3,Win32,60.24096386,,,,,,,
,,,,,,,,1.038888931,2.8239,space,0.329,0,42,42,34,1,35,image/35.jpg,0,0,,这是一个小天才,2,2024-05-31_01h49.52.191,face trait task chi,2021.2.3,Win32,60.24096386,,,,,,,
,,,,,,,,6,1.7206,space,1.1885,0,43,43,17,1,18,image/18.jpg,0,0,,这是一个小天才,2,2024-05-31_01h49.52.191,face trait task chi,2021.2.3,Win32,60.24096386,,,,,,,
,,,,,,,,1.227777905,2.5558,space,0.1706,0,44,44,40,1,41,image/41.jpg,0,0,,这是一个小天才,2,2024-05-31_01h49.52.191,face trait task chi,2021.2.3,Win32,60.24096386,,,,,,,
,,,,,,,,6.838889228,1.6711,space,0.5501,0,45,45,18,1,19,image/19.jpg,0,0,,这是一个小天才,2,2024-05-31_01h49.52.191,face trait task chi,2021.2.3,Win32,60.24096386,,,,,,,
,,,,,,,,6.933333503,1.8083,space,0.3338,0,46,46,8,1,9,image/9.jpg,0,0,,这是一个小天才,2,2024-05-31_01h49.52.191,face trait task chi,2021.2.3,Win32,60.24096386,,,,,,,
,,,,,,,,4.255555471,2.2944,space,0.5518,0,47,47,28,1,29,image/29.jpg,0,0,,这是一个小天才,2,2024-05-31_01h49.52.191,face trait task chi,2021.2.3,Win32,60.24096386,,,,,,,
,,,,,,,,3.027777778,1.9195,space,0.1362,0,48,48,29,1,30,image/30.jpg,0,0,,这是一个小天才,2,2024-05-31_01h49.52.191,face trait task chi,2021.2.3,Win32,60.24096386,,,,,,,
,,,,,,,,6.838889228,3.4409,space,0.255,0,49,49,5,1,6,image/6.jpg,0,0,,这是一个小天才,2,2024-05-31_01h49.52.191,face trait task chi,2021.2.3,Win32,60.24096386,,,,,,,
,,,,,,,,6.361111111,2.1536,space,0.1301,0,50,50,23,1,24,image/24.jpg,0,0,,这是一个小天才,2,2024-05-31_01h49.52.191,face trait task chi,2021.2.3,Win32,60.24096386,,,,,,,
,,,,,,,,2.03333346,1.6357,space,0.0574,0,51,51,30,1,31,image/31.jpg,0,0,,这是一个小天才,2,2024-05-31_01h49.52.191,face trait task chi,2021.2.3,Win32,60.24096386,,,,,,,
,,,,,,,,7,2.7871,space,1.1957,0,52,52,52,1,58,image/fill_img.png,1,7,请将滑块完全移动到<右边>，以示您在专心判断。,这是一个小天才,2,2024-05-31_01h49.52.191,face trait task chi,2021.2.3,Win32,60.24096386,,,,,,,
,,,,,,,,,,,,,,,,,,,,,,这是一个小天才,2,2024-05-31_01h49.52.191,face trait task chi,2021.2.3,Win32,60.24096386,0,0,0,0,1,0,critical.png
,,,,,friendly,space,2.1563,6,3.2347,space,0.1196,0,0,0,10,1,11,image/11.jpg,0,0,,这是一个小天才,2,2024-05-31_01h49.52.191,face trait task chi,2021.2.3,Win32,60.24096386,,,,,,,
,,,,,,,,4.283333249,2.0409,space,0.0701,0,1,1,33,1,34,image/34.jpg,0,0,,这是一个小天才,2,2024-05-31_01h49.52.191,face trait task chi,2021.2.3,Win32,60.24096386,,,,,,,
,,,,,,,,6.688889398,1.6684,space,0.0848,0,2,2,4,1,5,image/5.jpg,0,0,,这是一个小天才,2,2024-05-31_01h49.52.191,face trait task chi,2021.2.3,Win32,60.24096386,,,,,,,
,,,,,,,,1.111111111,1.6546,space,0.352,0,3,3,21,1,22,image/22.jpg,0,0,,这是一个小天才,2,2024-05-31_01h49.52.191,face trait task chi,2021.2.3,Win32,60.24096386,,,,,,,
,,,,,,,,4.011111365,2.4008,space,0.1052,0,4,4,7,1,8,image/8.jpg,0,0,,这是一个小天才,2,2024-05-31_01h49.52.191,face trait task chi,2021.2.3,Win32,60.24096386,,,,,,,
,,,,,,,,1.333333333,1.2928,space,0.4352,0,5,5,5,1,6,image/6.jpg,0,0,,这是一个小天才,2,2024-05-31_01h49.52.191,face trait task chi,2021.2.3,Win32,60.24096386,,,,,,,
,,,,,,,,1.200000127,2.6896,space,0.0857,0,6,6,16,1,17,image/17.jpg,0,0,,这是一个小天才,2,2024-05-31_01h49.52.191,face trait task chi,2021.2.3,Win32,60.24096386,,,,,,,
,,,,,,,,2.005555683,2.6575,space,0.0543,0,7,7,1,1,2,image/2.jpg,0,0,,这是一个小天才,2,2024-05-31_01h49.52.191,face trait task chi,2021.2.3,Win32,60.24096386,,,,,,,
,,,,,,,,5,2.1428,space,0.1192,0,8,8,17,1,18,image/18.jpg,0,0,,这是一个小天才,2,2024-05-31_01h49.52.191,face trait task chi,2021.2.3,Win32,60.24096386,,,,,,,
,,,,,,,,1.061111238,1.5079,space,0.1102,0,9,9,42,1,43,image/43.jpg,0,0,,这是一个小天才,2,2024-05-31_01h49.52.191,face trait task chi,2021.2.3,Win32,60.24096386,,,,,,,
,,,,,,,,1.400000042,1.6062,space,0.142,0,10,10,28,1,29,image/29.jpg,0,0,,这是一个小天才,2,2024-05-31_01h49.52.191,face trait task chi,2021.2.3,Win32,60.24096386,,,,,,,
,,,,,,,,4.011111365,2.7885,space,0.2734,0,11,11,35,1,36,image/36.jpg,0,0,,这是一个小天才,2,2024-05-31_01h49.52.191,face trait task chi,2021.2.3,Win32,60.24096386,,,,,,,
,,,,,,,,1.077777863,1.4098,space,0.392,0,12,12,14,1,15,image/15.jpg,0,0,,这是一个小天才,2,2024-05-31_01h49.52.191,face trait task chi,2021.2.3,Win32,60.24096386,,,,,,,
,,,,,,,,1.03333346,2.2756,space,0.1452,0,13,13,13,1,14,image/14.jpg,0,0,,这是一个小天才,2,2024-05-31_01h49.52.191,face trait task chi,2021.2.3,Win32,60.24096386,,,,,,,
,,,,,,,,5.016666836,1.9475,space,0.1488,0,14,14,12,1,13,image/13.jpg,0,0,,这是一个小天才,2,2024-05-31_01h49.52.191,face trait task chi,2021.2.3,Win32,60.24096386,,,,,,,
,,,,,,,,6.644444784,2.2096,space,0.0891,0,15,15,3,1,4,image/4.jpg,0,0,,这是一个小天才,2,2024-05-31_01h49.52.191,face trait task chi,2021.2.3,Win32,60.24096386,,,,,,,
,,,,,,,,1.055555556,2.9049,space,0.422,0,16,16,39,1,40,image/40.jpg,0,0,,这是一个小天才,2,2024-05-31_01h49.52.191,face trait task chi,2021.2.3,Win32,60.24096386,,,,,,,
,,,,,,,,1.922222349,1.9465,space,0.1722,0,17,17,38,1,39,image/39.jpg,0,0,,这是一个小天才,2,2024-05-31_01h49.52.191,face trait task chi,2021.2.3,Win32,60.24096386,,,,,,,
,,,,,,,,4.016666836,2.8223,space,0.0611,0,18,18,24,1,25,image/25.jpg,0,0,,这是一个小天才,2,2024-05-31_01h49.52.191,face trait task chi,2021.2.3,Win32,60.24096386,,,,,,,
,,,,,,,,6.011110942,1.4865,space,0.0847,0,19,19,48,1,49,image/49.jpg,0,0,,这是一个小天才,2,2024-05-31_01h49.52.191,face trait task chi,2021.2.3,Win32,60.24096386,,,,,,,
,,,,,,,,3.977777693,2.4525,space,0.1363,0,20,20,32,1,33,image/33.jpg,0,0,,这是一个小天才,2,2024-05-31_01h49.52.191,face trait task chi,2021.2.3,Win32,60.24096386,,,,,,,
,,,,,,,,4.994444529,2.3067,space,0.0548,0,21,21,36,1,37,image/37.jpg,0,0,,这是一个小天才,2,2024-05-31_01h49.52.191,face trait task chi,2021.2.3,Win32,60.24096386,,,,,,,
,,,,,,,,6.933333503,1.9624,space,0.195,0,22,22,2,1,3,image/3.jpg,0,0,,这是一个小天才,2,2024-05-31_01h49.52.191,face trait task chi,2021.2.3,Win32,60.24096386,,,,,,,
,,,,,,,,6.961111281,2.8633,space,0.3205,0,23,23,43,1,44,image/44.jpg,0,0,,这是一个小天才,2,2024-05-31_01h49.52.191,face trait task chi,2021.2.3,Win32,60.24096386,,,,,,,
,,,,,,,,1.966666751,3.9843,space,1.7532,0,24,24,41,1,42,image/42.jpg,0,0,,这是一个小天才,2,2024-05-31_01h49.52.191,face trait task chi,2021.2.3,Win32,60.24096386,,,,,,,
,,,,,,,,4.983333588,1.7398,space,0.0688,0,25,25,20,1,21,image/21.jpg,0,0,,这是一个小天才,2,2024-05-31_01h49.52.191,face trait task chi,2021.2.3,Win32,60.24096386,,,,,,,
,,,,,,,,4.022222307,2.0221,space,0.3486,0,26,26,45,1,46,image/46.jpg,0,0,,这是一个小天才,2,2024-05-31_01h49.52.191,face trait task chi,2021.2.3,Win32,60.24096386,,,,,,,
,,,,,,,,1.78333346,2.0458,space,0.24,0,27,27,15,1,16,image/16.jpg,0,0,,这是一个小天才,2,2024-05-31_01h49.52.191,face trait task chi,2021.2.3,Win32,60.24096386,,,,,,,
,,,,,,,,2.994444529,1.5351,space,0.0803,0,28,28,29,1,30,image/30.jpg,0,0,,这是一个小天才,2,2024-05-31_01h49.52.191,face trait task chi,2021.2.3,Win32,60.24096386,,,,,,,
,,,,,,,,1.066666709,1.5427,space,0.0707,0,29,29,19,1,20,image/20.jpg,0,0,,这是一个小天才,2,2024-05-31_01h49.52.191,face trait task chi,2021.2.3,Win32,60.24096386,,,,,,,
,,,,,,,,1.044444402,1.5534,space,0.0877,0,30,30,9,1,10,image/10.jpg,0,0,,这是一个小天才,2,2024-05-31_01h49.52.191,face trait task chi,2021.2.3,Win32,60.24096386,,,,,,,
,,,,,,,,2.044444402,1.3208,space,0.2183,0,31,31,6,1,7,image/7.jpg,0,0,,这是一个小天才,2,2024-05-31_01h49.52.191,face trait task chi,2021.2.3,Win32,60.24096386,,,,,,,
,,,,,,,,1.027777778,1.5431,space,0.3039,0,32,32,8,1,9,image/9.jpg,0,0,,这是一个小天才,2,2024-05-31_01h49.52.191,face trait task chi,2021.2.3,Win32,60.24096386,,,,,,,
,,,,,,,,1.333333333,1.6014,space,0.0543,0,33,33,37,1,38,image/38.jpg,0,0,,这是一个小天才,2,2024-05-31_01h49.52.191,face trait task chi,2021.2.3,Win32,60.24096386,,,,,,,
,,,,,,,,2.961111281,1.6883,space,0.1684,0,34,34,30,1,31,image/31.jpg,0,0,,这是一个小天才,2,2024-05-31_01h49.52.191,face trait task chi,2021.2.3,Win32,60.24096386,,,,,,,
,,,,,,,,1.044444402,1.6197,space,0.1195,0,35,35,0,1,1,image/1.jpg,0,0,,这是一个小天才,2,2024-05-31_01h49.52.191,face trait task chi,2021.2.3,Win32,60.24096386,,,,,,,
,,,,,,,,6.783333672,1.2867,space,0.1285,0,36,36,40,1,41,image/41.jpg,0,0,,这是一个小天才,2,2024-05-31_01h49.52.191,face trait task chi,2021.2.3,Win32,60.24096386,,,,,,,
,,,,,,,,2.444444444,2.036,space,0.3901,0,37,37,23,1,24,image/24.jpg,0,0,,这是一个小天才,2,2024-05-31_01h49.52.191,face trait task chi,2021.2.3,Win32,60.24096386,,,,,,,
,,,,,,,,4.977777693,1.8433,space,0.1022,0,38,38,49,1,50,image/50.jpg,0,0,,这是一个小天才,2,2024-05-31_01h49.52.191,face trait task chi,2021.2.3,Win32,60.24096386,,,,,,,
,,,,,,,,7,3.2835,space,0.8725,0,39,39,50,1,59,image/fill_img.png,1,7,请将滑块完全移动到<右边>，以示您在专心判断。,这是一个小天才,2,2024-05-31_01h49.52.191,face trait task chi,2021.2.3,Win32,60.24096386,,,,,,,
,,,,,,,,6.894444784,1.3694,space,0.2015,0,40,40,34,1,35,image/35.jpg,0,0,,这是一个小天才,2,2024-05-31_01h49.52.191,face trait task chi,2021.2.3,Win32,60.24096386,,,,,,,
,,,,,,,,5.038889143,1.9222,space,0.0749,0,41,41,46,1,47,image/47.jpg,0,0,,这是一个小天才,2,2024-05-31_01h49.52.191,face trait task chi,2021.2.3,Win32,60.24096386,,,,,,,
,,,,,,,,5.966667175,1.2869,space,0.069,0,42,42,44,1,45,image/45.jpg,0,0,,这是一个小天才,2,2024-05-31_01h49.52.191,face trait task chi,2021.2.3,Win32,60.24096386,,,,,,,
,,,,,,,,4,1.5396,space,0.0843,0,43,43,25,1,26,image/26.jpg,0,0,,这是一个小天才,2,2024-05-31_01h49.52.191,face trait task chi,2021.2.3,Win32,60.24096386,,,,,,,
,,,,,,,,5.699999915,2.0638,space,0.2176,0,44,44,31,1,32,image/32.jpg,0,0,,这是一个小天才,2,2024-05-31_01h49.52.191,face trait task chi,2021.2.3,Win32,60.24096386,,,,,,,
,,,,,,,,4.533333249,2.1779,space,0.0417,0,45,45,22,1,23,image/23.jpg,0,0,,这是一个小天才,2,2024-05-31_01h49.52.191,face trait task chi,2021.2.3,Win32,60.24096386,,,,,,,
,,,,,,,,1.344444487,1.4352,space,0.0773,0,46,46,18,1,19,image/19.jpg,0,0,,这是一个小天才,2,2024-05-31_01h49.52.191,face trait task chi,2021.2.3,Win32,60.24096386,,,,,,,
,,,,,,,,1.972222222,2.7343,space,0.0336,0,47,47,27,1,28,image/28.jpg,0,0,,这是一个小天才,2,2024-05-31_01h49.52.191,face trait task chi,2021.2.3,Win32,60.24096386,,,,,,,
,,,,,,,,4.972222222,1.3113,space,0.0719,0,48,48,11,1,12,image/12.jpg,0,0,,这是一个小天才,2,2024-05-31_01h49.52.191,face trait task chi,2021.2.3,Win32,60.24096386,,,,,,,
,,,,,,,,4.005555471,2.4583,space,0.639,0,49,49,47,1,48,image/48.jpg,0,0,,这是一个小天才,2,2024-05-31_01h49.52.191,face trait task chi,2021.2.3,Win32,60.24096386,,,,,,,
,,,,,,,,3.60555564,2.7339,space,0.1329,0,50,50,26,1,27,image/27.jpg,0,0,,这是一个小天才,2,2024-05-31_01h49.52.191,face trait task chi,2021.2.3,Win32,60.24096386,,,,,,,
,,,,,,,,7,2.3988,space,0.8205,0,51,51,52,1,58,image/fill_img.png,1,7,请将滑块完全移动到<右边>，以示您在专心判断。,这是一个小天才,2,2024-05-31_01h49.52.191,face trait task chi,2021.2.3,Win32,60.24096386,,,,,,,
,,,,,,,,7,2.4515,space,1.0846,0,52,52,51,1,56,image/fill_img.png,1,7,请将滑块完全移动到<右边>，以示您在专心判断。,这是一个小天才,2,2024-05-31_01h49.52.191,face trait task chi,2021.2.3,Win32,60.24096386,,,,,,,
,,,,,,,,,,,,,,,,,,,,,,这是一个小天才,2,2024-05-31_01h49.52.191,face trait task chi,2021.2.3,Win32,60.24096386,0,1,1,3,1,3,friendly.png
,,,,,competent,space,29.2641,6.438889398,3.8562,space,0.5037,0,0,0,44,1,45,image/45.jpg,0,0,,这是一个小天才,2,2024-05-31_01h49.52.191,face trait task chi,2021.2.3,Win32,60.24096386,,,,,,,
,,,,,,,,3.027777778,1.8585,space,0.1844,0,1,1,46,1,47,image/47.jpg,0,0,,这是一个小天才,2,2024-05-31_01h49.52.191,face trait task chi,2021.2.3,Win32,60.24096386,,,,,,,
,,,,,,,,5.005555471,2.2473,space,0.1001,0,2,2,26,1,27,image/27.jpg,0,0,,这是一个小天才,2,2024-05-31_01h49.52.191,face trait task chi,2021.2.3,Win32,60.24096386,,,,,,,
,,,,,,,,6.833333333,1.7852,space,0.4009,0,3,3,18,1,19,image/19.jpg,0,0,,这是一个小天才,2,2024-05-31_01h49.52.191,face trait task chi,2021.2.3,Win32,60.24096386,,,,,,,
,,,,,,,,1.122222265,1.7183,space,0.1259,0,4,4,16,1,17,image/17.jpg,0,0,,这是一个小天才,2,2024-05-31_01h49.52.191,face trait task chi,2021.2.3,Win32,60.24096386,,,,,,,
,,,,,,,,1.027777778,2.0886,space,0.2597,0,5,5,2,1,3,image/3.jpg,0,0,,这是一个小天才,2,2024-05-31_01h49.52.191,face trait task chi,2021.2.3,Win32,60.24096386,,,,,,,
,,,,,,,,5.966667175,1.8972,space,0.4343,0,6,6,5,1,6,image/6.jpg,0,0,,这是一个小天才,2,2024-05-31_01h49.52.191,face trait task chi,2021.2.3,Win32,60.24096386,,,,,,,
,,,,,,,,1.255555683,2.002,space,0.2171,0,7,7,14,1,15,image/15.jpg,0,0,,这是一个小天才,2,2024-05-31_01h49.52.191,face trait task chi,2021.2.3,Win32,60.24096386,,,,,,,
,,,,,,,,5.372222477,2.2396,space,0.1717,0,8,8,22,1,23,image/23.jpg,0,0,,这是一个小天才,2,2024-05-31_01h49.52.191,face trait task chi,2021.2.3,Win32,60.24096386,,,,,,,
,,,,,,,,1.111111111,2.1859,space,0.2383,0,9,9,15,1,16,image/16.jpg,0,0,,这是一个小天才,2,2024-05-31_01h49.52.191,face trait task chi,2021.2.3,Win32,60.24096386,,,,,,,
,,,,,,,,6.800000509,2.7506,space,0.4006,0,10,10,33,1,34,image/34.jpg,0,0,,这是一个小天才,2,2024-05-31_01h49.52.191,face trait task chi,2021.2.3,Win32,60.24096386,,,,,,,
,,,,,,,,1.005555683,1.774,space,0.2337,0,11,11,13,1,14,image/14.jpg,0,0,,这是一个小天才,2,2024-05-31_01h49.52.191,face trait task chi,2021.2.3,Win32,60.24096386,,,,,,,
,,,,,,,,4.011111365,2.5857,space,0.1229,0,12,12,28,1,29,image/29.jpg,0,0,,这是一个小天才,2,2024-05-31_01h49.52.191,face trait task chi,2021.2.3,Win32,60.24096386,,,,,,,
,,,,,,,,1.316666709,1.2477,space,0.1083,0,13,13,32,1,33,image/33.jpg,0,0,,这是一个小天才,2,2024-05-31_01h49.52.191,face trait task chi,2021.2.3,Win32,60.24096386,,,,,,,
,,,,,,,,3,1.8794,space,0.1361,0,14,14,7,1,8,image/8.jpg,0,0,,这是一个小天才,2,2024-05-31_01h49.52.191,face trait task chi,2021.2.3,Win32,60.24096386,,,,,,,
,,,,,,,,6.477778117,1.225,space,0.1351,0,15,15,36,1,37,image/37.jpg,0,0,,这是一个小天才,2,2024-05-31_01h49.52.191,face trait task chi,2021.2.3,Win32,60.24096386,,,,,,,
,,,,,,,,4.994444529,1.681,space,0.165,0,16,16,6,1,7,image/7.jpg,0,0,,这是一个小天才,2,2024-05-31_01h49.52.191,face trait task chi,2021.2.3,Win32,60.24096386,,,,,,,
,,,,,,,,4.461111281,2.1294,space,0.195,0,17,17,43,1,44,image/44.jpg,0,0,,这是一个小天才,2,2024-05-31_01h49.52.191,face trait task chi,2021.2.3,Win32,60.24096386,,,,,,,
,,,,,,,,6.85000017,3.1333,space,0.1412,0,18,18,21,1,22,image/22.jpg,0,0,,这是一个小天才,2,2024-05-31_01h49.52.191,face trait task chi,2021.2.3,Win32,60.24096386,,,,,,,
,,,,,,,,4.972222222,2.4434,space,0.1019,0,19,19,40,1,41,image/41.jpg,0,0,,这是一个小天才,2,2024-05-31_01h49.52.191,face trait task chi,2021.2.3,Win32,60.24096386,,,,,,,
,,,,,,,,2.061111238,1.9431,space,0.0688,0,20,20,30,1,31,image/31.jpg,0,0,,这是一个小天才,2,2024-05-31_01h49.52.191,face trait task chi,2021.2.3,Win32,60.24096386,,,,,,,
,,,,,,,,7,2.3589,space,0.778,0,21,21,52,1,58,image/fill_img.png,1,7,请将滑块完全移动到<右边>，以示您在专心判断。,这是一个小天才,2,2024-05-31_01h49.52.191,face trait task chi,2021.2.3,Win32,60.24096386,,,,,,,
,,,,,,,,5.666666667,1.8047,space,0.0589,0,22,22,3,1,4,image/4.jpg,0,0,,这是一个小天才,2,2024-05-31_01h49.52.191,face trait task chi,2021.2.3,Win32,60.24096386,,,,,,,
,,,,,,,,6.077778286,1.9016,space,0.0684,0,23,23,27,1,28,image/28.jpg,0,0,,这是一个小天才,2,2024-05-31_01h49.52.191,face trait task chi,2021.2.3,Win32,60.24096386,,,,,,,
,,,,,,,,6.477778117,1.4931,space,0.1499,0,24,24,25,1,26,image/26.jpg,0,0,,这是一个小天才,2,2024-05-31_01h49.52.191,face trait task chi,2021.2.3,Win32,60.24096386,,,,,,,
,,,,,,,,4.472222222,2.6339,space,0.844,0,25,25,35,1,36,image/36.jpg,0,0,,这是一个小天才,2,2024-05-31_01h49.52.191,face trait task chi,2021.2.3,Win32,60.24096386,,,,,,,
,,,,,,,,4.072222392,2.1691,space,0.0768,0,26,26,20,1,21,image/21.jpg,0,0,,这是一个小天才,2,2024-05-31_01h49.52.191,face trait task chi,2021.2.3,Win32,60.24096386,,,,,,,
,,,,,,,,5.244444529,1.5758,space,0.0776,0,27,27,48,1,49,image/49.jpg,0,0,,这是一个小天才,2,2024-05-31_01h49.52.191,face trait task chi,2021.2.3,Win32,60.24096386,,,,,,,
,,,,,,,,6.033333672,1.394,space,0.0385,0,28,28,17,1,18,image/18.jpg,0,0,,这是一个小天才,2,2024-05-31_01h49.52.191,face trait task chi,2021.2.3,Win32,60.24096386,,,,,,,
,,,,,,,,2.483333588,1.6874,space,0.0562,0,29,29,37,1,38,image/38.jpg,0,0,,这是一个小天才,2,2024-05-31_01h49.52.191,face trait task chi,2021.2.3,Win32,60.24096386,,,,,,,
,,,,,,,,3.994444529,2.2362,space,0.0522,0,30,30,29,1,30,image/30.jpg,0,0,,这是一个小天才,2,2024-05-31_01h49.52.191,face trait task chi,2021.2.3,Win32,60.24096386,,,,,,,
,,,,,,,,6.955555386,2.0088,space,0.1185,0,31,31,39,1,40,image/40.jpg,0,0,,这是一个小天才,2,2024-05-31_01h49.52.191,face trait task chi,2021.2.3,Win32,60.24096386,,,,,,,
,,,,,,,,5.027777778,1.6927,space,0.0718,0,32,32,19,1,20,image/20.jpg,0,0,,这是一个小天才,2,2024-05-31_01h49.52.191,face trait task chi,2021.2.3,Win32,60.24096386,,,,,,,
,,,,,,,,7,2.1845,space,1.3068,0,33,33,50,1,59,image/fill_img.png,1,7,请将滑块完全移动到<右边>，以示您在专心判断。,这是一个小天才,2,2024-05-31_01h49.52.191,face trait task chi,2021.2.3,Win32,60.24096386,,,,,,,
,,,,,,,,5.227777693,2.6376,space,0.1862,0,34,34,4,1,5,image/5.jpg,0,0,,这是一个小天才,2,2024-05-31_01h49.52.191,face trait task chi,2021.2.3,Win32,60.24096386,,,,,,,
,,,,,,,,6.855556064,3.5611,space,0.3393,0,35,35,45,1,46,image/46.jpg,0,0,,这是一个小天才,2,2024-05-31_01h49.52.191,face trait task chi,2021.2.3,Win32,60.24096386,,,,,,,
,,,,,,,,6.244444953,4.0925,space,0.2103,0,36,36,34,1,35,image/35.jpg,0,0,,这是一个小天才,2,2024-05-31_01h49.52.191,face trait task chi,2021.2.3,Win32,60.24096386,,,,,,,
,,,,,,,,5.005555471,1.7042,space,0.1527,0,37,37,23,1,24,image/24.jpg,0,0,,这是一个小天才,2,2024-05-31_01h49.52.191,face trait task chi,2021.2.3,Win32,60.24096386,,,,,,,
,,,,,,,,6,1.6351,space,0.2024,0,38,38,10,1,11,image/11.jpg,0,0,,这是一个小天才,2,2024-05-31_01h49.52.191,face trait task chi,2021.2.3,Win32,60.24096386,,,,,,,
,,,,,,,,1.144444572,1.775,space,0.3012,0,39,39,9,1,10,image/10.jpg,0,0,,这是一个小天才,2,2024-05-31_01h49.52.191,face trait task chi,2021.2.3,Win32,60.24096386,,,,,,,
,,,,,,,,5.088888804,2.1636,space,1.5401,0,40,40,11,1,12,image/12.jpg,0,0,,这是一个小天才,2,2024-05-31_01h49.52.191,face trait task chi,2021.2.3,Win32,60.24096386,,,,,,,
,,,,,,,,7,2.4342,space,0.8198,0,41,41,51,1,56,image/fill_img.png,1,7,请将滑块完全移动到<右边>，以示您在专心判断。,这是一个小天才,2,2024-05-31_01h49.52.191,face trait task chi,2021.2.3,Win32,60.24096386,,,,,,,
,,,,,,,,2.03333346,2.0557,space,0.3594,0,42,42,0,1,1,image/1.jpg,0,0,,这是一个小天才,2,2024-05-31_01h49.52.191,face trait task chi,2021.2.3,Win32,60.24096386,,,,,,,
,,,,,,,,1.211111069,2.2684,space,0.4241,0,43,43,42,1,43,image/43.jpg,0,0,,这是一个小天才,2,2024-05-31_01h49.52.191,face trait task chi,2021.2.3,Win32,60.24096386,,,,,,,
,,,,,,,,6.783333672,1.918,space,0.8538,0,44,44,41,1,42,image/42.jpg,0,0,,这是一个小天才,2,2024-05-31_01h49.52.191,face trait task chi,2021.2.3,Win32,60.24096386,,,,,,,
,,,,,,,,6,3.0348,space,0.0875,0,45,45,31,1,32,image/32.jpg,0,0,,这是一个小天才,2,2024-05-31_01h49.52.191,face trait task chi,2021.2.3,Win32,60.24096386,,,,,,,
,,,,,,,,4.972222222,2.0215,space,0.2682,0,46,46,47,1,48,image/48.jpg,0,0,,这是一个小天才,2,2024-05-31_01h49.52.191,face trait task chi,2021.2.3,Win32,60.24096386,,,,,,,
,,,,,,,,1.188888974,1.3062,space,0.1091,0,47,47,24,1,25,image/25.jpg,0,0,,这是一个小天才,2,2024-05-31_01h49.52.191,face trait task chi,2021.2.3,Win32,60.24096386,,,,,,,
,,,,,,,,4.977777693,2.5276,space,0.1219,0,48,48,12,1,13,image/13.jpg,0,0,,这是一个小天才,2,2024-05-31_01h49.52.191,face trait task chi,2021.2.3,Win32,60.24096386,,,,,,,
,,,,,,,,3.077777863,1.5672,space,0.0879,0,49,49,1,1,2,image/2.jpg,0,0,,这是一个小天才,2,2024-05-31_01h49.52.191,face trait task chi,2021.2.3,Win32,60.24096386,,,,,,,
,,,,,,,,2.988889058,2.6372,space,0.1851,0,50,50,49,1,50,image/50.jpg,0,0,,这是一个小天才,2,2024-05-31_01h49.52.191,face trait task chi,2021.2.3,Win32,60.24096386,,,,,,,
,,,,,,,,2,2.4957,space,0.1703,0,51,51,8,1,9,image/9.jpg,0,0,,这是一个小天才,2,2024-05-31_01h49.52.191,face trait task chi,2021.2.3,Win32,60.24096386,,,,,,,
,,,,,,,,6.89999983,1.374,space,0.1178,0,52,52,38,1,39,image/39.jpg,0,0,,这是一个小天才,2,2024-05-31_01h49.52.191,face trait task chi,2021.2.3,Win32,60.24096386,,,,,,,
,,,,,,,,,,,,,,,,,,,,,,这是一个小天才,2,2024-05-31_01h49.52.191,face trait task chi,2021.2.3,Win32,60.24096386,0,2,2,1,1,1,competent.png
,,,,,trustworthy,space,19.0141,4.183333503,2.6009,space,0.101,0,0,0,40,1,41,image/41.jpg,0,0,,这是一个小天才,2,2024-05-31_01h49.52.191,face trait task chi,2021.2.3,Win32,60.24096386,,,,,,,
,,,,,,,,3.050000085,2.1549,space,0.0902,0,1,1,28,1,29,image/29.jpg,0,0,,这是一个小天才,2,2024-05-31_01h49.52.191,face trait task chi,2021.2.3,Win32,60.24096386,,,,,,,
,,,,,,,,4.961111281,1.6732,space,0.0764,0,2,2,27,1,28,image/28.jpg,0,0,,这是一个小天才,2,2024-05-31_01h49.52.191,face trait task chi,2021.2.3,Win32,60.24096386,,,,,,,
,,,,,,,,6.522222731,1.5062,space,0.1811,0,3,3,38,1,39,image/39.jpg,0,0,,这是一个小天才,2,2024-05-31_01h49.52.191,face trait task chi,2021.2.3,Win32,60.24096386,,,,,,,
,,,,,,,,1.266666624,2.0194,space,0.1729,0,4,4,14,1,15,image/15.jpg,0,0,,这是一个小天才,2,2024-05-31_01h49.52.191,face trait task chi,2021.2.3,Win32,60.24096386,,,,,,,
,,,,,,,,4.305555556,2.3932,space,0.129,0,5,5,22,1,23,image/23.jpg,0,0,,这是一个小天才,2,2024-05-31_01h49.52.191,face trait task chi,2021.2.3,Win32,60.24096386,,,,,,,
,,,,,,,,5.961111281,1.1712,space,0.1039,0,6,6,25,1,26,image/26.jpg,0,0,,这是一个小天才,2,2024-05-31_01h49.52.191,face trait task chi,2021.2.3,Win32,60.24096386,,,,,,,
,,,,,,,,1.150000042,2.0417,space,0.3732,0,7,7,13,1,14,image/14.jpg,0,0,,这是一个小天才,2,2024-05-31_01h49.52.191,face trait task chi,2021.2.3,Win32,60.24096386,,,,,,,
,,,,,,,,6.816666497,1.2867,space,0.1548,0,8,8,45,1,46,image/46.jpg,0,0,,这是一个小天才,2,2024-05-31_01h49.52.191,face trait task chi,2021.2.3,Win32,60.24096386,,,,,,,
,,,,,,,,2.494444529,1.9531,space,0.0973,0,9,9,46,1,47,image/47.jpg,0,0,,这是一个小天才,2,2024-05-31_01h49.52.191,face trait task chi,2021.2.3,Win32,60.24096386,,,,,,,
,,,,,,,,6.094444275,2.6565,space,0.3094,0,10,10,18,1,19,image/19.jpg,0,0,,这是一个小天才,2,2024-05-31_01h49.52.191,face trait task chi,2021.2.3,Win32,60.24096386,,,,,,,
,,,,,,,,3.088888804,2.4758,space,1.051,0,11,11,37,1,38,image/38.jpg,0,0,,这是一个小天才,2,2024-05-31_01h49.52.191,face trait task chi,2021.2.3,Win32,60.24096386,,,,,,,
,,,,,,,,1.016666624,1.6298,space,0.2833,0,12,12,24,1,25,image/25.jpg,0,0,,这是一个小天才,2,2024-05-31_01h49.52.191,face trait task chi,2021.2.3,Win32,60.24096386,,,,,,,
,,,,,,,,5.016666836,3.1508,space,1.6994,0,13,13,1,1,2,image/2.jpg,0,0,,这是一个小天才,2,2024-05-31_01h49.52.191,face trait task chi,2021.2.3,Win32,60.24096386,,,,,,,
,,,,,,,,7,2.1586,space,0.8521,0,14,14,51,1,56,image/fill_img.png,1,7,请将滑块完全移动到<右边>，以示您在专心判断。,这是一个小天才,2,2024-05-31_01h49.52.191,face trait task chi,2021.2.3,Win32,60.24096386,,,,,,,
,,,,,,,,4.161111196,2.3551,space,0.171,0,15,15,11,1,12,image/12.jpg,0,0,,这是一个小天才,2,2024-05-31_01h49.52.191,face trait task chi,2021.2.3,Win32,60.24096386,,,,,,,
,,,,,,,,4,1.7517,space,0.2362,0,16,16,30,1,31,image/31.jpg,0,0,,这是一个小天才,2,2024-05-31_01h49.52.191,face trait task chi,2021.2.3,Win32,60.24096386,,,,,,,
,,,,,,,,6.944444444,1.1036,space,0.1006,0,17,17,39,1,40,image/40.jpg,0,0,,这是一个小天才,2,2024-05-31_01h49.52.191,face trait task chi,2021.2.3,Win32,60.24096386,,,,,,,
,,,,,,,,1.083333333,1.4718,space,0.1224,0,18,18,9,1,10,image/10.jpg,0,0,,这是一个小天才,2,2024-05-31_01h49.52.191,face trait task chi,2021.2.3,Win32,60.24096386,,,,,,,
,,,,,,,,5.216666751,2.1515,space,0.1122,0,19,19,48,1,49,image/49.jpg,0,0,,这是一个小天才,2,2024-05-31_01h49.52.191,face trait task chi,2021.2.3,Win32,60.24096386,,,,,,,
,,,,,,,,1.066666709,1.4975,space,0.3703,0,20,20,16,1,17,image/17.jpg,0,0,,这是一个小天才,2,2024-05-31_01h49.52.191,face trait task chi,2021.2.3,Win32,60.24096386,,,,,,,
,,,,,,,,6.011110942,1.5861,space,0.0665,0,21,21,34,1,35,image/35.jpg,0,0,,这是一个小天才,2,2024-05-31_01h49.52.191,face trait task chi,2021.2.3,Win32,60.24096386,,,,,,,
,,,,,,,,4.961111281,1.8749,space,0.0611,0,22,22,12,1,13,image/13.jpg,0,0,,这是一个小天才,2,2024-05-31_01h49.52.191,face trait task chi,2021.2.3,Win32,60.24096386,,,,,,,
,,,,,,,,2.988889058,2.3936,space,0.1852,0,23,23,10,1,11,image/11.jpg,0,0,,这是一个小天才,2,2024-05-31_01h49.52.191,face trait task chi,2021.2.3,Win32,60.24096386,,,,,,,
,,,,,,,,6.077778286,1.429,space,0.139,0,24,24,17,1,18,image/18.jpg,0,0,,这是一个小天才,2,2024-05-31_01h49.52.191,face trait task chi,2021.2.3,Win32,60.24096386,,,,,,,
,,,,,,,,4.027777778,2.288,space,0.933,0,25,25,29,1,30,image/30.jpg,0,0,,这是一个小天才,2,2024-05-31_01h49.52.191,face trait task chi,2021.2.3,Win32,60.24096386,,,,,,,
,,,,,,,,1.200000127,1.3749,space,0.0607,0,26,26,0,1,1,image/1.jpg,0,0,,这是一个小天才,2,2024-05-31_01h49.52.191,face trait task chi,2021.2.3,Win32,60.24096386,,,,,,,
,,,,,,,,1.07222218,1.3019,space,0.0562,0,27,27,2,1,3,image/3.jpg,0,0,,这是一个小天才,2,2024-05-31_01h49.52.191,face trait task chi,2021.2.3,Win32,60.24096386,,,,,,,
,,,,,,,,1.094444487,3.5709,space,1.2996,0,28,28,8,1,9,image/9.jpg,0,0,,这是一个小天才,2,2024-05-31_01h49.52.191,face trait task chi,2021.2.3,Win32,60.24096386,,,,,,,
,,,,,,,,5.855556064,1.7793,space,0.139,0,29,29,4,1,5,image/5.jpg,0,0,,这是一个小天才,2,2024-05-31_01h49.52.191,face trait task chi,2021.2.3,Win32,60.24096386,,,,,,,
,,,,,,,,6.211111281,1.3869,space,0.202,0,30,30,31,1,32,image/32.jpg,0,0,,这是一个小天才,2,2024-05-31_01h49.52.191,face trait task chi,2021.2.3,Win32,60.24096386,,,,,,,
,,,,,,,,4.061111026,1.9479,space,0.0655,0,31,31,26,1,27,image/27.jpg,0,0,,这是一个小天才,2,2024-05-31_01h49.52.191,face trait task chi,2021.2.3,Win32,60.24096386,,,,,,,
,,,,,,,,6.85000017,1.6865,space,0.1418,0,32,32,41,1,42,image/42.jpg,0,0,,这是一个小天才,2,2024-05-31_01h49.52.191,face trait task chi,2021.2.3,Win32,60.24096386,,,,,,,
,,,,,,,,1.055555556,1.4372,space,0.3502,0,33,33,15,1,16,image/16.jpg,0,0,,这是一个小天才,2,2024-05-31_01h49.52.191,face trait task chi,2021.2.3,Win32,60.24096386,,,,,,,
,,,,,,,,6.794444614,1.6288,space,0.2269,0,34,34,44,1,45,image/45.jpg,0,0,,这是一个小天才,2,2024-05-31_01h49.52.191,face trait task chi,2021.2.3,Win32,60.24096386,,,,,,,
,,,,,,,,4.983333588,1.7136,space,0.1499,0,35,35,5,1,6,image/6.jpg,0,0,,这是一个小天才,2,2024-05-31_01h49.52.191,face trait task chi,2021.2.3,Win32,60.24096386,,,,,,,
,,,,,,,,5.383333418,2.1845,space,0.0688,0,36,36,43,1,44,image/44.jpg,0,0,,这是一个小天才,2,2024-05-31_01h49.52.191,face trait task chi,2021.2.3,Win32,60.24096386,,,,,,,
,,,,,,,,7,1.8878,space,0.7229,0,37,37,52,1,58,image/fill_img.png,1,7,请将滑块完全移动到<右边>，以示您在专心判断。,这是一个小天才,2,2024-05-31_01h49.52.191,face trait task chi,2021.2.3,Win32,60.24096386,,,,,,,
,,,,,,,,2.027777778,1.4268,space,0.1045,0,38,38,7,1,8,image/8.jpg,0,0,,这是一个小天才,2,2024-05-31_01h49.52.191,face trait task chi,2021.2.3,Win32,60.24096386,,,,,,,
,,,,,,,,1.122222265,1.3168,space,0.0677,0,39,39,19,1,20,image/20.jpg,0,0,,这是一个小天才,2,2024-05-31_01h49.52.191,face trait task chi,2021.2.3,Win32,60.24096386,,,,,,,
,,,,,,,,3.666666667,2.2028,space,0.1508,0,40,40,20,1,21,image/21.jpg,0,0,,这是一个小天才,2,2024-05-31_01h49.52.191,face trait task chi,2021.2.3,Win32,60.24096386,,,,,,,
,,,,,,,,5.166666667,1.3396,space,0.0855,0,41,41,3,1,4,image/4.jpg,0,0,,这是一个小天才,2,2024-05-31_01h49.52.191,face trait task chi,2021.2.3,Win32,60.24096386,,,,,,,
,,,,,,,,6.638888889,1.725,space,0.8869,0,42,42,33,1,34,image/34.jpg,0,0,,这是一个小天才,2,2024-05-31_01h49.52.191,face trait task chi,2021.2.3,Win32,60.24096386,,,,,,,
,,,,,,,,1.894444572,1.3919,space,0.1168,0,43,43,42,1,43,image/43.jpg,0,0,,这是一个小天才,2,2024-05-31_01h49.52.191,face trait task chi,2021.2.3,Win32,60.24096386,,,,,,,
,,,,,,,,1.78333346,1.3866,space,0.1192,0,44,44,6,1,7,image/7.jpg,0,0,,这是一个小天才,2,2024-05-31_01h49.52.191,face trait task chi,2021.2.3,Win32,60.24096386,,,,,,,
,,,,,,,,1.211111069,3.2369,space,1.1029,0,45,45,23,1,24,image/24.jpg,0,0,,这是一个小天才,2,2024-05-31_01h49.52.191,face trait task chi,2021.2.3,Win32,60.24096386,,,,,,,
,,,,,,,,3.994444529,3.2369,space,1.3836,0,46,46,32,1,33,image/33.jpg,0,0,,这是一个小天才,2,2024-05-31_01h49.52.191,face trait task chi,2021.2.3,Win32,60.24096386,,,,,,,
,,,,,,,,5.427778032,2.5034,space,0.1463,0,47,47,21,1,22,image/22.jpg,0,0,,这是一个小天才,2,2024-05-31_01h49.52.191,face trait task chi,2021.2.3,Win32,60.24096386,,,,,,,
,,,,,,,,4.538889143,1.4899,space,0.0715,0,48,48,47,1,48,image/48.jpg,0,0,,这是一个小天才,2,2024-05-31_01h49.52.191,face trait task chi,2021.2.3,Win32,60.24096386,,,,,,,
,,,,,,,,5.094444699,1.435,space,0.6234,0,49,49,36,1,37,image/37.jpg,0,0,,这是一个小天才,2,2024-05-31_01h49.52.191,face trait task chi,2021.2.3,Win32,60.24096386,,,,,,,
,,,,,,,,4.005555471,1.846,space,0.2022,0,50,50,49,1,50,image/50.jpg,0,0,,这是一个小天才,2,2024-05-31_01h49.52.191,face trait task chi,2021.2.3,Win32,60.24096386,,,,,,,
,,,,,,,,4.427778032,1.8551,space,0.1264,0,51,51,35,1,36,image/36.jpg,0,0,,这是一个小天才,2,2024-05-31_01h49.52.191,face trait task chi,2021.2.3,Win32,60.24096386,,,,,,,
,,,,,,,,7,1.9869,space,0.7547,0,52,52,50,1,59,image/fill_img.png,1,7,请将滑块完全移动到<右边>，以示您在专心判断。,这是一个小天才,2,2024-05-31_01h49.52.191,face trait task chi,2021.2.3,Win32,60.24096386,,,,,,,
,,,,,,,,,,,,,,,,,,,,,,这是一个小天才,2,2024-05-31_01h49.52.191,face trait task chi,2021.2.3,Win32,60.24096386,0,3,3,2,1,2,trustworthy.png