chooserow,ParID,pre_instru_resp_2.keys,pre_instru_resp_2.rt,pre_instru_resp_3.keys,pre_instru_resp_3.rt,pre_instru_resp_9.keys,pre_instru_resp_9.rt,pre_instru_resp_8.keys,pre_instru_resp_8.rt,pre_instru_resp_4.keys,pre_instru_resp_4.rt,pre_instru_resp_5.keys,pre_instru_resp_5.rt,pre_instru_resp_6.keys,pre_instru_resp_6.rt,key_resp_3.keys,key_resp_3.rt,key_resp_4.keys,key_resp_4.rt,key_resp_5.keys,key_resp_5.rt,key_resp_6.keys,key_resp_6.rt,key_resp_7.keys,key_resp_7.rt,trials_2.thisRepN,trials_2.thisTrialN,trials_2.thisN,trials_2.thisIndex,trials_2.ran,participant,session,date,expName,psychopyVersion,OS,frameRate,SONAid,pre_instru_resp.keys,pre_instru_resp.rt,clicked,judge_2.x,judge_2.y,judge_2.leftButton,judge_2.midButton,judge_2.rightButton,trials.thisRepN,trials.thisTrialN,trials.thisN,trials.thisIndex,trials.ran,prac_answer,prac_dot_sti,dotlefttext,dotrighttext,judge_2.clicked_name,prac_acc,judge.x,judge.y,judge.leftButton,judge.midButton,judge.rightButton,judge.clicked_name,clicked_guilt,slider_guilt.response,slider_guilt.rt,key_guilt.keys,key_guilt.rt,share_slider.response,share_slider.rt,key_share.keys,slider_apology.response,slider_apology.rt,key_apology.keys,slider_hide.response,slider_hide.rt,slider_forgiveness.response,slider_forgiveness.rt,key_forgiveness.keys,slider_mad.response,slider_mad.rt,trialseq.thisRepN,trialseq.thisTrialN,trialseq.thisN,trialseq.thisIndex,trialseq.ran,type_trial,stipic,DV,picture,answer,number,key_share.rt,key_forgiveness.rt,key_apology.rt
"[146,163,66,198,183,187,115,52,189,48,172,161,130,106,178,171,196,132,149,58,71,17,141,2,167,72,147,142,119,83,92,90,129,122,98,43,86,76,61,102,117,27]",R_2KryIkmTCOb6eUU,space,9.455,space,2.808,space,2.527,space,41.915,space,11.95,space,4.654,space,3.427,1,21.527,1,8.57,2,14.976,2,9.141,3,3.85,0,0,0,0,1,R_2KryIkmTCOb6eUU,1,2024-05-06_19h55.36.757,interaction task,2021.2.3,MacIntel,62.5,120811,,,,,,,,,,,,,,,,,,,,,,,,,,,,,,,,,,,,,,,,,,,,,,,,,,,,,,,,,
,,,,space,15.83,space,26.04,space,27.158,space,23.282,space,18.448,space,3.4,3,6.854,1,5.412,3,5.847,2,5.358,2,6.724,1,0,1,0,1,R_2KryIkmTCOb6eUU,1,2024-05-06_19h55.36.757,interaction task,2021.2.3,MacIntel,62.5,120811,,,,,,,,,,,,,,,,,,,,,,,,,,,,,,,,,,,,,,,,,,,,,,,,,,,,,,,,,
,,,,,,,,,,,,,,,,,,,,,,,,,,,,,,,R_2KryIkmTCOb6eUU,1,2024-05-06_19h55.36.757,interaction task,2021.2.3,MacIntel,62.5,120811,space,7.65,[],0.263945578,-0.37173913,0,0,0,0,0,0,2,1,RightButton_2,11dot2.png,Smaller,Greater,,,,,,,,,,,,,,,,,,,,,,,,,,,,,,,,,,,,,,,,
,,,,,,,,,,,,,,,,,,,,,,,,,,,,,,,R_2KryIkmTCOb6eUU,1,2024-05-06_19h55.36.757,interaction task,2021.2.3,MacIntel,62.5,120811,,,"[""RightButton_2""]",0.273469388,-0.330434783,1,0,0,0,1,1,0,1,RightButton_2,11dot1.png,Smaller,Greater,RightButton_2,,,,,,,,,,,,,,,,,,,,,,,,,,,,,,,,,,,,,,,
,,,,,,,,,,,,,,,,,,,,,,,,,,,,,,,R_2KryIkmTCOb6eUU,1,2024-05-06_19h55.36.757,interaction task,2021.2.3,MacIntel,62.5,120811,,,"[""LeftButton_2""]",-0.296598639,-0.276086957,1,0,0,0,2,2,1,1,LeftButton_2,9dot2.png,Smaller,Greater,LeftButton_2,,,,,,,,,,,,,,,,,,,,,,,,,,,,,,,,,,,,,,,
,,,,,,,,,,,,,,,,,,,,,,,,,,,,,,,R_2KryIkmTCOb6eUU,1,2024-05-06_19h55.36.757,interaction task,2021.2.3,MacIntel,62.5,120811,,,,,,,,,,,,,,,,Greater,Smaller,,0.4,0.234013605,-0.491304348,1,0,0,RightButton,"[""RightButton""]",70,5.092,space,2.176,,,,,,,,,,,,,,0,0,0,0,1,3,only_sub_wrong.png,0,RandomDot38.png,No answer,21,,,
,,,,,,,,,,,,,,,,,,,,,,,,,,,,,,,R_2KryIkmTCOb6eUU,1,2024-05-06_19h55.36.757,interaction task,2021.2.3,MacIntel,62.5,120811,,,,,,,,,,,,,,,,Smaller,Greater,,,-0.306122449,-0.493478261,1,0,0,LeftButton,"[""LeftButton""]",,,,,1.996598639,11.232,space,,,,,,,,,,,0,1,1,1,1,3,only_sub_wrong.png,1,RandomDot6.png,No answer,20,1.883,,
,,,,,,,,,,,,,,,,,,,,,,,,,,,,,,,R_2KryIkmTCOb6eUU,1,2024-05-06_19h55.36.757,interaction task,2021.2.3,MacIntel,62.5,120811,,,,,,,,,,,,,,,,Smaller,Greater,,,0.288435374,-0.515217391,1,0,0,RightButton,"[""RightButton""]",,,,,3.037414966,6.686,space,,,,,,,,,,,0,2,2,2,1,1,both_wrong.png,1,RandomDot10.png,No answer,19,1.727,,
,,,,,,,,,,,,,,,,,,,,,,,,,,,,,,,R_2KryIkmTCOb6eUU,1,2024-05-06_19h55.36.757,interaction task,2021.2.3,MacIntel,62.5,120811,,,,,,,,,,,,,,,,Greater,Smaller,,,0.315646259,-0.504347826,1,0,0,RightButton,"[""RightButton""]",,,,,,,,,,,,,,,,,,0,3,3,3,1,5,both_right.png,10,RandomDot42.png,RightButton,20,,,
,,,,,,,,,,,,,,,,,,,,,,,,,,,,,,,R_2KryIkmTCOb6eUU,1,2024-05-06_19h55.36.757,interaction task,2021.2.3,MacIntel,62.5,120811,,,,,,,,,,,,,,,,Greater,Smaller,,,-0.272108844,-0.52173913,1,0,0,LeftButton,"[""LeftButton""]",,,,,,,,,,,,,31.4471243,4.984,space,65.66687281,8.442,0,4,4,4,1,3,only_sub_wrong.png,3,RandomDot17.png,No answer,19,,1.359,
,,,,,,,,,,,,,,,,,,,,,,,,,,,,,,,R_2KryIkmTCOb6eUU,1,2024-05-06_19h55.36.757,interaction task,2021.2.3,MacIntel,62.5,120811,,,,,,,,,,,,,,,,Smaller,Greater,,,-0.282993197,-0.532608696,1,0,0,LeftButton,"[""LeftButton""]",,,,,,,,,,,,,29.7979798,2.746,space,71.16402116,4.32,0,5,5,5,1,3,only_sub_wrong.png,3,RandomDot18.png,No answer,21,,1.038,
,,,,,,,,,,,,,,,,,,,,,,,,,,,,,,,R_2KryIkmTCOb6eUU,1,2024-05-06_19h55.36.757,interaction task,2021.2.3,MacIntel,62.5,120811,,,,,,,,,,,,,,,,Smaller,Greater,,,-0.236734694,-0.497826087,1,0,0,LeftButton,"[""LeftButton""]",,,,,2.982993197,6.17,space,,,,,,,,,,,0,6,6,6,1,2,only_sub_right.png,1,RandomDot14.png,No answer,20,1.001,,
,,,,,,,,,,,,,,,,,,,,,,,,,,,,,,,R_2KryIkmTCOb6eUU,1,2024-05-06_19h55.36.757,interaction task,2021.2.3,MacIntel,62.5,120811,,,,,,,,,,,,,,,,Greater,Smaller,,,-0.380952381,-0.545652174,1,0,0,LeftButton,"[""LeftButton""]",90,2.705,space,0.934,,,,,,,,,,,,,,0,7,7,7,1,1,both_wrong.png,0,RandomDot10.png,No answer,20,,,
,,,,,,,,,,,,,,,,,,,,,,,,,,,,,,,R_2KryIkmTCOb6eUU,1,2024-05-06_19h55.36.757,interaction task,2021.2.3,MacIntel,62.5,120811,,,,,,,,,,,,,,,,Smaller,Greater,,,-0.274829932,-0.495652174,1,0,0,LeftButton,"[""LeftButton""]",,,,,,,,,,,,,14.68082182,4.135,space,91.36604137,6.067,0,8,8,8,1,3,only_sub_wrong.png,3,RandomDot38.png,No answer,20,,0.67,
,,,,,,,,,,,,,,,,,,,,,,,,,,,,,,,R_2KryIkmTCOb6eUU,1,2024-05-06_19h55.36.757,interaction task,2021.2.3,MacIntel,62.5,120811,,,,,,,,,,,,,,,,Greater,Smaller,,,-0.257142857,-0.5,1,0,0,LeftButton,"[""LeftButton""]",91,2.637,space,0.576,,,,,,,,,,,,,,0,9,9,9,1,1,both_wrong.png,0,RandomDot24.png,No answer,21,,,
,,,,,,,,,,,,,,,,,,,,,,,,,,,,,,,R_2KryIkmTCOb6eUU,1,2024-05-06_19h55.36.757,interaction task,2021.2.3,MacIntel,62.5,120811,,,,,,,,,,,,,,,,Greater,Smaller,,,0.253061224,-0.534782609,1,0,0,RightButton,"[""RightButton""]",,,,,,,,98,3.548,space,41,7.449,,,,,,0,10,10,10,1,3,only_sub_wrong.png,2,RandomDot38.png,No answer,21,,,0.6
,,,,,,,,,,,,,,,,,,,,,,,,,,,,,,,R_2KryIkmTCOb6eUU,1,2024-05-06_19h55.36.757,interaction task,2021.2.3,MacIntel,62.5,120811,,,,,,,,,,,,,,,,Greater,Smaller,,,-0.250340136,-0.517391304,1,0,0,LeftButton,"[""LeftButton""]",,,,,4.057823129,4.535,space,,,,,,,,,,,0,11,11,11,1,3,only_sub_wrong.png,1,RandomDot36.png,No answer,19,0.901,,
,,,,,,,,,,,,,,,,,,,,,,,,,,,,,,,R_2KryIkmTCOb6eUU,1,2024-05-06_19h55.36.757,interaction task,2021.2.3,MacIntel,62.5,120811,,,,,,,,,,,,,,,,Smaller,Greater,,,-0.273469388,-0.513043478,1,0,0,LeftButton,"[""LeftButton""]",,,,,,,,96,3.406,space,64,5.466,,,,,,0,12,12,12,1,2,only_sub_right.png,2,RandomDot8.png,No answer,21,,,0.993
,,,,,,,,,,,,,,,,,,,,,,,,,,,,,,,R_2KryIkmTCOb6eUU,1,2024-05-06_19h55.36.757,interaction task,2021.2.3,MacIntel,62.5,120811,,,,,,,,,,,,,,,,Smaller,Greater,,,0.282993197,-0.536956522,1,0,0,RightButton,"[""RightButton""]",60,2.977,space,0.702,,,,,,,,,,,,,,0,13,13,13,1,2,only_sub_right.png,0,RandomDot39.png,No answer,19,,,
,,,,,,,,,,,,,,,,,,,,,,,,,,,,,,,R_2KryIkmTCOb6eUU,1,2024-05-06_19h55.36.757,interaction task,2021.2.3,MacIntel,62.5,120811,,,,,,,,,,,,,,,,Smaller,Greater,,,0.266666667,-0.534782609,1,0,0,RightButton,"[""RightButton""]",,,,,,,,95,2.815,space,81,4.251,,,,,,0,14,14,14,1,3,only_sub_wrong.png,2,RandomDot22.png,No answer,19,,,0.772
,,,,,,,,,,,,,,,,,,,,,,,,,,,,,,,R_2KryIkmTCOb6eUU,1,2024-05-06_19h55.36.757,interaction task,2021.2.3,MacIntel,62.5,120811,,,,,,,,,,,,,,,,Greater,Smaller,,,-0.266666667,-0.5,1,0,0,LeftButton,"[""LeftButton""]",,,,,,,,92,3.651,space,40,4.761,,,,,,0,15,15,15,1,3,only_sub_wrong.png,2,RandomDot23.png,No answer,20,,,0.904
,,,,,,,,,,,,,,,,,,,,,,,,,,,,,,,R_2KryIkmTCOb6eUU,1,2024-05-06_19h55.36.757,interaction task,2021.2.3,MacIntel,62.5,120811,,,,,,,,,,,,,,,,Smaller,Greater,,,0.292517007,-0.534782609,1,0,0,RightButton,"[""RightButton""]",,,,,,,,,,,,,,,,,,0,16,16,16,1,4,both_right.png,10,RandomDot41.png,RightButton,5,,,
,,,,,,,,,,,,,,,,,,,,,,,,,,,,,,,R_2KryIkmTCOb6eUU,1,2024-05-06_19h55.36.757,interaction task,2021.2.3,MacIntel,62.5,120811,,,,,,,,,,,,,,,,Greater,Smaller,,,0.311564626,-0.465217391,1,0,0,RightButton,"[""RightButton""]",,,,,,,,,,,,,66.49144506,2.788,space,47.38885453,3.966,0,17,17,17,1,2,only_sub_right.png,3,RandomDot20.png,No answer,21,,1.119,
,,,,,,,,,,,,,,,,,,,,,,,,,,,,,,,R_2KryIkmTCOb6eUU,1,2024-05-06_19h55.36.757,interaction task,2021.2.3,MacIntel,62.5,120811,,,,,,,,,,,,,,,,Greater,Smaller,,,0.281632653,-0.52173913,1,0,0,RightButton,"[""RightButton""]",82,1.973,space,0.967,,,,,,,,,,,,,,0,18,18,18,1,3,only_sub_wrong.png,0,RandomDot24.png,No answer,20,,,
,,,,,,,,,,,,,,,,,,,,,,,,,,,,,,,R_2KryIkmTCOb6eUU,1,2024-05-06_19h55.36.757,interaction task,2021.2.3,MacIntel,62.5,120811,,,,,,,,,,,,,,,,Smaller,Greater,,,0.273469388,-0.52826087,1,0,0,RightButton,"[""RightButton""]",89,1.761,space,0.724,,,,,,,,,,,,,,0,19,19,19,1,1,both_wrong.png,0,RandomDot34.png,No answer,19,,,
,,,,,,,,,,,,,,,,,,,,,,,,,,,,,,,R_2KryIkmTCOb6eUU,1,2024-05-06_19h55.36.757,interaction task,2021.2.3,MacIntel,62.5,120811,,,,,,,,,,,,,,,,Smaller,Greater,,,0.255782313,-0.504347826,1,0,0,RightButton,"[""RightButton""]",,,,,4.023809524,2.691,space,,,,,,,,,,,0,20,20,20,1,1,both_wrong.png,1,RandomDot14.png,No answer,20,0.351,,
,,,,,,,,,,,,,,,,,,,,,,,,,,,,,,,R_2KryIkmTCOb6eUU,1,2024-05-06_19h55.36.757,interaction task,2021.2.3,MacIntel,62.5,120811,,,,,,,,,,,,,,,,Greater,Smaller,,,-0.219047619,-0.52826087,1,0,0,LeftButton,"[""LeftButton""]",,,,,,,,,,,,,,,,,,0,21,21,21,1,0,both_right.png,1,RandomDot7.png,No answer,21,,,
,,,,,,,,,,,,,,,,,,,,,,,,,,,,,,,R_2KryIkmTCOb6eUU,1,2024-05-06_19h55.36.757,interaction task,2021.2.3,MacIntel,62.5,120811,,,,,,,,,,,,,,,,Smaller,Greater,,,-0.242176871,-0.52826087,1,0,0,LeftButton,"[""LeftButton""]",,,,,,,,,,,,,70.47687762,2.881,space,68.14058957,4.037,0,22,22,22,1,2,only_sub_right.png,3,RandomDot7.png,No answer,20,,1.09,
,,,,,,,,,,,,,,,,,,,,,,,,,,,,,,,R_2KryIkmTCOb6eUU,1,2024-05-06_19h55.36.757,interaction task,2021.2.3,MacIntel,62.5,120811,,,,,,,,,,,,,,,,Greater,Smaller,,,-0.220408163,-0.541304348,1,0,0,LeftButton,"[""LeftButton""]",,,,,,,,,,,,,,,,,,0,23,23,23,1,0,both_right.png,0,RandomDot3.png,No answer,21,,,
,,,,,,,,,,,,,,,,,,,,,,,,,,,,,,,R_2KryIkmTCOb6eUU,1,2024-05-06_19h55.36.757,interaction task,2021.2.3,MacIntel,62.5,120811,,,,,,,,,,,,,,,,Smaller,Greater,,,0.232653061,-0.530434783,1,0,0,RightButton,"[""RightButton""]",,,,,4.003401361,3.852,space,,,,,,,,,,,0,24,24,24,1,3,only_sub_wrong.png,1,RandomDot22.png,No answer,20,0.935,,
,,,,,,,,,,,,,,,,,,,,,,,,,,,,,,,R_2KryIkmTCOb6eUU,1,2024-05-06_19h55.36.757,interaction task,2021.2.3,MacIntel,62.5,120811,,,,,,,,,,,,,,,,Greater,Smaller,,,-0.266666667,-0.510869565,1,0,0,LeftButton,"[""LeftButton""]",,,,,,,,97,3.389,space,29,6.8,,,,,,0,25,25,25,1,1,both_wrong.png,2,RandomDot1.png,No answer,21,,,0.752
,,,,,,,,,,,,,,,,,,,,,,,,,,,,,,,R_2KryIkmTCOb6eUU,1,2024-05-06_19h55.36.757,interaction task,2021.2.3,MacIntel,62.5,120811,,,,,,,,,,,,,,,,Greater,Smaller,,,-0.195918367,-0.47826087,1,0,0,LeftButton,"[""LeftButton""]",91,4.253,space,1.061,,,,,,,,,,,,,,0,26,26,26,1,3,only_sub_wrong.png,0,RandomDot5.png,No answer,20,,,
,,,,,,,,,,,,,,,,,,,,,,,,,,,,,,,R_2KryIkmTCOb6eUU,1,2024-05-06_19h55.36.757,interaction task,2021.2.3,MacIntel,62.5,120811,,,,,,,,,,,,,,,,Smaller,Greater,,,-0.323809524,-0.52173913,1,0,0,LeftButton,"[""LeftButton""]",,,,,,,,,,,,,68.6903044,2.798,space,55.77200577,3.722,0,27,27,27,1,2,only_sub_right.png,3,RandomDot18.png,No answer,20,,0.985,
,,,,,,,,,,,,,,,,,,,,,,,,,,,,,,,R_2KryIkmTCOb6eUU,1,2024-05-06_19h55.36.757,interaction task,2021.2.3,MacIntel,62.5,120811,,,,,,,,,,,,,,,,Smaller,Greater,,,0.278911565,-0.484782609,1,0,0,RightButton,"[""RightButton""]",,,,,3.962585034,8.136,space,,,,,,,,,,,0,28,28,28,1,2,only_sub_right.png,1,RandomDot38.png,No answer,19,1.868,,
,,,,,,,,,,,,,,,,,,,,,,,,,,,,,,,R_2KryIkmTCOb6eUU,1,2024-05-06_19h55.36.757,interaction task,2021.2.3,MacIntel,62.5,120811,,,,,,,,,,,,,,,,Smaller,Greater,,,-0.31292517,-0.515217391,1,0,0,LeftButton,"[""LeftButton""]",,,,,,,,91,2.667,space,55,3.818,,,,,,0,29,29,29,1,1,both_wrong.png,2,RandomDot8.png,No answer,20,,,1.22
,,,,,,,,,,,,,,,,,,,,,,,,,,,,,,,R_2KryIkmTCOb6eUU,1,2024-05-06_19h55.36.757,interaction task,2021.2.3,MacIntel,62.5,120811,,,,,,,,,,,,,,,,Smaller,Greater,,,0.232653061,-0.480434783,1,0,0,RightButton,"[""RightButton""]",,,,,,,,,,,,,62.91829863,3.097,space,67.31601732,5.67,0,30,30,30,1,1,both_wrong.png,3,RandomDot7.png,No answer,21,,1.888,
,,,,,,,,,,,,,,,,,,,,,,,,,,,,,,,R_2KryIkmTCOb6eUU,1,2024-05-06_19h55.36.757,interaction task,2021.2.3,MacIntel,62.5,120811,,,,,,,,,,,,,,,,Smaller,Greater,,,0.349659864,-0.539130435,1,0,0,RightButton,"[""RightButton""]",,,,,,,,,,,,,53.84800385,5.273,space,54.81000481,7.808,0,31,31,31,1,1,both_wrong.png,3,RandomDot29.png,No answer,19,,1.018,
,,,,,,,,,,,,,,,,,,,,,,,,,,,,,,,R_2KryIkmTCOb6eUU,1,2024-05-06_19h55.36.757,interaction task,2021.2.3,MacIntel,62.5,120811,,,,,,,,,,,,,,,,Smaller,Greater,,,-0.246258503,-0.515217391,1,0,0,LeftButton,"[""LeftButton""]",,,,,,,,79,1.7,space,50,3.638,,,,,,0,32,32,32,1,2,only_sub_right.png,2,RandomDot37.png,No answer,19,,,0.71
,,,,,,,,,,,,,,,,,,,,,,,,,,,,,,,R_2KryIkmTCOb6eUU,1,2024-05-06_19h55.36.757,interaction task,2021.2.3,MacIntel,62.5,120811,,,,,,,,,,,,,,,,Greater,Smaller,,,0.341496599,-0.493478261,1,0,0,RightButton,"[""RightButton""]",,,,,,,,90,2.374,space,37,4.426,,,,,,0,33,33,33,1,2,only_sub_right.png,2,RandomDot33.png,No answer,20,,,0.568
,,,,,,,,,,,,,,,,,,,,,,,,,,,,,,,R_2KryIkmTCOb6eUU,1,2024-05-06_19h55.36.757,interaction task,2021.2.3,MacIntel,62.5,120811,,,,,,,,,,,,,,,,Greater,Smaller,,,0.342857143,-0.493478261,1,0,0,RightButton,"[""RightButton""]",59,2.574,space,0.834,,,,,,,,,,,,,,0,34,34,34,1,2,only_sub_right.png,0,RandomDot16.png,No answer,20,,,
,,,,,,,,,,,,,,,,,,,,,,,,,,,,,,,R_2KryIkmTCOb6eUU,1,2024-05-06_19h55.36.757,interaction task,2021.2.3,MacIntel,62.5,120811,,,,,,,,,,,,,,,,Smaller,Greater,,,-0.204081633,-0.489130435,1,0,0,LeftButton,"[""LeftButton""]",,,,,,,,,,,,,,,,,,0,35,35,35,1,0,both_right.png,3,RandomDot3.png,No answer,21,,,
,,,,,,,,,,,,,,,,,,,,,,,,,,,,,,,R_2KryIkmTCOb6eUU,1,2024-05-06_19h55.36.757,interaction task,2021.2.3,MacIntel,62.5,120811,,,,,,,,,,,,,,,,Greater,Smaller,,,0.319727891,-0.541304348,1,0,0,RightButton,"[""RightButton""]",,,,,,,,,,,,,60.30715316,2.434,space,42.57884972,3.719,0,36,36,36,1,1,both_wrong.png,3,RandomDot13.png,No answer,21,,1.427,
,,,,,,,,,,,,,,,,,,,,,,,,,,,,,,,R_2KryIkmTCOb6eUU,1,2024-05-06_19h55.36.757,interaction task,2021.2.3,MacIntel,62.5,120811,,,,,,,,,,,,,,,,Greater,Smaller,,,-0.239455782,-0.493478261,1,0,0,LeftButton,"[""LeftButton""]",,,,,,,,79,3.184,space,54,4.225,,,,,,0,37,37,37,1,1,both_wrong.png,2,RandomDot9.png,No answer,21,,,0.878
,,,,,,,,,,,,,,,,,,,,,,,,,,,,,,,R_2KryIkmTCOb6eUU,1,2024-05-06_19h55.36.757,interaction task,2021.2.3,MacIntel,62.5,120811,,,,,,,,,,,,,,,,Greater,Smaller,,,0.382312925,-0.489130435,1,0,0,RightButton,"[""RightButton""]",,,,,4.078231293,2.967,space,,,,,,,,,,,0,38,38,38,1,1,both_wrong.png,1,RandomDot23.png,No answer,21,1.443,,
,,,,,,,,,,,,,,,,,,,,,,,,,,,,,,,R_2KryIkmTCOb6eUU,1,2024-05-06_19h55.36.757,interaction task,2021.2.3,MacIntel,62.5,120811,,,,,,,,,,,,,,,,Smaller,Greater,,,-0.27755102,-0.545652174,1,0,0,LeftButton,"[""LeftButton""]",51,3.223,space,0.87,,,,,,,,,,,,,,0,39,39,39,1,2,only_sub_right.png,0,RandomDot16.png,No answer,21,,,
,,,,,,,,,,,,,,,,,,,,,,,,,,,,,,,R_2KryIkmTCOb6eUU,1,2024-05-06_19h55.36.757,interaction task,2021.2.3,MacIntel,62.5,120811,,,,,,,,,,,,,,,,Smaller,Greater,,,0.248979592,-0.519565217,1,0,0,RightButton,"[""RightButton""]",,,,,2.336734694,1.856,space,,,,,,,,,,,0,40,40,40,1,2,only_sub_right.png,1,RandomDot27.png,No answer,21,0.889,,
,,,,,,,,,,,,,,,,,,,,,,,,,,,,,,,R_2KryIkmTCOb6eUU,1,2024-05-06_19h55.36.757,interaction task,2021.2.3,MacIntel,62.5,120811,,,,,,,,,,,,,,,,Greater,Smaller,,,0.349659864,-0.526086957,1,0,0,RightButton,"[""RightButton""]",,,,,,,,,,,,,,,,,,0,41,41,41,1,0,both_right.png,2,RandomDot28.png,No answer,21,,,
