chooserow,ParID,pre_instru_resp_2.keys,pre_instru_resp_2.rt,pre_instru_resp_3.keys,pre_instru_resp_3.rt,pre_instru_resp_9.keys,pre_instru_resp_9.rt,pre_instru_resp_8.keys,pre_instru_resp_8.rt,pre_instru_resp_4.keys,pre_instru_resp_4.rt,pre_instru_resp_5.keys,pre_instru_resp_5.rt,pre_instru_resp_6.keys,pre_instru_resp_6.rt,key_resp_3.keys,key_resp_3.rt,key_resp_4.keys,key_resp_4.rt,key_resp_5.keys,key_resp_5.rt,key_resp_6.keys,key_resp_6.rt,key_resp_7.keys,key_resp_7.rt,trials_2.thisRepN,trials_2.thisTrialN,trials_2.thisN,trials_2.thisIndex,trials_2.ran,participant,session,date,expName,psychopyVersion,OS,frameRate,SONAid,pre_instru_resp.keys,pre_instru_resp.rt,clicked,judge_2.x,judge_2.y,judge_2.leftButton,judge_2.midButton,judge_2.rightButton,judge_2.clicked_name,trials.thisRepN,trials.thisTrialN,trials.thisN,trials.thisIndex,trials.ran,prac_answer,prac_dot_sti,dotlefttext,dotrighttext,prac_acc,judge.x,judge.y,judge.leftButton,judge.midButton,judge.rightButton,judge.clicked_name,clicked_guilt,slider_guilt.response,slider_guilt.rt,key_guilt.keys,share_slider.response,share_slider.rt,key_share.keys,slider_apology.response,slider_apology.rt,key_apology.keys,slider_hide.response,slider_hide.rt,slider_forgiveness.response,slider_forgiveness.rt,key_forgiveness.keys,slider_mad.response,slider_mad.rt,trialseq.thisRepN,trialseq.thisTrialN,trialseq.thisN,trialseq.thisIndex,trialseq.ran,type_trial,stipic,DV,picture,answer,number,key_forgiveness.rt,key_apology.rt,key_guilt.rt,key_share.rt
"[41,8,134,82,19,135,100,58,85,165,153,124,56,107,136,119,60,177,148,68,198,174,189,91,154,196,130,190,34,86,105,172,61,79,115,74,181,57,112,162,127,161]",R_2Pz1ESHNLhmVqlq,space,2.0153,space,3.1234,space,23.6213,space,50.0077,space,8.8793,space,7.0696,space,0.9299,3,29.4141,2,10.3281,3,16.1254,1,26.4164,3,13.4879,0,0,0,0,1,R_2Pz1ESHNLhmVqlq,1,2024-04-28_15h52.02.722,interaction task,2021.2.3,MacIntel,60.24096386,120605,,,,,,,,,,,,,,,,,,,,,,,,,,,,,,,,,,,,,,,,,,,,,,,,,,,,,,,,,
,,,,space,1.6472,space,1.5677,space,0.5956,space,0.5931,space,3.4135,space,0.6188,3,2.4113,2,11.7173,3,2.5111,2,6.8466,1,6.3186,1,0,1,0,1,R_2Pz1ESHNLhmVqlq,1,2024-04-28_15h52.02.722,interaction task,2021.2.3,MacIntel,60.24096386,120605,,,,,,,,,,,,,,,,,,,,,,,,,,,,,,,,,,,,,,,,,,,,,,,,,,,,,,,,,
,,,,space,0.6877,space,0.3041,space,0.288,space,0.2616,space,13.1989,space,0.851,3,1.2706,1,3.2999,3,1.499,2,3.298,2,3.635,2,0,2,0,1,R_2Pz1ESHNLhmVqlq,1,2024-04-28_15h52.02.722,interaction task,2021.2.3,MacIntel,60.24096386,120605,,,,,,,,,,,,,,,,,,,,,,,,,,,,,,,,,,,,,,,,,,,,,,,,,,,,,,,,,
,,,,,,,,,,,,,,,,,,,,,,,,,,,,,,,R_2Pz1ESHNLhmVqlq,1,2024-04-28_15h52.02.722,interaction task,2021.2.3,MacIntel,60.24096386,120605,space,1.2738,"[""LeftButton_2""]",-0.261876085,-0.261111111,1,0,0,LeftButton_2,0,0,0,2,1,RightButton_2,9dot2.png,Greater,Smaller,,,,,,,,,,,,,,,,,,,,,,,,,,,,,,,,,,,,,,,
,,,,,,,,,,,,,,,,,,,,,,,,,,,,,,,R_2Pz1ESHNLhmVqlq,1,2024-04-28_15h52.02.722,interaction task,2021.2.3,MacIntel,60.24096386,120605,,,"[""LeftButton_2""]",-0.235617405,-0.269210069,1,0,0,LeftButton_2,0,1,1,1,1,LeftButton_2,9dot2.png,Smaller,Greater,,,,,,,,,,,,,,,,,,,,,,,,,,,,,,,,,,,,,,,
,,,,,,,,,,,,,,,,,,,,,,,,,,,,,,,R_2Pz1ESHNLhmVqlq,1,2024-04-28_15h52.02.722,interaction task,2021.2.3,MacIntel,60.24096386,120605,,,"[""LeftButton_2""]",-0.355750868,-0.339661458,1,0,0,LeftButton_2,0,2,2,0,1,LeftButton_2,11dot2.png,Greater,Smaller,,,,,,,,,,,,,,,,,,,,,,,,,,,,,,,,,,,,,,,
,,,,,,,,,,,,,,,,,,,,,,,,,,,,,,,R_2Pz1ESHNLhmVqlq,1,2024-04-28_15h52.02.722,interaction task,2021.2.3,MacIntel,60.24096386,120605,,,,,,,,,,,,,,,,,Greater,Smaller,0.4,-0.285243056,-0.533385417,1,0,0,LeftButton,"[""LeftButton""]",,,,,,,,,,,,,,,,,0,0,0,0,1,0,both_right.png,3,RandomDot30.png,No answer,19,,,,
,,,,,,,,,,,,,,,,,,,,,,,,,,,,,,,R_2Pz1ESHNLhmVqlq,1,2024-04-28_15h52.02.722,interaction task,2021.2.3,MacIntel,60.24096386,120605,,,,,,,,,,,,,,,,,Smaller,Greater,,-0.242149523,-0.474409722,1,0,0,LeftButton,"[""LeftButton""]",,,,,,,,,,,,,,,,,0,1,1,1,1,0,both_right.png,0,RandomDot15.png,No answer,21,,,,
,,,,,,,,,,,,,,,,,,,,,,,,,,,,,,,R_2Pz1ESHNLhmVqlq,1,2024-04-28_15h52.02.722,interaction task,2021.2.3,MacIntel,60.24096386,120605,,,,,,,,,,,,,,,,,Greater,Smaller,,-0.201188151,-0.500590278,1,0,0,LeftButton,"[""LeftButton""]",,,,,,,,,,,,99.29174558,17.6045,space,0.242989794,15.3947,0,2,2,2,1,2,only_sub_right.png,3,RandomDot22.png,No answer,20,3.3179,,,
,,,,,,,,,,,,,,,,,,,,,,,,,,,,,,,R_2Pz1ESHNLhmVqlq,1,2024-04-28_15h52.02.722,interaction task,2021.2.3,MacIntel,60.24096386,120605,,,,,,,,,,,,,,,,,Smaller,Greater,,0.304237196,-0.518151042,1,0,0,RightButton,"[""RightButton""]",,,,,,,10,7.3805,space,70,17.2833,,,,,,0,3,3,3,1,1,both_wrong.png,2,RandomDot7.png,No answer,21,,7.2337,,
,,,,,,,,,,,,,,,,,,,,,,,,,,,,,,,R_2Pz1ESHNLhmVqlq,1,2024-04-28_15h52.02.722,interaction task,2021.2.3,MacIntel,60.24096386,120605,,,,,,,,,,,,,,,,,Smaller,Greater,,0.323464627,-0.490946181,1,0,0,RightButton,"[""RightButton""]",,,,,,,,,,,,,,,,,0,4,4,4,1,0,both_right.png,1,RandomDot36.png,No answer,19,,,,
,,,,,,,,,,,,,,,,,,,,,,,,,,,,,,,R_2Pz1ESHNLhmVqlq,1,2024-04-28_15h52.02.722,interaction task,2021.2.3,MacIntel,60.24096386,120605,,,,,,,,,,,,,,,,,Greater,Smaller,,-0.351432292,-0.543628472,1,0,0,LeftButton,"[""LeftButton""]",,,,,,,,,,,,99.59534582,4.1259,space,0.822789527,5.6009,0,5,5,5,1,2,only_sub_right.png,3,RandomDot26.png,No answer,20,1.5618,,,
,,,,,,,,,,,,,,,,,,,,,,,,,,,,,,,R_2Pz1ESHNLhmVqlq,1,2024-04-28_15h52.02.722,interaction task,2021.2.3,MacIntel,60.24096386,120605,,,,,,,,,,,,,,,,,Greater,Smaller,,-0.37523329,-0.497890625,1,0,0,LeftButton,"[""LeftButton""]",0,3.0789,space,,,,,,,,,,,,,,0,6,6,6,1,2,only_sub_right.png,0,RandomDot33.png,No answer,21,,,1.347,
,,,,,,,,,,,,,,,,,,,,,,,,,,,,,,,R_2Pz1ESHNLhmVqlq,1,2024-04-28_15h52.02.722,interaction task,2021.2.3,MacIntel,60.24096386,120605,,,,,,,,,,,,,,,,,Smaller,Greater,,0.3066352,-0.522178819,1,0,0,RightButton,"[""RightButton""]",0,3.2684,space,,,,,,,,,,,,,,0,7,7,7,1,1,both_wrong.png,0,RandomDot34.png,No answer,19,,,0.8845,
,,,,,,,,,,,,,,,,,,,,,,,,,,,,,,,R_2Pz1ESHNLhmVqlq,1,2024-04-28_15h52.02.722,interaction task,2021.2.3,MacIntel,60.24096386,120605,,,,,,,,,,,,,,,,,Greater,Smaller,,0.280707465,-0.510659722,1,0,0,RightButton,"[""RightButton""]",,,,,,,,,,,,89.93439166,4.1688,space,9.849690481,8.1237,0,8,8,8,1,1,both_wrong.png,3,RandomDot40.png,No answer,21,0.6042,,,
,,,,,,,,,,,,,,,,,,,,,,,,,,,,,,,R_2Pz1ESHNLhmVqlq,1,2024-04-28_15h52.02.722,interaction task,2021.2.3,MacIntel,60.24096386,120605,,,,,,,,,,,,,,,,,Smaller,Greater,,0.298855252,-0.542881944,1,0,0,RightButton,"[""RightButton""]",,,,4.032986111,14.2507,space,,,,,,,,,,,0,9,9,9,1,3,only_sub_wrong.png,1,RandomDot6.png,No answer,21,,,,1.5665
,,,,,,,,,,,,,,,,,,,,,,,,,,,,,,,R_2Pz1ESHNLhmVqlq,1,2024-04-28_15h52.02.722,interaction task,2021.2.3,MacIntel,60.24096386,120605,,,,,,,,,,,,,,,,,Smaller,Greater,,0.290402561,-0.496432292,1,0,0,RightButton,"[""RightButton""]",0,3.2279,space,,,,,,,,,,,,,,0,10,10,10,1,3,only_sub_wrong.png,0,RandomDot25.png,No answer,20,,,0.4515,
,,,,,,,,,,,,,,,,,,,,,,,,,,,,,,,R_2Pz1ESHNLhmVqlq,1,2024-04-28_15h52.02.722,interaction task,2021.2.3,MacIntel,60.24096386,120605,,,,,,,,,,,,,,,,,Greater,Smaller,,-0.306542969,-0.541493056,1,0,0,LeftButton,"[""LeftButton""]",,,,,,,0,5.4517,space,91,12.8105,,,,,,0,11,11,11,1,2,only_sub_right.png,2,RandomDot20.png,No answer,20,,1.0357,,
,,,,,,,,,,,,,,,,,,,,,,,,,,,,,,,R_2Pz1ESHNLhmVqlq,1,2024-04-28_15h52.02.722,interaction task,2021.2.3,MacIntel,60.24096386,120605,,,,,,,,,,,,,,,,,Smaller,Greater,,-0.277121311,-0.526076389,1,0,0,LeftButton,"[""LeftButton""]",0,2.7943,space,,,,,,,,,,,,,,0,12,12,12,1,1,both_wrong.png,0,RandomDot39.png,No answer,21,,,0.3229,
,,,,,,,,,,,,,,,,,,,,,,,,,,,,,,,R_2Pz1ESHNLhmVqlq,1,2024-04-28_15h52.02.722,interaction task,2021.2.3,MacIntel,60.24096386,120605,,,,,,,,,,,,,,,,,Smaller,Greater,,0.290587023,-0.499461806,1,0,0,RightButton,"[""RightButton""]",0,3.1999,space,,,,,,,,,,,,,,0,13,13,13,1,2,only_sub_right.png,0,RandomDot37.png,No answer,21,,,0.7178,
,,,,,,,,,,,,,,,,,,,,,,,,,,,,,,,R_2Pz1ESHNLhmVqlq,1,2024-04-28_15h52.02.722,interaction task,2021.2.3,MacIntel,60.24096386,120605,,,,,,,,,,,,,,,,,Greater,Smaller,,-0.266742622,-0.531918403,1,0,0,LeftButton,"[""LeftButton""]",,,,,,,,,,,,100,8.3202,space,0.532341646,11.7683,0,14,14,14,1,2,only_sub_right.png,3,RandomDot10.png,No answer,19,0.4359,,,
,,,,,,,,,,,,,,,,,,,,,,,,,,,,,,,R_2Pz1ESHNLhmVqlq,1,2024-04-28_15h52.02.722,interaction task,2021.2.3,MacIntel,60.24096386,120605,,,,,,,,,,,,,,,,,Smaller,Greater,,0.273480903,-0.480460069,1,0,0,RightButton,"[""RightButton""]",,,,3.980821398,4.9316,space,,,,,,,,,,,0,15,15,15,1,2,only_sub_right.png,1,RandomDot38.png,No answer,19,,,,0.9331
,,,,,,,,,,,,,,,,,,,,,,,,,,,,,,,R_2Pz1ESHNLhmVqlq,1,2024-04-28_15h52.02.722,interaction task,2021.2.3,MacIntel,60.24096386,120605,,,,,,,,,,,,,,,,,Greater,Smaller,,-0.310693359,-0.504470486,1,0,0,LeftButton,"[""LeftButton""]",,,,4.995008681,2.3728,space,,,,,,,,,,,0,16,16,16,1,1,both_wrong.png,1,RandomDot13.png,No answer,19,,,,0.8836
,,,,,,,,,,,,,,,,,,,,,,,,,,,,,,,R_2Pz1ESHNLhmVqlq,1,2024-04-28_15h52.02.722,interaction task,2021.2.3,MacIntel,60.24096386,120605,,,,,,,,,,,,,,,,,Smaller,Greater,,0.282465278,-0.543506944,1,0,0,RightButton,"[""RightButton""]",,,,,,,0,6.3874,space,52,11.0378,,,,,,0,17,17,17,1,3,only_sub_wrong.png,2,RandomDot31.png,No answer,19,,0.5379,,
,,,,,,,,,,,,,,,,,,,,,,,,,,,,,,,R_2Pz1ESHNLhmVqlq,1,2024-04-28_15h52.02.722,interaction task,2021.2.3,MacIntel,60.24096386,120605,,,,,,,,,,,,,,,,,Greater,Smaller,,0.363742405,-0.524713542,1,0,0,RightButton,"[""RightButton""]",2,2.9436,space,,,,,,,,,,,,,,0,18,18,18,1,3,only_sub_wrong.png,0,RandomDot12.png,No answer,20,,,0.2534,
,,,,,,,,,,,,,,,,,,,,,,,,,,,,,,,R_2Pz1ESHNLhmVqlq,1,2024-04-28_15h52.02.722,interaction task,2021.2.3,MacIntel,60.24096386,120605,,,,,,,,,,,,,,,,,Smaller,Greater,,0.263709852,-0.525503472,1,0,0,RightButton,"[""RightButton""]",,,,4.377224392,2.588,space,,,,,,,,,,,0,19,19,19,1,1,both_wrong.png,1,RandomDot8.png,No answer,21,,,,0.5674
,,,,,,,,,,,,,,,,,,,,,,,,,,,,,,,R_2Pz1ESHNLhmVqlq,1,2024-04-28_15h52.02.722,interaction task,2021.2.3,MacIntel,60.24096386,120605,,,,,,,,,,,,,,,,,Greater,Smaller,,0.284130859,-0.484184028,1,0,0,RightButton,"[""RightButton""]",,,,,,,,,,,,,,,,,0,20,20,20,1,5,both_right.png,10,RandomDot42.png,RightButton,20,,,,
,,,,,,,,,,,,,,,,,,,,,,,,,,,,,,,R_2Pz1ESHNLhmVqlq,1,2024-04-28_15h52.02.722,interaction task,2021.2.3,MacIntel,60.24096386,120605,,,,,,,,,,,,,,,,,Smaller,Greater,,0.317795139,-0.490329861,1,0,0,RightButton,"[""RightButton""]",,,,,,,10,3.3935,space,18,4.2486,,,,,,0,21,21,21,1,3,only_sub_wrong.png,2,RandomDot15.png,No answer,21,,0.5671,,
,,,,,,,,,,,,,,,,,,,,,,,,,,,,,,,R_2Pz1ESHNLhmVqlq,1,2024-04-28_15h52.02.722,interaction task,2021.2.3,MacIntel,60.24096386,120605,,,,,,,,,,,,,,,,,Smaller,Greater,,0.210747613,-0.503185764,1,0,0,RightButton,"[""RightButton""]",,,,,,,,,,,,71.98252052,4.5885,space,52.51593627,7.1961,0,22,22,22,1,3,only_sub_wrong.png,3,RandomDot38.png,No answer,20,0.3503,,,
,,,,,,,,,,,,,,,,,,,,,,,,,,,,,,,R_2Pz1ESHNLhmVqlq,1,2024-04-28_15h52.02.722,interaction task,2021.2.3,MacIntel,60.24096386,120605,,,,,,,,,,,,,,,,,Smaller,Greater,,-0.252620443,-0.519340278,1,0,0,LeftButton,"[""LeftButton""]",,,,,,,,,,,,88.53476168,3.8029,space,41.58523166,4.8569,0,23,23,23,1,1,both_wrong.png,3,RandomDot23.png,No answer,20,0.65,,,
,,,,,,,,,,,,,,,,,,,,,,,,,,,,,,,R_2Pz1ESHNLhmVqlq,1,2024-04-28_15h52.02.722,interaction task,2021.2.3,MacIntel,60.24096386,120605,,,,,,,,,,,,,,,,,Smaller,Greater,,-0.376459418,-0.502300347,1,0,0,LeftButton,"[""LeftButton""]",14,2.1852,space,,,,,,,,,,,,,,0,24,24,24,1,3,only_sub_wrong.png,0,RandomDot25.png,No answer,21,,,0.3031,
,,,,,,,,,,,,,,,,,,,,,,,,,,,,,,,R_2Pz1ESHNLhmVqlq,1,2024-04-28_15h52.02.722,interaction task,2021.2.3,MacIntel,60.24096386,120605,,,,,,,,,,,,,,,,,Smaller,Greater,,0.312586806,-0.516996528,1,0,0,RightButton,"[""RightButton""]",,,,,,,,,,,,,,,,,0,25,25,25,1,4,both_right.png,10,RandomDot41.png,RightButton,5,,,,
,,,,,,,,,,,,,,,,,,,,,,,,,,,,,,,R_2Pz1ESHNLhmVqlq,1,2024-04-28_15h52.02.722,interaction task,2021.2.3,MacIntel,60.24096386,120605,,,,,,,,,,,,,,,,,Smaller,Greater,,-0.374093967,-0.544696181,1,0,0,LeftButton,"[""LeftButton""]",,,,,,,81,5.9008,space,28,7.1662,,,,,,0,26,26,26,1,2,only_sub_right.png,2,RandomDot8.png,No answer,21,,0.2533,,
,,,,,,,,,,,,,,,,,,,,,,,,,,,,,,,R_2Pz1ESHNLhmVqlq,1,2024-04-28_15h52.02.722,interaction task,2021.2.3,MacIntel,60.24096386,120605,,,,,,,,,,,,,,,,,Smaller,Greater,,0.257394748,-0.512638889,1,0,0,RightButton,"[""RightButton""]",,,,,,,,,,,,75.95014818,1.4417,space,25.87583737,2.2128,0,27,27,27,1,3,only_sub_wrong.png,3,RandomDot7.png,No answer,19,0.1691,,,
,,,,,,,,,,,,,,,,,,,,,,,,,,,,,,,R_2Pz1ESHNLhmVqlq,1,2024-04-28_15h52.02.722,interaction task,2021.2.3,MacIntel,60.24096386,120605,,,,,,,,,,,,,,,,,Smaller,Greater,,-0.347021484,-0.541154514,1,0,0,LeftButton,"[""LeftButton""]",,,,,,,,,,,,,,,,,0,28,28,28,1,0,both_right.png,2,RandomDot15.png,No answer,21,,,,
,,,,,,,,,,,,,,,,,,,,,,,,,,,,,,,R_2Pz1ESHNLhmVqlq,1,2024-04-28_15h52.02.722,interaction task,2021.2.3,MacIntel,60.24096386,120605,,,,,,,,,,,,,,,,,Greater,Smaller,,-0.330143229,-0.539722222,1,0,0,LeftButton,"[""LeftButton""]",,,,,,,,,,,,88.12594259,3.2349,space,14.23983761,3.9955,0,29,29,29,1,1,both_wrong.png,3,RandomDot13.png,No answer,21,0.2636,,,
,,,,,,,,,,,,,,,,,,,,,,,,,,,,,,,R_2Pz1ESHNLhmVqlq,1,2024-04-28_15h52.02.722,interaction task,2021.2.3,MacIntel,60.24096386,120605,,,,,,,,,,,,,,,,,Smaller,Greater,,0.32562934,-0.476640625,1,0,0,RightButton,"[""RightButton""]",1,2.2013,space,,,,,,,,,,,,,,0,30,30,30,1,2,only_sub_right.png,0,RandomDot17.png,No answer,20,,,0.3962,
,,,,,,,,,,,,,,,,,,,,,,,,,,,,,,,R_2Pz1ESHNLhmVqlq,1,2024-04-28_15h52.02.722,interaction task,2021.2.3,MacIntel,60.24096386,120605,,,,,,,,,,,,,,,,,Greater,Smaller,,0.334950087,-0.498602431,1,0,0,RightButton,"[""RightButton""]",,,,,,,10,3.0889,space,74,6.9223,,,,,,0,31,31,31,1,3,only_sub_wrong.png,2,RandomDot38.png,No answer,21,,0.7218,,
,,,,,,,,,,,,,,,,,,,,,,,,,,,,,,,R_2Pz1ESHNLhmVqlq,1,2024-04-28_15h52.02.722,interaction task,2021.2.3,MacIntel,60.24096386,120605,,,,,,,,,,,,,,,,,Greater,Smaller,,-0.261159939,-0.503480903,1,0,0,LeftButton,"[""LeftButton""]",,,,4.991834852,2.041,space,,,,,,,,,,,0,32,32,32,1,1,both_wrong.png,1,RandomDot23.png,No answer,21,,,,0.3505
,,,,,,,,,,,,,,,,,,,,,,,,,,,,,,,R_2Pz1ESHNLhmVqlq,1,2024-04-28_15h52.02.722,interaction task,2021.2.3,MacIntel,60.24096386,120605,,,,,,,,,,,,,,,,,Smaller,Greater,,-0.275113932,-0.495095486,1,0,0,LeftButton,"[""LeftButton""]",,,,,,,20,2.6987,space,66,4.3857,,,,,,0,33,33,33,1,1,both_wrong.png,2,RandomDot24.png,No answer,21,,0.3188,,
,,,,,,,,,,,,,,,,,,,,,,,,,,,,,,,R_2Pz1ESHNLhmVqlq,1,2024-04-28_15h52.02.722,interaction task,2021.2.3,MacIntel,60.24096386,120605,,,,,,,,,,,,,,,,,Smaller,Greater,,-0.282025825,-0.500842014,1,0,0,LeftButton,"[""LeftButton""]",,,,3.990668403,2.3652,space,,,,,,,,,,,0,34,34,34,1,2,only_sub_right.png,1,RandomDot14.png,No answer,20,,,,0.3516
,,,,,,,,,,,,,,,,,,,,,,,,,,,,,,,R_2Pz1ESHNLhmVqlq,1,2024-04-28_15h52.02.722,interaction task,2021.2.3,MacIntel,60.24096386,120605,,,,,,,,,,,,,,,,,Greater,Smaller,,0.359217665,-0.479175347,1,0,0,RightButton,"[""RightButton""]",,,,,,,12,2.6489,space,65,3.7561,,,,,,0,35,35,35,1,1,both_wrong.png,2,RandomDot16.png,No answer,20,,0.1631,,
,,,,,,,,,,,,,,,,,,,,,,,,,,,,,,,R_2Pz1ESHNLhmVqlq,1,2024-04-28_15h52.02.722,interaction task,2021.2.3,MacIntel,60.24096386,120605,,,,,,,,,,,,,,,,,Greater,Smaller,,-0.300819227,-0.488394097,1,0,0,LeftButton,"[""LeftButton""]",,,,,,,,,,,,90.05550295,4.298,space,20.98754472,6.0489,0,36,36,36,1,3,only_sub_wrong.png,3,RandomDot3.png,No answer,19,0.735,,,
,,,,,,,,,,,,,,,,,,,,,,,,,,,,,,,R_2Pz1ESHNLhmVqlq,1,2024-04-28_15h52.02.722,interaction task,2021.2.3,MacIntel,60.24096386,120605,,,,,,,,,,,,,,,,,Smaller,Greater,,-0.278553602,-0.484288194,1,0,0,LeftButton,"[""LeftButton""]",10,2.6502,space,,,,,,,,,,,,,,0,37,37,37,1,1,both_wrong.png,0,RandomDot22.png,No answer,21,,,0.1527,
,,,,,,,,,,,,,,,,,,,,,,,,,,,,,,,R_2Pz1ESHNLhmVqlq,1,2024-04-28_15h52.02.722,interaction task,2021.2.3,MacIntel,60.24096386,120605,,,,,,,,,,,,,,,,,Greater,Smaller,,0.275569661,-0.501796875,1,0,0,RightButton,"[""RightButton""]",,,,4.897949219,8.2202,space,,,,,,,,,,,0,38,38,38,1,2,only_sub_right.png,1,RandomDot32.png,No answer,19,,,,0.8016
,,,,,,,,,,,,,,,,,,,,,,,,,,,,,,,R_2Pz1ESHNLhmVqlq,1,2024-04-28_15h52.02.722,interaction task,2021.2.3,MacIntel,60.24096386,120605,,,,,,,,,,,,,,,,,Smaller,Greater,,-0.286659071,-0.522795139,1,0,0,LeftButton,"[""LeftButton""]",,,,4.760579427,3.2331,space,,,,,,,,,,,0,39,39,39,1,3,only_sub_wrong.png,1,RandomDot15.png,No answer,21,,,,0.3548
,,,,,,,,,,,,,,,,,,,,,,,,,,,,,,,R_2Pz1ESHNLhmVqlq,1,2024-04-28_15h52.02.722,interaction task,2021.2.3,MacIntel,60.24096386,120605,,,,,,,,,,,,,,,,,Smaller,Greater,,0.285416667,-0.5190625,1,0,0,RightButton,"[""RightButton""]",,,,,,,14,4.1807,space,68,5.4147,,,,,,0,40,40,40,1,2,only_sub_right.png,2,RandomDot22.png,No answer,19,,0.2359,,
,,,,,,,,,,,,,,,,,,,,,,,,,,,,,,,R_2Pz1ESHNLhmVqlq,1,2024-04-28_15h52.02.722,interaction task,2021.2.3,MacIntel,60.24096386,120605,,,,,,,,,,,,,,,,,Greater,Smaller,,0.300694444,-0.515911458,1,0,0,RightButton,"[""RightButton""]",,,,4.855794271,1.3556,space,,,,,,,,,,,0,41,41,41,1,3,only_sub_wrong.png,1,RandomDot36.png,No answer,19,,,,0.2
