chooserow,ParID,pre_instru_resp_2.keys,pre_instru_resp_2.rt,pre_instru_resp_3.keys,pre_instru_resp_3.rt,pre_instru_resp_9.keys,pre_instru_resp_9.rt,pre_instru_resp_8.keys,pre_instru_resp_8.rt,pre_instru_resp_4.keys,pre_instru_resp_4.rt,pre_instru_resp_5.keys,pre_instru_resp_5.rt,pre_instru_resp_6.keys,pre_instru_resp_6.rt,key_resp_3.keys,key_resp_3.rt,key_resp_4.keys,key_resp_4.rt,key_resp_5.keys,key_resp_5.rt,key_resp_6.keys,key_resp_6.rt,key_resp_7.keys,key_resp_7.rt,trials_2.thisRepN,trials_2.thisTrialN,trials_2.thisN,trials_2.thisIndex,trials_2.ran,participant,session,date,expName,psychopyVersion,OS,frameRate,SONAid,pre_instru_resp.keys,pre_instru_resp.rt,clicked,judge_2.x,judge_2.y,judge_2.leftButton,judge_2.midButton,judge_2.rightButton,judge_2.clicked_name,trials.thisRepN,trials.thisTrialN,trials.thisN,trials.thisIndex,trials.ran,prac_answer,prac_dot_sti,dotlefttext,dotrighttext,prac_acc,judge.x,judge.y,judge.leftButton,judge.midButton,judge.rightButton,judge.clicked_name,clicked_guilt,slider_guilt.response,slider_guilt.rt,key_guilt.keys,share_slider.response,share_slider.rt,key_share.keys,slider_apology.response,slider_apology.rt,key_apology.keys,slider_hide.response,slider_hide.rt,slider_forgiveness.response,slider_forgiveness.rt,key_forgiveness.keys,slider_mad.response,slider_mad.rt,trialseq.thisRepN,trialseq.thisTrialN,trialseq.thisN,trialseq.thisIndex,trialseq.ran,type_trial,stipic,DV,picture,answer,number,key_forgiveness.rt,key_guilt.rt,key_apology.rt,key_share.rt
"[9,91,153,93,122,101,54,112,183,171,164,70,179,199,162,139,50,23,104,100,128,141,111,90,74,184,35,129,63,116,197,176,71,58,160,75,154,155,182,80,41,143]",R_2R6CcD6FyRm7qDv,space,1.4551,space,0.5347,space,0.5575,space,0.4528,space,0.4913,space,4.8745,space,0.5415,3,1.945,2,4.0937,3,5.3418,2,3.0404,1,7.6233,0,0,0,0,1,R_2R6CcD6FyRm7qDv,1,2024-04-28_22h36.29.209,interaction task,2021.2.3,MacIntel,59.88023952,120605,,,,,,,,,,,,,,,,,,,,,,,,,,,,,,,,,,,,,,,,,,,,,,,,,,,,,,,,,
,,,,space,0.7814,space,0.3684,space,0.2814,space,0.5158,space,2.4485,space,0.9151,3,1.196,3,4.1319,3,1.8474,2,2.6481,2,2.4601,1,0,1,0,1,R_2R6CcD6FyRm7qDv,1,2024-04-28_22h36.29.209,interaction task,2021.2.3,MacIntel,59.88023952,120605,,,,,,,,,,,,,,,,,,,,,,,,,,,,,,,,,,,,,,,,,,,,,,,,,,,,,,,,,
,,,,space,2.4036,space,0.4957,space,0.3311,space,0.3046,space,7.2162,space,0.4865,3,1.2132,1,1.9112,3,1.7695,2,1.65,2,0.8508,2,0,2,0,1,R_2R6CcD6FyRm7qDv,1,2024-04-28_22h36.29.209,interaction task,2021.2.3,MacIntel,59.88023952,120605,,,,,,,,,,,,,,,,,,,,,,,,,,,,,,,,,,,,,,,,,,,,,,,,,,,,,,,,,
,,,,,,,,,,,,,,,,,,,,,,,,,,,,,,,R_2R6CcD6FyRm7qDv,1,2024-04-28_22h36.29.209,interaction task,2021.2.3,MacIntel,59.88023952,120605,space,0.9718,"[""RightButton_2""]",0.32460395,-0.347734375,1,0,0,RightButton_2,0,0,0,2,1,LeftButton_2,11dot1.png,Greater,Smaller,,,,,,,,,,,,,,,,,,,,,,,,,,,,,,,,,,,,,,,
,,,,,,,,,,,,,,,,,,,,,,,,,,,,,,,R_2R6CcD6FyRm7qDv,1,2024-04-28_22h36.29.209,interaction task,2021.2.3,MacIntel,59.88023952,120605,,,"[""LeftButton_2""]",-0.231841363,-0.338741319,1,0,0,LeftButton_2,0,1,1,0,1,RightButton_2,11dot1.png,Smaller,Greater,,,,,,,,,,,,,,,,,,,,,,,,,,,,,,,,,,,,,,,
,,,,,,,,,,,,,,,,,,,,,,,,,,,,,,,R_2R6CcD6FyRm7qDv,1,2024-04-28_22h36.29.209,interaction task,2021.2.3,MacIntel,59.88023952,120605,,,"[""LeftButton_2""]",-0.303721788,-0.306475694,1,0,0,LeftButton_2,0,2,2,1,1,RightButton_2,9dot1.png,Greater,Smaller,,,,,,,,,,,,,,,,,,,,,,,,,,,,,,,,,,,,,,,
,,,,,,,,,,,,,,,,,,,,,,,,,,,,,,,R_2R6CcD6FyRm7qDv,1,2024-04-28_22h36.29.209,interaction task,2021.2.3,MacIntel,59.88023952,120605,,,,,,,,,,,,,,,,,Smaller,Greater,0,0.325645616,-0.516805556,1,0,0,RightButton,"[""RightButton""]",,,,,,,,,,,,,,,,,0,0,0,0,1,0,both_right.png,0,RandomDot5.png,No answer,21,,,,
,,,,,,,,,,,,,,,,,,,,,,,,,,,,,,,R_2R6CcD6FyRm7qDv,1,2024-04-28_22h36.29.209,interaction task,2021.2.3,MacIntel,59.88023952,120605,,,,,,,,,,,,,,,,,Smaller,Greater,,-0.320632595,-0.5178125,1,0,0,LeftButton,"[""LeftButton""]",,,,,,,,,,,,93.68336139,4.2104,space,12.00338892,5.6981,0,1,1,1,1,1,both_wrong.png,3,RandomDot23.png,No answer,20,0.4529,,,
,,,,,,,,,,,,,,,,,,,,,,,,,,,,,,,R_2R6CcD6FyRm7qDv,1,2024-04-28_22h36.29.209,interaction task,2021.2.3,MacIntel,59.88023952,120605,,,,,,,,,,,,,,,,,Smaller,Greater,,0.315397135,-0.507604167,1,0,0,RightButton,"[""RightButton""]",4,1.9,space,,,,,,,,,,,,,,0,2,2,2,1,3,only_sub_wrong.png,0,RandomDot25.png,No answer,20,,0.9807,,
,,,,,,,,,,,,,,,,,,,,,,,,,,,,,,,R_2R6CcD6FyRm7qDv,1,2024-04-28_22h36.29.209,interaction task,2021.2.3,MacIntel,59.88023952,120605,,,,,,,,,,,,,,,,,Smaller,Greater,,0.309743924,-0.494296875,1,0,0,RightButton,"[""RightButton""]",,,,,,,,,,,,97.83895816,2.5417,space,9.477040369,4.0759,0,3,3,3,1,1,both_wrong.png,3,RandomDot12.png,No answer,21,0.5832,,,
,,,,,,,,,,,,,,,,,,,,,,,,,,,,,,,R_2R6CcD6FyRm7qDv,1,2024-04-28_22h36.29.209,interaction task,2021.2.3,MacIntel,59.88023952,120605,,,,,,,,,,,,,,,,,Greater,Smaller,,-0.291525608,-0.484392361,1,0,0,LeftButton,"[""LeftButton""]",,,,,,,3,5.3049,space,72,8.1944,,,,,,0,4,4,4,1,2,only_sub_right.png,2,RandomDot33.png,No answer,20,,,1.551,
,,,,,,,,,,,,,,,,,,,,,,,,,,,,,,,R_2R6CcD6FyRm7qDv,1,2024-04-28_22h36.29.209,interaction task,2021.2.3,MacIntel,59.88023952,120605,,,,,,,,,,,,,,,,,Greater,Smaller,,-0.317952474,-0.490286458,1,0,0,LeftButton,"[""LeftButton""]",0,2.1434,space,,,,,,,,,,,,,,0,5,5,5,1,2,only_sub_right.png,0,RandomDot18.png,No answer,21,,0.6214,,
,,,,,,,,,,,,,,,,,,,,,,,,,,,,,,,R_2R6CcD6FyRm7qDv,1,2024-04-28_22h36.29.209,interaction task,2021.2.3,MacIntel,59.88023952,120605,,,,,,,,,,,,,,,,,Smaller,Greater,,0.30906033,-0.524557292,1,0,0,RightButton,"[""RightButton""]",2,1.7356,space,,,,,,,,,,,,,,0,6,6,6,1,1,both_wrong.png,0,RandomDot23.png,No answer,20,,0.4342,,
,,,,,,,,,,,,,,,,,,,,,,,,,,,,,,,R_2R6CcD6FyRm7qDv,1,2024-04-28_22h36.29.209,interaction task,2021.2.3,MacIntel,59.88023952,120605,,,,,,,,,,,,,,,,,Greater,Smaller,,-0.318381076,-0.523871528,1,0,0,LeftButton,"[""LeftButton""]",,,,4.998725043,3.7993,space,,,,,,,,,,,0,7,7,7,1,2,only_sub_right.png,1,RandomDot32.png,No answer,19,,,,0.5968
,,,,,,,,,,,,,,,,,,,,,,,,,,,,,,,R_2R6CcD6FyRm7qDv,1,2024-04-28_22h36.29.209,interaction task,2021.2.3,MacIntel,59.88023952,120605,,,,,,,,,,,,,,,,,Greater,Smaller,,-0.337901476,-0.543628472,1,0,0,LeftButton,"[""LeftButton""]",,,,,,,,,,,,88.76492793,3.3225,space,20.16990653,4.229,0,8,8,8,1,3,only_sub_wrong.png,3,RandomDot17.png,No answer,19,0.4011,,,
,,,,,,,,,,,,,,,,,,,,,,,,,,,,,,,R_2R6CcD6FyRm7qDv,1,2024-04-28_22h36.29.209,interaction task,2021.2.3,MacIntel,59.88023952,120605,,,,,,,,,,,,,,,,,Greater,Smaller,,0.311452908,-0.502256944,1,0,0,RightButton,"[""RightButton""]",,,,,,,4,4.3898,space,93,6.0385,,,,,,0,9,9,9,1,3,only_sub_wrong.png,2,RandomDot23.png,No answer,20,,,0.4531,
,,,,,,,,,,,,,,,,,,,,,,,,,,,,,,,R_2R6CcD6FyRm7qDv,1,2024-04-28_22h36.29.209,interaction task,2021.2.3,MacIntel,59.88023952,120605,,,,,,,,,,,,,,,,,Smaller,Greater,,0.332313368,-0.520763889,1,0,0,RightButton,"[""RightButton""]",,,,3.028645833,1.7558,space,,,,,,,,,,,0,10,10,10,1,3,only_sub_wrong.png,1,RandomDot40.png,No answer,19,,,,0.321
,,,,,,,,,,,,,,,,,,,,,,,,,,,,,,,R_2R6CcD6FyRm7qDv,1,2024-04-28_22h36.29.209,interaction task,2021.2.3,MacIntel,59.88023952,120605,,,,,,,,,,,,,,,,,Smaller,Greater,,-0.296343316,-0.51328125,1,0,0,LeftButton,"[""LeftButton""]",,,,3.966878255,2.5221,space,,,,,,,,,,,0,11,11,11,1,1,both_wrong.png,1,RandomDot29.png,No answer,19,,,,0.4688
,,,,,,,,,,,,,,,,,,,,,,,,,,,,,,,R_2R6CcD6FyRm7qDv,1,2024-04-28_22h36.29.209,interaction task,2021.2.3,MacIntel,59.88023952,120605,,,,,,,,,,,,,,,,,Smaller,Greater,,0.284233941,-0.514496528,1,0,0,RightButton,"[""RightButton""]",,,,,,,5,3.5193,space,52,5.32,,,,,,0,12,12,12,1,3,only_sub_wrong.png,2,RandomDot15.png,No answer,20,,,0.2712,
,,,,,,,,,,,,,,,,,,,,,,,,,,,,,,,R_2R6CcD6FyRm7qDv,1,2024-04-28_22h36.29.209,interaction task,2021.2.3,MacIntel,59.88023952,120605,,,,,,,,,,,,,,,,,Greater,Smaller,,0.325998264,-0.510868056,1,0,0,RightButton,"[""RightButton""]",,,,,,,,,,,,,,,,,0,13,13,13,1,5,both_right.png,10,RandomDot42.png,RightButton,19,,,,
,,,,,,,,,,,,,,,,,,,,,,,,,,,,,,,R_2R6CcD6FyRm7qDv,1,2024-04-28_22h36.29.209,interaction task,2021.2.3,MacIntel,59.88023952,120605,,,,,,,,,,,,,,,,,Smaller,Greater,,-0.222173394,-0.50890625,1,0,0,LeftButton,"[""LeftButton""]",,,,4.025227865,2.704,space,,,,,,,,,,,0,14,14,14,1,3,only_sub_wrong.png,1,RandomDot15.png,No answer,21,,,,0.5001
,,,,,,,,,,,,,,,,,,,,,,,,,,,,,,,R_2R6CcD6FyRm7qDv,1,2024-04-28_22h36.29.209,interaction task,2021.2.3,MacIntel,59.88023952,120605,,,,,,,,,,,,,,,,,Smaller,Greater,,0.290196398,-0.496388889,1,0,0,RightButton,"[""RightButton""]",,,,,,,,,,,,98.14365443,3.8591,space,4.954821654,6.9104,0,15,15,15,1,2,only_sub_right.png,3,RandomDot30.png,No answer,20,0.4344,,,
,,,,,,,,,,,,,,,,,,,,,,,,,,,,,,,R_2R6CcD6FyRm7qDv,1,2024-04-28_22h36.29.209,interaction task,2021.2.3,MacIntel,59.88023952,120605,,,,,,,,,,,,,,,,,Greater,Smaller,,-0.300726997,-0.478107639,1,0,0,LeftButton,"[""LeftButton""]",9,2.6028,space,,,,,,,,,,,,,,0,16,16,16,1,1,both_wrong.png,0,RandomDot12.png,No answer,21,,0.321,,
,,,,,,,,,,,,,,,,,,,,,,,,,,,,,,,R_2R6CcD6FyRm7qDv,1,2024-04-28_22h36.29.209,interaction task,2021.2.3,MacIntel,59.88023952,120605,,,,,,,,,,,,,,,,,Smaller,Greater,,0.320979818,-0.483828125,1,0,0,RightButton,"[""RightButton""]",,,,,,,,,,,,,,,,,0,17,17,17,1,0,both_right.png,1,RandomDot3.png,No answer,19,,,,
,,,,,,,,,,,,,,,,,,,,,,,,,,,,,,,R_2R6CcD6FyRm7qDv,1,2024-04-28_22h36.29.209,interaction task,2021.2.3,MacIntel,59.88023952,120605,,,,,,,,,,,,,,,,,Smaller,Greater,,0.285828993,-0.511571181,1,0,0,RightButton,"[""RightButton""]",0,2.8478,space,,,,,,,,,,,,,,0,18,18,18,1,2,only_sub_right.png,0,RandomDot29.png,No answer,20,,0.4012,,
,,,,,,,,,,,,,,,,,,,,,,,,,,,,,,,R_2R6CcD6FyRm7qDv,1,2024-04-28_22h36.29.209,interaction task,2021.2.3,MacIntel,59.88023952,120605,,,,,,,,,,,,,,,,,Greater,Smaller,,-0.366775174,-0.540442708,1,0,0,LeftButton,"[""LeftButton""]",1,2.095,space,,,,,,,,,,,,,,0,19,19,19,1,2,only_sub_right.png,0,RandomDot33.png,No answer,21,,0.3674,,
,,,,,,,,,,,,,,,,,,,,,,,,,,,,,,,R_2R6CcD6FyRm7qDv,1,2024-04-28_22h36.29.209,interaction task,2021.2.3,MacIntel,59.88023952,120605,,,,,,,,,,,,,,,,,Smaller,Greater,,-0.286507161,-0.530217014,1,0,0,LeftButton,"[""LeftButton""]",,,,,,,2,2.4212,space,57,7.8107,,,,,,0,20,20,20,1,2,only_sub_right.png,2,RandomDot22.png,No answer,20,,,0.2857,
,,,,,,,,,,,,,,,,,,,,,,,,,,,,,,,R_2R6CcD6FyRm7qDv,1,2024-04-28_22h36.29.209,interaction task,2021.2.3,MacIntel,59.88023952,120605,,,,,,,,,,,,,,,,,Smaller,Greater,,-0.269194878,-0.494730903,1,0,0,LeftButton,"[""LeftButton""]",,,,,,,,,,,,99.98114829,3.5685,space,0.318067831,6.2467,0,21,21,21,1,2,only_sub_right.png,3,RandomDot7.png,No answer,20,0.4707,,,
,,,,,,,,,,,,,,,,,,,,,,,,,,,,,,,R_2R6CcD6FyRm7qDv,1,2024-04-28_22h36.29.209,interaction task,2021.2.3,MacIntel,59.88023952,120605,,,,,,,,,,,,,,,,,Greater,Smaller,,-0.281456163,-0.521631944,1,0,0,LeftButton,"[""LeftButton""]",,,,0.982774523,2.0045,space,,,,,,,,,,,0,22,22,22,1,2,only_sub_right.png,1,RandomDot4.png,No answer,19,,,,0.2351
,,,,,,,,,,,,,,,,,,,,,,,,,,,,,,,R_2R6CcD6FyRm7qDv,1,2024-04-28_22h36.29.209,interaction task,2021.2.3,MacIntel,59.88023952,120605,,,,,,,,,,,,,,,,,Smaller,Greater,,0.270057509,-0.504696181,1,0,0,RightButton,"[""RightButton""]",,,,,,,,,,,,98.40560553,2.2507,space,3.914141414,3.1702,0,23,23,23,1,1,both_wrong.png,3,RandomDot29.png,No answer,19,0.3174,,,
,,,,,,,,,,,,,,,,,,,,,,,,,,,,,,,R_2R6CcD6FyRm7qDv,1,2024-04-28_22h36.29.209,interaction task,2021.2.3,MacIntel,59.88023952,120605,,,,,,,,,,,,,,,,,Greater,Smaller,,0.331873915,-0.481944444,1,0,0,RightButton,"[""RightButton""]",,,,,,,1,4.7488,space,64,7.0712,,,,,,0,24,24,24,1,1,both_wrong.png,2,RandomDot16.png,No answer,20,,,0.2832,
,,,,,,,,,,,,,,,,,,,,,,,,,,,,,,,R_2R6CcD6FyRm7qDv,1,2024-04-28_22h36.29.209,interaction task,2021.2.3,MacIntel,59.88023952,120605,,,,,,,,,,,,,,,,,Greater,Smaller,,-0.309331597,-0.489444444,1,0,0,LeftButton,"[""LeftButton""]",,,,,,,,,,,,85.26859305,4.0817,space,21.38704756,6.9014,0,25,25,25,1,3,only_sub_wrong.png,3,RandomDot20.png,No answer,20,1.6328,,,
,,,,,,,,,,,,,,,,,,,,,,,,,,,,,,,R_2R6CcD6FyRm7qDv,1,2024-04-28_22h36.29.209,interaction task,2021.2.3,MacIntel,59.88023952,120605,,,,,,,,,,,,,,,,,Smaller,Greater,,0.303938802,-0.527022569,1,0,0,RightButton,"[""RightButton""]",,,,,,,,,,,,,,,,,0,26,26,26,1,0,both_right.png,2,RandomDot25.png,No answer,19,,,,
,,,,,,,,,,,,,,,,,,,,,,,,,,,,,,,R_2R6CcD6FyRm7qDv,1,2024-04-28_22h36.29.209,interaction task,2021.2.3,MacIntel,59.88023952,120605,,,,,,,,,,,,,,,,,Smaller,Greater,,-0.25422092,-0.510572917,1,0,0,LeftButton,"[""LeftButton""]",,,,,,,0,2.9971,space,87,6.6393,,,,,,0,27,27,27,1,2,only_sub_right.png,2,RandomDot37.png,No answer,19,,,0.7725,
,,,,,,,,,,,,,,,,,,,,,,,,,,,,,,,R_2R6CcD6FyRm7qDv,1,2024-04-28_22h36.29.209,interaction task,2021.2.3,MacIntel,59.88023952,120605,,,,,,,,,,,,,,,,,Greater,Smaller,,-0.241129557,-0.537100694,1,0,0,LeftButton,"[""LeftButton""]",,,,3.048665365,1.3229,space,,,,,,,,,,,0,28,28,28,1,1,both_wrong.png,1,RandomDot27.png,No answer,19,,,,0.362
,,,,,,,,,,,,,,,,,,,,,,,,,,,,,,,R_2R6CcD6FyRm7qDv,1,2024-04-28_22h36.29.209,interaction task,2021.2.3,MacIntel,59.88023952,120605,,,,,,,,,,,,,,,,,Smaller,Greater,,-0.27249349,-0.49265625,1,0,0,LeftButton,"[""LeftButton""]",,,,2.466851128,2.3155,space,,,,,,,,,,,0,29,29,29,1,2,only_sub_right.png,1,RandomDot25.png,No answer,19,,,,0.371
,,,,,,,,,,,,,,,,,,,,,,,,,,,,,,,R_2R6CcD6FyRm7qDv,1,2024-04-28_22h36.29.209,interaction task,2021.2.3,MacIntel,59.88023952,120605,,,,,,,,,,,,,,,,,Smaller,Greater,,0.322965495,-0.530338542,1,0,0,RightButton,"[""RightButton""]",,,,,,,,,,,,,,,,,0,30,30,30,1,4,both_right.png,10,RandomDot41.png,RightButton,5,,,,
,,,,,,,,,,,,,,,,,,,,,,,,,,,,,,,R_2R6CcD6FyRm7qDv,1,2024-04-28_22h36.29.209,interaction task,2021.2.3,MacIntel,59.88023952,120605,,,,,,,,,,,,,,,,,Smaller,Greater,,-0.295073785,-0.528298611,1,0,0,LeftButton,"[""LeftButton""]",,,,,,,14,3.0611,space,58,4.4174,,,,,,0,31,31,31,1,3,only_sub_wrong.png,2,RandomDot40.png,No answer,20,,,0.3174,
,,,,,,,,,,,,,,,,,,,,,,,,,,,,,,,R_2R6CcD6FyRm7qDv,1,2024-04-28_22h36.29.209,interaction task,2021.2.3,MacIntel,59.88023952,120605,,,,,,,,,,,,,,,,,Smaller,Greater,,0.33445638,-0.536458333,1,0,0,RightButton,"[""RightButton""]",,,,2.406141493,5.4832,space,,,,,,,,,,,0,32,32,32,1,1,both_wrong.png,1,RandomDot14.png,No answer,20,,,,0.4856
,,,,,,,,,,,,,,,,,,,,,,,,,,,,,,,R_2R6CcD6FyRm7qDv,1,2024-04-28_22h36.29.209,interaction task,2021.2.3,MacIntel,59.88023952,120605,,,,,,,,,,,,,,,,,Smaller,Greater,,-0.269585503,-0.489114583,1,0,0,LeftButton,"[""LeftButton""]",4,2.1533,space,,,,,,,,,,,,,,0,33,33,33,1,1,both_wrong.png,0,RandomDot34.png,No answer,19,,0.3009,,
,,,,,,,,,,,,,,,,,,,,,,,,,,,,,,,R_2R6CcD6FyRm7qDv,1,2024-04-28_22h36.29.209,interaction task,2021.2.3,MacIntel,59.88023952,120605,,,,,,,,,,,,,,,,,Greater,Smaller,,0.347932943,-0.533394097,1,0,0,RightButton,"[""RightButton""]",,,,3.011257595,7.7546,space,,,,,,,,,,,0,34,34,34,1,3,only_sub_wrong.png,1,RandomDot22.png,No answer,19,,,,5.7884
,,,,,,,,,,,,,,,,,,,,,,,,,,,,,,,R_2R6CcD6FyRm7qDv,1,2024-04-28_22h36.29.209,interaction task,2021.2.3,MacIntel,59.88023952,120605,,,,,,,,,,,,,,,,,Greater,Smaller,,0.33320855,-0.505555556,1,0,0,RightButton,"[""RightButton""]",,,,,,,41,2.2645,space,37,3.6983,,,,,,0,35,35,35,1,1,both_wrong.png,2,RandomDot10.png,No answer,20,,,0.4106,
,,,,,,,,,,,,,,,,,,,,,,,,,,,,,,,R_2R6CcD6FyRm7qDv,1,2024-04-28_22h36.29.209,interaction task,2021.2.3,MacIntel,59.88023952,120605,,,,,,,,,,,,,,,,,Smaller,Greater,,0.302235243,-0.542682292,1,0,0,RightButton,"[""RightButton""]",1,1.8913,space,,,,,,,,,,,,,,0,36,36,36,1,3,only_sub_wrong.png,0,RandomDot25.png,No answer,21,,0.3175,,
,,,,,,,,,,,,,,,,,,,,,,,,,,,,,,,R_2R6CcD6FyRm7qDv,1,2024-04-28_22h36.29.209,interaction task,2021.2.3,MacIntel,59.88023952,120605,,,,,,,,,,,,,,,,,Smaller,Greater,,-0.24953342,-0.501545139,1,0,0,LeftButton,"[""LeftButton""]",20,3.1196,space,,,,,,,,,,,,,,0,37,37,37,1,3,only_sub_wrong.png,0,RandomDot2.png,No answer,20,,0.2398,,
,,,,,,,,,,,,,,,,,,,,,,,,,,,,,,,R_2R6CcD6FyRm7qDv,1,2024-04-28_22h36.29.209,interaction task,2021.2.3,MacIntel,59.88023952,120605,,,,,,,,,,,,,,,,,Greater,Smaller,,0.378130425,-0.541519097,1,0,0,RightButton,"[""RightButton""]",,,,,,,,,,,,72.02800575,7.954,space,27.12585929,5.0565,0,38,38,38,1,3,only_sub_wrong.png,3,RandomDot8.png,No answer,21,5.1859,,,
,,,,,,,,,,,,,,,,,,,,,,,,,,,,,,,R_2R6CcD6FyRm7qDv,1,2024-04-28_22h36.29.209,interaction task,2021.2.3,MacIntel,59.88023952,120605,,,,,,,,,,,,,,,,,Smaller,Greater,,0.357150608,-0.531302083,1,0,0,RightButton,"[""RightButton""]",,,,,,,12,3.8935,space,51,5.0045,,,,,,0,39,39,39,1,1,both_wrong.png,2,RandomDot8.png,No answer,20,,,1.3021,
,,,,,,,,,,,,,,,,,,,,,,,,,,,,,,,R_2R6CcD6FyRm7qDv,1,2024-04-28_22h36.29.209,interaction task,2021.2.3,MacIntel,59.88023952,120605,,,,,,,,,,,,,,,,,Greater,Smaller,,-0.279166667,-0.521571181,1,0,0,LeftButton,"[""LeftButton""]",,,,,,,,,,,,,,,,,0,40,40,40,1,0,both_right.png,3,RandomDot30.png,No answer,19,,,,
,,,,,,,,,,,,,,,,,,,,,,,,,,,,,,,R_2R6CcD6FyRm7qDv,1,2024-04-28_22h36.29.209,interaction task,2021.2.3,MacIntel,59.88023952,120605,,,,,,,,,,,,,,,,,Smaller,Greater,,0.308680556,-0.510546875,1,0,0,RightButton,"[""RightButton""]",,,,,,,,,,,,83.23764994,1.4304,space,19.61312342,2.5002,0,41,41,41,1,2,only_sub_right.png,3,RandomDot31.png,No answer,19,2.7664,,,
