chooserow,ParID,pre_instru_resp_2.keys,pre_instru_resp_2.rt,pre_instru_resp_3.keys,pre_instru_resp_3.rt,pre_instru_resp_9.keys,pre_instru_resp_9.rt,pre_instru_resp_8.keys,pre_instru_resp_8.rt,pre_instru_resp_4.keys,pre_instru_resp_4.rt,pre_instru_resp_5.keys,pre_instru_resp_5.rt,pre_instru_resp_6.keys,pre_instru_resp_6.rt,key_resp_3.keys,key_resp_3.rt,key_resp_4.keys,key_resp_4.rt,key_resp_5.keys,key_resp_5.rt,key_resp_6.keys,key_resp_6.rt,key_resp_7.keys,key_resp_7.rt,trials_2.thisRepN,trials_2.thisTrialN,trials_2.thisN,trials_2.thisIndex,trials_2.ran,participant,session,date,expName,psychopyVersion,OS,frameRate,SONAid,pre_instru_resp.keys,pre_instru_resp.rt,clicked,judge_2.x,judge_2.y,judge_2.leftButton,judge_2.midButton,judge_2.rightButton,judge_2.clicked_name,trials.thisRepN,trials.thisTrialN,trials.thisN,trials.thisIndex,trials.ran,prac_answer,prac_dot_sti,dotlefttext,dotrighttext,prac_acc,judge.x,judge.y,judge.leftButton,judge.midButton,judge.rightButton,judge.clicked_name,clicked_guilt,slider_guilt.response,slider_guilt.rt,key_guilt.keys,share_slider.response,share_slider.rt,key_share.keys,slider_apology.response,slider_apology.rt,key_apology.keys,slider_hide.response,slider_hide.rt,slider_forgiveness.response,slider_forgiveness.rt,key_forgiveness.keys,key_forgiveness.rt,slider_mad.response,slider_mad.rt,trialseq.thisRepN,trialseq.thisTrialN,trialseq.thisN,trialseq.thisIndex,trialseq.ran,type_trial,stipic,DV,picture,answer,number,key_share.rt,key_guilt.rt,key_apology.rt,incompleteTrials,trials_redo.thisRepN,trials_redo.thisTrialN,trials_redo.thisN,trials_redo.thisIndex,trials_redo.ran
"[134,186,165,98,69,161,131,174,151,195,140,58,106,42,87,146,156,199,116,16,90,52,141,130,115,77,85,67,62,50,177,24,99,9,178,129,147,188,72,82,117,187]",R_3NHYjetBGepYbrK,space,2.9512,space,3.7332,space,13.5585,space,17.9333,space,38.0043,space,7.8949,space,3.5773,3,10.8685,3,9.9511,3,9.1693,2,12.0217,2,6.1232,0,0,0,0,1,R_3NHYjetBGepYbrK,1,2024-05-03_13h34.59.294,interaction task,2021.2.3,MacIntel,30.03003003,120245,,,,,,,,,,,,,,,,,,,,,,,,,,,,,,,,,,,,,,,,,,,,,,,,,,,,,,,,,,,,,,,
,,,,space,2.4012,space,4.0261,space,3.6443,space,0.6107,space,1.5181,space,0.5157,3,5.5514,1,6.4576,3,4.8037,2,2.4493,2,1.096,1,0,1,0,1,R_3NHYjetBGepYbrK,1,2024-05-03_13h34.59.294,interaction task,2021.2.3,MacIntel,30.03003003,120245,,,,,,,,,,,,,,,,,,,,,,,,,,,,,,,,,,,,,,,,,,,,,,,,,,,,,,,,,,,,,,,
,,,,,,,,,,,,,,,,,,,,,,,,,,,,,,,R_3NHYjetBGepYbrK,1,2024-05-03_13h34.59.294,interaction task,2021.2.3,MacIntel,30.03003003,120245,space,1.7346,"[""LeftButton_2""]",-0.266427951,-0.337204861,1,0,0,LeftButton_2,0,0,0,2,1,LeftButton_2,11dot2.png,Greater,Smaller,,,,,,,,,,,,,,,,,,,,,,,,,,,,,,,,,,,,,,,,,,,,,
,,,,,,,,,,,,,,,,,,,,,,,,,,,,,,,R_3NHYjetBGepYbrK,1,2024-05-03_13h34.59.294,interaction task,2021.2.3,MacIntel,30.03003003,120245,,,"[""LeftButton_2""]",-0.266427951,-0.337204861,1,0,0,LeftButton_2,0,1,1,0,1,LeftButton_2,11dot1.png,Greater,Smaller,,,,,,,,,,,,,,,,,,,,,,,,,,,,,,,,,,,,,,,,,,,,,
,,,,,,,,,,,,,,,,,,,,,,,,,,,,,,,R_3NHYjetBGepYbrK,1,2024-05-03_13h34.59.294,interaction task,2021.2.3,MacIntel,30.03003003,120245,,,"[""LeftButton_2""]",-0.266427951,-0.337204861,1,0,0,LeftButton_2,0,2,2,1,1,RightButton_2,11dot1.png,Smaller,Greater,,,,,,,,,,,,,,,,,,,,,,,,,,,,,,,,,,,,,,,,,,,,,
,,,,,,,,,,,,,,,,,,,,,,,,,,,,,,,R_3NHYjetBGepYbrK,1,2024-05-03_13h34.59.294,interaction task,2021.2.3,MacIntel,30.03003003,120245,,,,,,,,,,,,,,,,,Greater,Smaller,0.4,-0.27070855,-0.51828125,1,0,0,LeftButton,"[""LeftButton""]",,,,,,,,,,,,99.75701021,10.1929,space,1.3793,0.666057274,16.971,0,0,0,0,1,2,only_sub_right.png,3,RandomDot22.png,No answer,20,,,,,,,,,
,,,,,,,,,,,,,,,,,,,,,,,,,,,,,,,R_3NHYjetBGepYbrK,1,2024-05-03_13h34.59.294,interaction task,2021.2.3,MacIntel,30.03003003,120245,,,,,,,,,,,,,,,,,Smaller,Greater,,0.277360026,-0.539513889,1,0,0,RightButton,"[""RightButton""]",,,,,,,,,,,,49.77092978,3.74,space,1.5882,59.58587612,6.9756,0,1,1,1,1,3,only_sub_wrong.png,3,RandomDot9.png,No answer,19,,,,,,,,,
,,,,,,,,,,,,,,,,,,,,,,,,,,,,,,,R_3NHYjetBGepYbrK,1,2024-05-03_13h34.59.294,interaction task,2021.2.3,MacIntel,30.03003003,120245,,,,,,,,,,,,,,,,,Smaller,Greater,,0.267561849,-0.530173611,1,0,0,RightButton,"[""RightButton""]",,,,3.016276042,11.1323,space,,,,,,,,,,,,0,2,2,2,1,3,only_sub_wrong.png,1,RandomDot6.png,No answer,21,1.3705,,,,,,,,
,,,,,,,,,,,,,,,,,,,,,,,,,,,,,,,R_3NHYjetBGepYbrK,1,2024-05-03_13h34.59.294,interaction task,2021.2.3,MacIntel,30.03003003,120245,,,,,,,,,,,,,,,,,Greater,Smaller,,0.282253689,-0.530460069,1,0,0,RightButton,"[""RightButton""]",1,8.8195,space,,,,,,,,,,,,,,,0,3,3,3,1,2,only_sub_right.png,0,RandomDot16.png,No answer,20,,1.0365,,,,,,,
,,,,,,,,,,,,,,,,,,,,,,,,,,,,,,,R_3NHYjetBGepYbrK,1,2024-05-03_13h34.59.294,interaction task,2021.2.3,MacIntel,30.03003003,120245,,,,,,,,,,,,,,,,,Smaller,Greater,,0.289339193,-0.505607639,1,0,0,RightButton,"[""RightButton""]",,,,3.003553602,3.6482,space,,,,,,,,,,,,0,4,4,4,1,1,both_wrong.png,1,RandomDot13.png,No answer,19,1.0564,,,,,,,,
,,,,,,,,,,,,,,,,,,,,,,,,,,,,,,,R_3NHYjetBGepYbrK,1,2024-05-03_13h34.59.294,interaction task,2021.2.3,MacIntel,30.03003003,120245,,,,,,,,,,,,,,,,,Greater,Smaller,,-0.260682509,-0.515243056,1,0,0,LeftButton,"[""LeftButton""]",,,,2.994981554,6.8833,space,,,,,,,,,,,,0,5,5,5,1,3,only_sub_wrong.png,1,RandomDot36.png,No answer,19,2.9561,,,,,,,,
,,,,,,,,,,,,,,,,,,,,,,,,,,,,,,,R_3NHYjetBGepYbrK,1,2024-05-03_13h34.59.294,interaction task,2021.2.3,MacIntel,30.03003003,120245,,,,,,,,,,,,,,,,,Smaller,Greater,,-0.222352431,-0.509331597,1,0,0,LeftButton,"[""LeftButton""]",,,,,,,0,6.2142,space,2,12.1968,,,,,,,0,6,6,6,1,2,only_sub_right.png,2,RandomDot5.png,No answer,21,,,2.7354,,,,,,
,,,,,,,,,,,,,,,,,,,,,,,,,,,,,,,R_3NHYjetBGepYbrK,1,2024-05-03_13h34.59.294,interaction task,2021.2.3,MacIntel,30.03003003,120245,,,,,,,,,,,,,,,,,Smaller,Greater,,-0.30367296,-0.518125,1,0,0,LeftButton,"[""LeftButton""]",,,,,,,20,4.8273,space,60,8.8767,,,,,,,0,7,7,7,1,3,only_sub_wrong.png,2,RandomDot15.png,No answer,21,,,1.0529,,,,,,
,,,,,,,,,,,,,,,,,,,,,,,,,,,,,,,R_3NHYjetBGepYbrK,1,2024-05-03_13h34.59.294,interaction task,2021.2.3,MacIntel,30.03003003,120245,,,,,,,,,,,,,,,,,Smaller,Greater,,-0.356656901,-0.499678819,1,0,0,LeftButton,"[""LeftButton""]",60,3.1171,space,,,,,,,,,,,,,,,0,8,8,8,1,3,only_sub_wrong.png,0,RandomDot26.png,No answer,19,,1.9452,,,,,,,
,,,,,,,,,,,,,,,,,,,,,,,,,,,,,,,R_3NHYjetBGepYbrK,1,2024-05-03_13h34.59.294,interaction task,2021.2.3,MacIntel,30.03003003,120245,,,,,,,,,,,,,,,,,Smaller,Greater,,0.284749349,-0.534826389,1,0,0,RightButton,"[""RightButton""]",,,,,,,,,,,,,,,,,,0,9,9,9,1,4,both_right.png,10,RandomDot41.png,RightButton,5,,,,,,,,,
,,,,,,,,,,,,,,,,,,,,,,,,,,,,,,,R_3NHYjetBGepYbrK,1,2024-05-03_13h34.59.294,interaction task,2021.2.3,MacIntel,30.03003003,120245,,,,,,,,,,,,,,,,,Smaller,Greater,,0.284749349,-0.534826389,1,0,0,RightButton,"[""RightButton""]",,,,,,,,,,,,99.67645202,4.413,space,1.1857,1.860729693,6.3362,0,10,10,10,1,2,only_sub_right.png,3,RandomDot8.png,No answer,19,,,,,,,,,
,,,,,,,,,,,,,,,,,,,,,,,,,,,,,,,R_3NHYjetBGepYbrK,1,2024-05-03_13h34.59.294,interaction task,2021.2.3,MacIntel,30.03003003,120245,,,,,,,,,,,,,,,,,Smaller,Greater,,-0.311962891,-0.530529514,1,0,0,LeftButton,"[""LeftButton""]",0,5.4511,space,,,,,,,,,,,,,,,0,11,11,11,1,1,both_wrong.png,0,RandomDot34.png,No answer,19,,0.8864,,,,,,,
,,,,,,,,,,,,,,,,,,,,,,,,,,,,,,,R_3NHYjetBGepYbrK,1,2024-05-03_13h34.59.294,interaction task,2021.2.3,MacIntel,30.03003003,120245,,,,,,,,,,,,,,,,,Smaller,Greater,,-0.273583984,-0.52,1,0,0,LeftButton,"[""LeftButton""]",5,2.585,space,,,,,,,,,,,,,,,0,12,12,12,1,2,only_sub_right.png,0,RandomDot39.png,No answer,19,,0.7833,,,,,,,
,,,,,,,,,,,,,,,,,,,,,,,,,,,,,,,R_3NHYjetBGepYbrK,1,2024-05-03_13h34.59.294,interaction task,2021.2.3,MacIntel,30.03003003,120245,,,,,,,,,,,,,,,,,Smaller,Greater,,0.320453559,-0.482048611,1,0,0,RightButton,"[""RightButton""]",,,,,,,,,,,,,,,,,,0,13,13,13,1,0,both_right.png,3,RandomDot11.png,No answer,20,,,,,,,,,
,,,,,,,,,,,,,,,,,,,,,,,,,,,,,,,R_3NHYjetBGepYbrK,1,2024-05-03_13h34.59.294,interaction task,2021.2.3,MacIntel,30.03003003,120245,,,,,,,,,,,,,,,,,Greater,Smaller,,-0.289084201,-0.488246528,1,0,0,LeftButton,"[""LeftButton""]",,,,,,,,,,,,0.66112514,6.5018,space,0.9196,3.237891063,13.7934,0,14,14,14,1,1,both_wrong.png,3,RandomDot17.png,No answer,21,,,,,,,,,
,,,,,,,,,,,,,,,,,,,,,,,,,,,,,,,R_3NHYjetBGepYbrK,1,2024-05-03_13h34.59.294,interaction task,2021.2.3,MacIntel,30.03003003,120245,,,,,,,,,,,,,,,,,Greater,Smaller,,0.216525608,-0.517282986,1,0,0,RightButton,"[""RightButton""]",89,7.204,space,,,,,,,,,,,,,,,0,15,15,15,1,3,only_sub_wrong.png,0,RandomDot38.png,No answer,21,,1.6283,,,,,,,
,,,,,,,,,,,,,,,,,,,,,,,,,,,,,,,R_3NHYjetBGepYbrK,1,2024-05-03_13h34.59.294,interaction task,2021.2.3,MacIntel,30.03003003,120245,,,,,,,,,,,,,,,,,Greater,Smaller,,0.207145182,-0.491961806,1,0,0,RightButton,"[""RightButton""]",,,,3.126464844,4.6204,space,,,,,,,,,,,,0,16,16,16,1,3,only_sub_wrong.png,1,RandomDot4.png,No answer,20,1.2848,,,,,,,,
,,,,,,,,,,,,,,,,,,,,,,,,,,,,,,,R_3NHYjetBGepYbrK,1,2024-05-03_13h34.59.294,interaction task,2021.2.3,MacIntel,30.03003003,120245,,,,,,,,,,,,,,,,,Greater,Smaller,,0.33352322,-0.497604167,1,0,0,RightButton,"[""RightButton""]",,,,,,,,,,,,,,,,,,0,17,17,17,1,5,both_right.png,10,RandomDot42.png,RightButton,19,,,,,,,,,
,,,,,,,,,,,,,,,,,,,,,,,,,,,,,,,R_3NHYjetBGepYbrK,1,2024-05-03_13h34.59.294,interaction task,2021.2.3,MacIntel,30.03003003,120245,,,,,,,,,,,,,,,,,Smaller,Greater,,0.28811849,-0.504131944,1,0,0,RightButton,"[""RightButton""]",,,,2.016574436,5.9502,space,,,,,,,,,,,,0,18,18,18,1,2,only_sub_right.png,1,RandomDot25.png,No answer,19,0.9407,,,,,,,,
,,,,,,,,,,,,,,,,,,,,,,,,,,,,,,,R_3NHYjetBGepYbrK,1,2024-05-03_13h34.59.294,interaction task,2021.2.3,MacIntel,30.03003003,120245,,,,,,,,,,,,,,,,,Greater,Smaller,,0.350515408,-0.485616319,1,0,0,RightButton,"[""RightButton""]",,,,,,,,,,,,,,,,,,0,19,19,19,1,0,both_right.png,1,RandomDot12.png,No answer,21,,,,,,,,,
,,,,,,,,,,,,,,,,,,,,,,,,,,,,,,,R_3NHYjetBGepYbrK,1,2024-05-03_13h34.59.294,interaction task,2021.2.3,MacIntel,30.03003003,120245,,,,,,,,,,,,,,,,,Smaller,Greater,,0.261214193,-0.500694444,1,0,0,RightButton,"[""RightButton""]",,,,,,,,,,,,89.68997703,3.8591,space,2.7514,0.546042017,6.029,0,20,20,20,1,1,both_wrong.png,3,RandomDot29.png,No answer,19,,,,,,,,,
,,,,,,,,,,,,,,,,,,,,,,,,,,,,,,,R_3NHYjetBGepYbrK,1,2024-05-03_13h34.59.294,interaction task,2021.2.3,MacIntel,30.03003003,120245,,,,,,,,,,,,,,,,,Greater,Smaller,,0.245675998,-0.541553819,1,0,0,RightButton,"[""RightButton""]",98,4.0163,space,,,,,,,,,,,,,,,0,21,21,21,1,1,both_wrong.png,0,RandomDot10.png,No answer,20,,2.4146,,,,,,,
,,,,,,,,,,,,,,,,,,,,,,,,,,,,,,,R_3NHYjetBGepYbrK,1,2024-05-03_13h34.59.294,interaction task,2021.2.3,MacIntel,30.03003003,120245,,,,,,,,,,,,,,,,,Smaller,Greater,,0.29812283,-0.521380208,1,0,0,RightButton,"[""RightButton""]",,,,,,,,,,,,97.64441288,3.647,space,1.451,1.527536651,5.4525,0,22,22,22,1,2,only_sub_right.png,3,RandomDot7.png,No answer,20,,,,,,,,,
,,,,,,,,,,,,,,,,,,,,,,,,,,,,,,,R_3NHYjetBGepYbrK,1,2024-05-03_13h34.59.294,interaction task,2021.2.3,MacIntel,30.03003003,120245,,,,,,,,,,,,,,,,,Smaller,Greater,,-0.305430773,-0.478689236,1,0,0,LeftButton,"[""LeftButton""]",,,,,,,0,4.0987,space,69,8.8476,,,,,,,0,23,23,23,1,2,only_sub_right.png,2,RandomDot8.png,No answer,21,,,1.0976,,,,,,
,,,,,,,,,,,,,,,,,,,,,,,,,,,,,,,R_3NHYjetBGepYbrK,1,2024-05-03_13h34.59.294,interaction task,2021.2.3,MacIntel,30.03003003,120245,,,,,,,,,,,,,,,,,Smaller,Greater,,0.272976345,-0.485112847,1,0,0,RightButton,"[""RightButton""]",,,,3.019585503,3457.4011,space,,,,,,,,,,,,0,24,24,24,1,2,only_sub_right.png,1,RandomDot14.png,No answer,20,14.6012,,,,,,,,
,,,,,,,,,,,,,,,,,,,,,,,,,,,,,,,R_3NHYjetBGepYbrK,1,2024-05-03_13h34.59.294,interaction task,2021.2.3,MacIntel,30.03003003,120245,,,,,,,,,,,,,,,,,Greater,Smaller,,0.329020182,-0.51055313,1,0,0,RightButton,"[""RightButton""]",,,,,,,0,7.9283,space,1,13.0263,,,,,,,0,25,25,25,1,1,both_wrong.png,2,RandomDot13.png,No answer,21,,,0.877,,,,,,
,,,,,,,,,,,,,,,,,,,,,,,,,,,,,,,R_3NHYjetBGepYbrK,1,2024-05-03_13h34.59.294,interaction task,2021.2.3,MacIntel,30.03003003,120245,,,,,,,,,,,,,,,,,Greater,Smaller,,0.277370877,-0.507265625,1,0,0,RightButton,"[""RightButton""]",,,,,,,,,,,,98.79414808,4.4153,space,1.0982,1.366420279,6.919,0,26,26,26,1,1,both_wrong.png,3,RandomDot40.png,No answer,21,,,,,,,,,
,,,,,,,,,,,,,,,,,,,,,,,,,,,,,,,R_3NHYjetBGepYbrK,1,2024-05-03_13h34.59.294,interaction task,2021.2.3,MacIntel,30.03003003,120245,,,,,,,,,,,,,,,,,Smaller,Greater,,0.275981988,-0.525121528,1,0,0,RightButton,"[""RightButton""]",,,,3.01820204,4.4924,space,,,,,,,,,,,,0,27,27,27,1,1,both_wrong.png,1,RandomDot17.png,No answer,20,1.0623,,,,,,,,
,,,,,,,,,,,,,,,,,,,,,,,,,,,,,,,R_3NHYjetBGepYbrK,1,2024-05-03_13h34.59.294,interaction task,2021.2.3,MacIntel,30.03003003,120245,,,,,,,,,,,,,,,,,Greater,Smaller,,0.30164388,-0.503680556,1,0,0,RightButton,"[""RightButton""]",,,,3.996446398,2.3657,space,,,,,,,,,,,,0,28,28,28,1,1,both_wrong.png,1,RandomDot28.png,No answer,21,0.9394,,,,,,,,
,,,,,,,,,,,,,,,,,,,,,,,,,,,,,,,R_3NHYjetBGepYbrK,1,2024-05-03_13h34.59.294,interaction task,2021.2.3,MacIntel,30.03003003,120245,,,,,,,,,,,,,,,,,Greater,Smaller,,0.327967665,-0.519678819,1,0,0,RightButton,"[""RightButton""]",2,3.1143,space,,,,,,,,,,,,,,,0,29,29,29,1,1,both_wrong.png,0,RandomDot12.png,No answer,21,,1.24,,,,,,,
,,,,,,,,,,,,,,,,,,,,,,,,,,,,,,,R_3NHYjetBGepYbrK,1,2024-05-03_13h34.59.294,interaction task,2021.2.3,MacIntel,30.03003003,120245,,,,,,,,,,,,,,,,,Smaller,Greater,,0.234928385,-0.508654514,1,0,0,RightButton,"[""RightButton""]",,,,,,,78,3.362,space,80,9.167,,,,,,,0,30,30,30,1,3,only_sub_wrong.png,2,RandomDot31.png,No answer,19,,,4.4343,,,,,,
,,,,,,,,,,,,,,,,,,,,,,,,,,,,,,,R_3NHYjetBGepYbrK,1,2024-05-03_13h34.59.294,interaction task,2021.2.3,MacIntel,30.03003003,120245,,,,,,,,,,,,,,,,,Greater,Smaller,,-0.328548177,-0.527170139,1,0,0,LeftButton,"[""LeftButton""]",,,,,,,,,,,,,,,,,,0,31,31,31,1,0,both_right.png,2,RandomDot25.png,No answer,19,,,,,,,,,
,,,,,,,,,,,,,,,,,,,,,,,,,,,,,,,R_3NHYjetBGepYbrK,1,2024-05-03_13h34.59.294,interaction task,2021.2.3,MacIntel,30.03003003,120245,,,,,,,,,,,,,,,,,Greater,Smaller,,0.037809245,-0.787857078,0,0,0,,[],,,,,,,,,,,,,,,,,,0,32,32,32,1,2,only_sub_right.png,0,RandomDot21.png,No answer,19,,,,99,,,,,
,,,,,,,,,,,,,,,,,,,,,,,,,,,,,,,R_3NHYjetBGepYbrK,1,2024-05-03_13h34.59.294,interaction task,2021.2.3,MacIntel,30.03003003,120245,,,,,,,,,,,,,,,,,Smaller,Greater,,-0.362923177,-0.531875455,1,0,0,LeftButton,"[""LeftButton""]",,,,,,,,,,,,,,,,,,0,33,33,33,1,0,both_right.png,0,RandomDot5.png,No answer,21,,,,,,,,,
,,,,,,,,,,,,,,,,,,,,,,,,,,,,,,,R_3NHYjetBGepYbrK,1,2024-05-03_13h34.59.294,interaction task,2021.2.3,MacIntel,30.03003003,120245,,,,,,,,,,,,,,,,,Smaller,Greater,,-0.041189236,-0.591350528,0,0,0,,[],,,,,,,,,,,,,,,,,,0,34,34,34,1,3,only_sub_wrong.png,2,RandomDot22.png,No answer,19,,,,178,,,,,
,,,,,,,,,,,,,,,,,,,,,,,,,,,,,,,R_3NHYjetBGepYbrK,1,2024-05-03_13h34.59.294,interaction task,2021.2.3,MacIntel,30.03003003,120245,,,,,,,,,,,,,,,,,Smaller,Greater,,-0.352756076,-0.534183952,1,0,0,LeftButton,"[""LeftButton""]",,,,,,,1,3.2275,space,0,6.8124,,,,,,,0,35,35,35,1,2,only_sub_right.png,2,RandomDot37.png,No answer,19,,,1.3628,,,,,,
,,,,,,,,,,,,,,,,,,,,,,,,,,,,,,,R_3NHYjetBGepYbrK,1,2024-05-03_13h34.59.294,interaction task,2021.2.3,MacIntel,30.03003003,120245,,,,,,,,,,,,,,,,,Greater,Smaller,,0.281553819,-0.484761645,1,0,0,RightButton,"[""RightButton""]",90,5.1338,space,,,,,,,,,,,,,,,0,36,36,36,1,3,only_sub_wrong.png,0,RandomDot5.png,No answer,20,,1.4196,,,,,,,
,,,,,,,,,,,,,,,,,,,,,,,,,,,,,,,R_3NHYjetBGepYbrK,1,2024-05-03_13h34.59.294,interaction task,2021.2.3,MacIntel,30.03003003,120245,,,,,,,,,,,,,,,,,Smaller,Greater,,-0.300591363,-0.533126365,1,0,0,LeftButton,"[""LeftButton""]",,,,,,,,,,,,8.064258032,3.9467,space,0.8017,92.87229938,6.4474,0,37,37,37,1,3,only_sub_wrong.png,3,RandomDot22.png,No answer,21,,,,,,,,,
,,,,,,,,,,,,,,,,,,,,,,,,,,,,,,,R_3NHYjetBGepYbrK,1,2024-05-03_13h34.59.294,interaction task,2021.2.3,MacIntel,30.03003003,120245,,,,,,,,,,,,,,,,,Greater,Smaller,,0.332221137,-0.539073872,1,0,0,RightButton,"[""RightButton""]",,,,,,,1,2.6715,space,1,5.4965,,,,,,,0,38,38,38,1,1,both_wrong.png,2,RandomDot1.png,No answer,21,,,0.5954,,,,,,
,,,,,,,,,,,,,,,,,,,,,,,,,,,,,,,R_3NHYjetBGepYbrK,1,2024-05-03_13h34.59.294,interaction task,2021.2.3,MacIntel,30.03003003,120245,,,,,,,,,,,,,,,,,Smaller,Greater,,-0.31624349,-0.580206059,0,0,0,,[],,,,,,,,,,,,,,,,,,0,39,39,39,1,1,both_wrong.png,2,RandomDot7.png,No answer,21,,,,82,,,,,
,,,,,,,,,,,,,,,,,,,,,,,,,,,,,,,R_3NHYjetBGepYbrK,1,2024-05-03_13h34.59.294,interaction task,2021.2.3,MacIntel,30.03003003,120245,,,,,,,,,,,,,,,,,Smaller,Greater,,-0.308897569,-0.46439456,1,0,0,LeftButton,"[""LeftButton""]",,,,3.007595486,3.8954,space,,,,,,,,,,,,0,40,40,40,1,2,only_sub_right.png,1,RandomDot27.png,No answer,21,0.6092,,,,,,,,
,,,,,,,,,,,,,,,,,,,,,,,,,,,,,,,R_3NHYjetBGepYbrK,1,2024-05-03_13h34.59.294,interaction task,2021.2.3,MacIntel,30.03003003,120245,,,,,,,,,,,,,,,,,Smaller,Greater,,-0.27664388,-0.482157478,1,0,0,LeftButton,"[""LeftButton""]",,,,,,,,,,,,3.76398534,5.4466,space,0.4188,90.41554872,10.3452,0,41,41,41,1,3,only_sub_wrong.png,3,RandomDot18.png,No answer,21,,,,,,,,,
,,,,,,,,,,,,,,,,,,,,,,,,,,,,,,,R_3NHYjetBGepYbrK,1,2024-05-03_13h34.59.294,interaction task,2021.2.3,MacIntel,30.03003003,120245,,,,,,,,,,,,,,,,,Smaller,Greater,,-0.289382595,-0.504366812,1,0,0,LeftButton,"[""LeftButton""]",,,,,,,89,2.9144,space,86,5.3352,,,,,,,,,,,,3,only_sub_wrong.png,2,RandomDot22.png,No answer,19,,,1.8193,,0,0,0,1,1
,,,,,,,,,,,,,,,,,,,,,,,,,,,,,,,R_3NHYjetBGepYbrK,1,2024-05-03_13h34.59.294,interaction task,2021.2.3,MacIntel,30.03003003,120245,,,,,,,,,,,,,,,,,Greater,Smaller,,-0.287825521,-0.488195961,1,0,0,LeftButton,"[""LeftButton""]",0,2.0495,space,,,,,,,,,,,,,,,,,,,,2,only_sub_right.png,0,RandomDot21.png,No answer,19,,0.9882,,,0,1,1,0,1
,,,,,,,,,,,,,,,,,,,,,,,,,,,,,,,R_3NHYjetBGepYbrK,1,2024-05-03_13h34.59.294,interaction task,2021.2.3,MacIntel,30.03003003,120245,,,,,,,,,,,,,,,,,Smaller,Greater,,-0.327354601,-0.526485171,1,0,0,LeftButton,"[""LeftButton""]",,,,,,,1,2.7133,space,4,10.0803,,,,,,,,,,,,1,both_wrong.png,2,RandomDot7.png,No answer,21,,,3.5134,,0,2,2,2,1
