chooserow,ParID,pre_instru_resp_2.keys,pre_instru_resp_2.rt,pre_instru_resp_3.keys,pre_instru_resp_3.rt,pre_instru_resp_9.keys,pre_instru_resp_9.rt,pre_instru_resp_8.keys,pre_instru_resp_8.rt,pre_instru_resp_4.keys,pre_instru_resp_4.rt,pre_instru_resp_5.keys,pre_instru_resp_5.rt,pre_instru_resp_6.keys,pre_instru_resp_6.rt,key_resp_3.keys,key_resp_3.rt,key_resp_4.keys,key_resp_4.rt,key_resp_5.keys,key_resp_5.rt,key_resp_6.keys,key_resp_6.rt,key_resp_7.keys,key_resp_7.rt,trials_2.thisRepN,trials_2.thisTrialN,trials_2.thisN,trials_2.thisIndex,trials_2.ran,participant,session,date,expName,psychopyVersion,OS,frameRate,SONAid,pre_instru_resp.keys,pre_instru_resp.rt,clicked,judge_2.x,judge_2.y,judge_2.leftButton,judge_2.midButton,judge_2.rightButton,judge_2.clicked_name,trials.thisRepN,trials.thisTrialN,trials.thisN,trials.thisIndex,trials.ran,prac_answer,prac_dot_sti,dotlefttext,dotrighttext,prac_acc,judge.x,judge.y,judge.leftButton,judge.midButton,judge.rightButton,judge.clicked_name,clicked_guilt,slider_guilt.response,slider_guilt.rt,key_guilt.keys,key_guilt.rt,share_slider.response,share_slider.rt,key_share.keys,slider_apology.response,slider_apology.rt,key_apology.keys,slider_hide.response,slider_hide.rt,slider_forgiveness.response,slider_forgiveness.rt,key_forgiveness.keys,slider_mad.response,slider_mad.rt,trialseq.thisRepN,trialseq.thisTrialN,trialseq.thisN,trialseq.thisIndex,trialseq.ran,type_trial,stipic,DV,picture,answer,number,key_apology.rt,incompleteTrials,key_forgiveness.rt,key_share.rt,trials_redo.thisRepN,trials_redo.thisTrialN,trials_redo.thisN,trials_redo.thisIndex,trials_redo.ran
"[154,83,170,187,74,179,41,141,105,58,132,31,113,149,196,90,55,140,121,103,77,89,21,60,127,56,131,68,158,174,108,11,198,66,88,162,180,185,146,111,161,96]",R_3WksQ064xj6JYYN,space,1.0897,space,5.0774,space,16.6916,space,26.9004,space,36.2252,space,11.5973,space,5.4338,3,5.8423,1,6.3039,3,6.6742,2,6.9037,2,2.3834,0,0,0,0,1,R_3WksQ064xj6JYYN,1,2024-05-05_13h31.13.231,interaction task,2021.2.3,Win32,59.88023952,120834,,,,,,,,,,,,,,,,,,,,,,,,,,,,,,,,,,,,,,,,,,,,,,,,,,,,,,,,,,,,,,,
,,,,,,,,,,,,,,,,,,,,,,,,,,,,,,,R_3WksQ064xj6JYYN,1,2024-05-05_13h31.13.231,interaction task,2021.2.3,Win32,59.88023952,120834,space,3.9638,"[""RightButton_2""]",0.3,-0.338888889,1,0,0,RightButton_2,0,0,0,1,1,LeftButton_2,11dot1.png,Greater,Smaller,,,,,,,,,,,,,,,,,,,,,,,,,,,,,,,,,,,,,,,,,,,,,
,,,,,,,,,,,,,,,,,,,,,,,,,,,,,,,R_3WksQ064xj6JYYN,1,2024-05-05_13h31.13.231,interaction task,2021.2.3,Win32,59.88023952,120834,,,"[""RightButton_2""]",0.334375,-0.294444444,1,0,0,RightButton_2,0,1,1,0,1,LeftButton_2,9dot2.png,Smaller,Greater,,,,,,,,,,,,,,,,,,,,,,,,,,,,,,,,,,,,,,,,,,,,,
,,,,,,,,,,,,,,,,,,,,,,,,,,,,,,,R_3WksQ064xj6JYYN,1,2024-05-05_13h31.13.231,interaction task,2021.2.3,Win32,59.88023952,120834,,,"[""RightButton_2""]",0.302083397,-0.322222222,1,0,0,RightButton_2,0,2,2,2,1,LeftButton_2,11dot1.png,Greater,Smaller,,,,,,,,,,,,,,,,,,,,,,,,,,,,,,,,,,,,,,,,,,,,,
,,,,,,,,,,,,,,,,,,,,,,,,,,,,,,,R_3WksQ064xj6JYYN,1,2024-05-05_13h31.13.231,interaction task,2021.2.3,Win32,59.88023952,120834,,,,,,,,,,,,,,,,,Smaller,Greater,0,-0.275,-0.488888889,1,0,0,LeftButton,"[""LeftButton""]",40,6.5775,space,1.0177,,,,,,,,,,,,,,0,0,0,0,1,3,only_sub_wrong.png,0,RandomDot25.png,No answer,21,,,,,,,,,
,,,,,,,,,,,,,,,,,,,,,,,,,,,,,,,R_3WksQ064xj6JYYN,1,2024-05-05_13h31.13.231,interaction task,2021.2.3,Win32,59.88023952,120834,,,,,,,,,,,,,,,,,Smaller,Greater,,-0.327083302,-0.498148261,1,0,0,LeftButton,"[""LeftButton""]",,,,,,,,70,7.6183,space,20,11.1209,,,,,,0,1,1,1,1,1,both_wrong.png,2,RandomDot8.png,No answer,20,0.8697,,,,,,,,
,,,,,,,,,,,,,,,,,,,,,,,,,,,,,,,R_3WksQ064xj6JYYN,1,2024-05-05_13h31.13.231,interaction task,2021.2.3,Win32,59.88023952,120834,,,,,,,,,,,,,,,,,Greater,Smaller,,-0.313541651,-0.483333333,1,0,0,LeftButton,"[""LeftButton""]",,,,,,,,88,6.4538,space,21,9.3588,,,,,,0,2,2,2,1,3,only_sub_wrong.png,2,RandomDot39.png,No answer,20,0.384,,,,,,,,
,,,,,,,,,,,,,,,,,,,,,,,,,,,,,,,R_3WksQ064xj6JYYN,1,2024-05-05_13h31.13.231,interaction task,2021.2.3,Win32,59.88023952,120834,,,,,,,,,,,,,,,,,Smaller,Greater,,-0.266666651,-0.501851908,0,0,0,,[],,,,,,,,,,,,,,,,,,0,3,3,3,1,3,only_sub_wrong.png,3,RandomDot18.png,No answer,21,,187,,,,,,,
,,,,,,,,,,,,,,,,,,,,,,,,,,,,,,,R_3WksQ064xj6JYYN,1,2024-05-05_13h31.13.231,interaction task,2021.2.3,Win32,59.88023952,120834,,,,,,,,,,,,,,,,,Greater,Smaller,,0.214583397,-0.5,1,0,0,RightButton,"[""RightButton""]",,,,,,,,61,12.4244,space,13,15.9235,,,,,,0,4,4,4,1,1,both_wrong.png,2,RandomDot16.png,No answer,20,8.4937,,,,,,,,
,,,,,,,,,,,,,,,,,,,,,,,,,,,,,,,R_3WksQ064xj6JYYN,1,2024-05-05_13h31.13.231,interaction task,2021.2.3,Win32,59.88023952,120834,,,,,,,,,,,,,,,,,Smaller,Greater,,-0.271875,-0.496296353,1,0,0,LeftButton,"[""LeftButton""]",,,,,,,,93,3.1372,space,34,7.2587,,,,,,0,5,5,5,1,3,only_sub_wrong.png,2,RandomDot15.png,No answer,20,2.6254,,,,,,,,
,,,,,,,,,,,,,,,,,,,,,,,,,,,,,,,R_3WksQ064xj6JYYN,1,2024-05-05_13h31.13.231,interaction task,2021.2.3,Win32,59.88023952,120834,,,,,,,,,,,,,,,,,Greater,Smaller,,-0.245833302,-0.524074131,1,0,0,LeftButton,"[""LeftButton""]",,,,,,,,,,,,,,,,,,0,6,6,6,1,0,both_right.png,3,RandomDot30.png,No answer,19,,,,,,,,,
,,,,,,,,,,,,,,,,,,,,,,,,,,,,,,,R_3WksQ064xj6JYYN,1,2024-05-05_13h31.13.231,interaction task,2021.2.3,Win32,59.88023952,120834,,,,,,,,,,,,,,,,,Smaller,Greater,,-0.232291651,-0.524074131,1,0,0,LeftButton,"[""LeftButton""]",,,,,,,,,,,,,85.87963605,8.9313,space,29.90320186,14.3107,0,7,7,7,1,2,only_sub_right.png,3,RandomDot7.png,No answer,20,,,3.3444,,,,,,
,,,,,,,,,,,,,,,,,,,,,,,,,,,,,,,R_3WksQ064xj6JYYN,1,2024-05-05_13h31.13.231,interaction task,2021.2.3,Win32,59.88023952,120834,,,,,,,,,,,,,,,,,Smaller,Greater,,0.31875,-0.514814928,1,0,0,RightButton,"[""RightButton""]",9,3.3265,space,2.3213,,,,,,,,,,,,,,0,8,8,8,1,2,only_sub_right.png,0,RandomDot17.png,No answer,20,,,,,,,,,
,,,,,,,,,,,,,,,,,,,,,,,,,,,,,,,R_3WksQ064xj6JYYN,1,2024-05-05_13h31.13.231,interaction task,2021.2.3,Win32,59.88023952,120834,,,,,,,,,,,,,,,,,Smaller,Greater,,0.294791698,-0.533333333,1,0,0,RightButton,"[""RightButton""]",50,2.8,space,0.4285,,,,,,,,,,,,,,0,9,9,9,1,1,both_wrong.png,0,RandomDot34.png,No answer,19,,,,,,,,,
,,,,,,,,,,,,,,,,,,,,,,,,,,,,,,,R_3WksQ064xj6JYYN,1,2024-05-05_13h31.13.231,interaction task,2021.2.3,Win32,59.88023952,120834,,,,,,,,,,,,,,,,,Greater,Smaller,,0.325,-0.474074131,1,0,0,RightButton,"[""RightButton""]",,,,,,,,,,,,,74.20034312,10.7684,space,33.79630272,13.3778,0,10,10,10,1,2,only_sub_right.png,3,RandomDot20.png,No answer,21,,,0.4032,,,,,,
,,,,,,,,,,,,,,,,,,,,,,,,,,,,,,,R_3WksQ064xj6JYYN,1,2024-05-05_13h31.13.231,interaction task,2021.2.3,Win32,59.88023952,120834,,,,,,,,,,,,,,,,,Smaller,Greater,,-0.302083302,-0.483333333,1,0,0,LeftButton,"[""LeftButton""]",,,,,,,,,,,,,,,,,,0,11,11,11,1,0,both_right.png,2,RandomDot2.png,No answer,20,,,,,,,,,
,,,,,,,,,,,,,,,,,,,,,,,,,,,,,,,R_3WksQ064xj6JYYN,1,2024-05-05_13h31.13.231,interaction task,2021.2.3,Win32,59.88023952,120834,,,,,,,,,,,,,,,,,Greater,Smaller,,0.305208397,-0.514814928,1,0,0,RightButton,"[""RightButton""]",,,,,3.635416985,14.4428,space,,,,,,,,,,,0,12,12,12,1,2,only_sub_right.png,1,RandomDot3.png,No answer,20,,,,3.6824,,,,,
,,,,,,,,,,,,,,,,,,,,,,,,,,,,,,,R_3WksQ064xj6JYYN,1,2024-05-05_13h31.13.231,interaction task,2021.2.3,Win32,59.88023952,120834,,,,,,,,,,,,,,,,,Greater,Smaller,,0.269791698,-0.498148261,1,0,0,RightButton,"[""RightButton""]",85,3.1792,space,0.4392,,,,,,,,,,,,,,0,13,13,13,1,3,only_sub_wrong.png,0,RandomDot24.png,No answer,20,,,,,,,,,
,,,,,,,,,,,,,,,,,,,,,,,,,,,,,,,R_3WksQ064xj6JYYN,1,2024-05-05_13h31.13.231,interaction task,2021.2.3,Win32,59.88023952,120834,,,,,,,,,,,,,,,,,Smaller,Greater,,0.277083397,-0.5,1,0,0,RightButton,"[""RightButton""]",,,,,,,,,,,,,,,,,,0,14,14,14,1,4,both_right.png,10,RandomDot41.png,RightButton,5,,,,,,,,,
,,,,,,,,,,,,,,,,,,,,,,,,,,,,,,,R_3WksQ064xj6JYYN,1,2024-05-05_13h31.13.231,interaction task,2021.2.3,Win32,59.88023952,120834,,,,,,,,,,,,,,,,,Smaller,Greater,,0.26875,-0.518518575,1,0,0,RightButton,"[""RightButton""]",,,,,,,,,,,,,90.1936059,5.6692,space,15.48821709,8.8528,0,15,15,15,1,1,both_wrong.png,3,RandomDot29.png,No answer,19,,,1.1805,,,,,,
,,,,,,,,,,,,,,,,,,,,,,,,,,,,,,,R_3WksQ064xj6JYYN,1,2024-05-05_13h31.13.231,interaction task,2021.2.3,Win32,59.88023952,120834,,,,,,,,,,,,,,,,,Smaller,Greater,,0.284375,-0.483333333,1,0,0,RightButton,"[""RightButton""]",55,3.3076,space,0.6778,,,,,,,,,,,,,,0,16,16,16,1,1,both_wrong.png,0,RandomDot28.png,No answer,19,,,,,,,,,
,,,,,,,,,,,,,,,,,,,,,,,,,,,,,,,R_3WksQ064xj6JYYN,1,2024-05-05_13h31.13.231,interaction task,2021.2.3,Win32,59.88023952,120834,,,,,,,,,,,,,,,,,Smaller,Greater,,0.265625,-0.501851908,1,0,0,RightButton,"[""RightButton""]",,,,,,,,,,,,,87.14226231,5.0646,space,20.43350489,7.1111,0,17,17,17,1,2,only_sub_right.png,3,RandomDot8.png,No answer,19,,,0.3542,,,,,,
,,,,,,,,,,,,,,,,,,,,,,,,,,,,,,,R_3WksQ064xj6JYYN,1,2024-05-05_13h31.13.231,interaction task,2021.2.3,Win32,59.88023952,120834,,,,,,,,,,,,,,,,,Greater,Smaller,,0.285416698,-0.468518575,1,0,0,RightButton,"[""RightButton""]",,,,,,,,29,17.9122,space,8,9.3232,,,,,,0,18,18,18,1,2,only_sub_right.png,2,RandomDot18.png,No answer,19,9.1065,,,,,,,,
,,,,,,,,,,,,,,,,,,,,,,,,,,,,,,,R_3WksQ064xj6JYYN,1,2024-05-05_13h31.13.231,interaction task,2021.2.3,Win32,59.88023952,120834,,,,,,,,,,,,,,,,,Smaller,Greater,,-0.226041651,-0.485185242,1,0,0,LeftButton,"[""LeftButton""]",14,2.3019,space,0.842,,,,,,,,,,,,,,0,19,19,19,1,2,only_sub_right.png,0,RandomDot21.png,No answer,21,,,,,,,,,
,,,,,,,,,,,,,,,,,,,,,,,,,,,,,,,R_3WksQ064xj6JYYN,1,2024-05-05_13h31.13.231,interaction task,2021.2.3,Win32,59.88023952,120834,,,,,,,,,,,,,,,,,Greater,Smaller,,0.267708397,-0.477777778,1,0,0,RightButton,"[""RightButton""]",,,,,,,,70,8.2161,space,15,11.0537,,,,,,0,20,20,20,1,1,both_wrong.png,2,RandomDot13.png,No answer,21,0.3522,,,,,,,,
,,,,,,,,,,,,,,,,,,,,,,,,,,,,,,,R_3WksQ064xj6JYYN,1,2024-05-05_13h31.13.231,interaction task,2021.2.3,Win32,59.88023952,120834,,,,,,,,,,,,,,,,,Greater,Smaller,,0.321875,-0.514814928,1,0,0,RightButton,"[""RightButton""]",,,,,,,,,,,,,85.77441399,5.8103,space,15.69865641,11.8229,0,21,21,21,1,1,both_wrong.png,3,RandomDot6.png,No answer,21,,,3.4893,,,,,,
,,,,,,,,,,,,,,,,,,,,,,,,,,,,,,,R_3WksQ064xj6JYYN,1,2024-05-05_13h31.13.231,interaction task,2021.2.3,Win32,59.88023952,120834,,,,,,,,,,,,,,,,,Smaller,Greater,,-0.292708302,-0.485185242,1,0,0,LeftButton,"[""LeftButton""]",,,,,,,,,,,,,,,,,,0,22,22,22,1,0,both_right.png,1,RandomDot8.png,No answer,21,,,,,,,,,
,,,,,,,,,,,,,,,,,,,,,,,,,,,,,,,R_3WksQ064xj6JYYN,1,2024-05-05_13h31.13.231,interaction task,2021.2.3,Win32,59.88023952,120834,,,,,,,,,,,,,,,,,Greater,Smaller,,-0.307291651,-0.462963019,1,0,0,LeftButton,"[""LeftButton""]",,,,,2.979166985,7.2252,space,,,,,,,,,,,0,23,23,23,1,1,both_wrong.png,1,RandomDot13.png,No answer,19,,,,0.6536,,,,,
,,,,,,,,,,,,,,,,,,,,,,,,,,,,,,,R_3WksQ064xj6JYYN,1,2024-05-05_13h31.13.231,interaction task,2021.2.3,Win32,59.88023952,120834,,,,,,,,,,,,,,,,,Smaller,Greater,,0.333333397,-0.488888889,1,0,0,RightButton,"[""RightButton""]",,,,,,,,47,10.0862,space,7,6.2019,,,,,,0,24,24,24,1,2,only_sub_right.png,2,RandomDot22.png,No answer,19,4.3689,,,,,,,,
,,,,,,,,,,,,,,,,,,,,,,,,,,,,,,,R_3WksQ064xj6JYYN,1,2024-05-05_13h31.13.231,interaction task,2021.2.3,Win32,59.88023952,120834,,,,,,,,,,,,,,,,,Smaller,Greater,,-0.296875,-0.494444444,1,0,0,LeftButton,"[""LeftButton""]",40,5.8932,space,0.7037,,,,,,,,,,,,,,0,25,25,25,1,1,both_wrong.png,0,RandomDot39.png,No answer,21,,,,,,,,,
,,,,,,,,,,,,,,,,,,,,,,,,,,,,,,,R_3WksQ064xj6JYYN,1,2024-05-05_13h31.13.231,interaction task,2021.2.3,Win32,59.88023952,120834,,,,,,,,,,,,,,,,,Smaller,Greater,,0.2625,-0.503703817,1,0,0,RightButton,"[""RightButton""]",,,,,,,,35,5.7053,space,5,7.5101,,,,,,0,26,26,26,1,2,only_sub_right.png,2,RandomDot5.png,No answer,21,2.3171,,,,,,,,
,,,,,,,,,,,,,,,,,,,,,,,,,,,,,,,R_3WksQ064xj6JYYN,1,2024-05-05_13h31.13.231,interaction task,2021.2.3,Win32,59.88023952,120834,,,,,,,,,,,,,,,,,Smaller,Greater,,-0.323958302,-0.488888889,1,0,0,LeftButton,"[""LeftButton""]",,,,,2.984375,5.8165,space,,,,,,,,,,,0,27,27,27,1,1,both_wrong.png,1,RandomDot8.png,No answer,21,,,,1.9487,,,,,
,,,,,,,,,,,,,,,,,,,,,,,,,,,,,,,R_3WksQ064xj6JYYN,1,2024-05-05_13h31.13.231,interaction task,2021.2.3,Win32,59.88023952,120834,,,,,,,,,,,,,,,,,Greater,Smaller,,-0.225,-0.488888889,1,0,0,LeftButton,"[""LeftButton""]",,,,,4.994791985,9.1888,space,,,,,,,,,,,0,28,28,28,1,3,only_sub_wrong.png,1,RandomDot1.png,No answer,19,,,,7.3965,,,,,
,,,,,,,,,,,,,,,,,,,,,,,,,,,,,,,R_3WksQ064xj6JYYN,1,2024-05-05_13h31.13.231,interaction task,2021.2.3,Win32,59.88023952,120834,,,,,,,,,,,,,,,,,Smaller,Greater,,-0.258333302,-0.488888889,1,0,0,LeftButton,"[""LeftButton""]",,,,,,,,90,3.4347,space,10,6.0319,,,,,,0,29,29,29,1,3,only_sub_wrong.png,2,RandomDot15.png,No answer,21,0.6789,,,,,,,,
,,,,,,,,,,,,,,,,,,,,,,,,,,,,,,,R_3WksQ064xj6JYYN,1,2024-05-05_13h31.13.231,interaction task,2021.2.3,Win32,59.88023952,120834,,,,,,,,,,,,,,,,,Greater,Smaller,,-0.284375,-0.5,1,0,0,LeftButton,"[""LeftButton""]",,,,,2.989583492,6.2411,space,,,,,,,,,,,0,30,30,30,1,2,only_sub_right.png,1,RandomDot3.png,No answer,20,,,,1.9858,,,,,
,,,,,,,,,,,,,,,,,,,,,,,,,,,,,,,R_3WksQ064xj6JYYN,1,2024-05-05_13h31.13.231,interaction task,2021.2.3,Win32,59.88023952,120834,,,,,,,,,,,,,,,,,Smaller,Greater,,-0.291666651,-0.512963019,1,0,0,LeftButton,"[""LeftButton""]",,,,,,,,,,,,,,,,,,0,31,31,31,1,0,both_right.png,0,RandomDot38.png,No answer,21,,,,,,,,,
,,,,,,,,,,,,,,,,,,,,,,,,,,,,,,,R_3WksQ064xj6JYYN,1,2024-05-05_13h31.13.231,interaction task,2021.2.3,Win32,59.88023952,120834,,,,,,,,,,,,,,,,,Greater,Smaller,,0.302083397,-0.488888889,1,0,0,RightButton,"[""RightButton""]",,,,,,,,,,,,,,,,,,0,32,32,32,1,5,both_right.png,10,RandomDot42.png,RightButton,20,,,,,,,,,
,,,,,,,,,,,,,,,,,,,,,,,,,,,,,,,R_3WksQ064xj6JYYN,1,2024-05-05_13h31.13.231,interaction task,2021.2.3,Win32,59.88023952,120834,,,,,,,,,,,,,,,,,Smaller,Greater,,0.302083397,-0.488888889,1,0,0,RightButton,"[""RightButton""]",,,,,3.489583492,6.696,space,,,,,,,,,,,0,33,33,33,1,1,both_wrong.png,1,RandomDot10.png,No answer,19,,,,1.0978,,,,,
,,,,,,,,,,,,,,,,,,,,,,,,,,,,,,,R_3WksQ064xj6JYYN,1,2024-05-05_13h31.13.231,interaction task,2021.2.3,Win32,59.88023952,120834,,,,,,,,,,,,,,,,,Greater,Smaller,,-0.303125,-0.507407464,1,0,0,LeftButton,"[""LeftButton""]",,,,,,,,,,,,,84.09090909,7.6983,space,14.64646465,9.4981,0,34,34,34,1,1,both_wrong.png,3,RandomDot30.png,No answer,20,,,0.4455,,,,,,
,,,,,,,,,,,,,,,,,,,,,,,,,,,,,,,R_3WksQ064xj6JYYN,1,2024-05-05_13h31.13.231,interaction task,2021.2.3,Win32,59.88023952,120834,,,,,,,,,,,,,,,,,Smaller,Greater,,-0.25625,-0.522222222,1,0,0,LeftButton,"[""LeftButton""]",,,,,4.979166985,2.3274,space,,,,,,,,,,,0,35,35,35,1,3,only_sub_wrong.png,1,RandomDot15.png,No answer,21,,,,0.3836,,,,,
,,,,,,,,,,,,,,,,,,,,,,,,,,,,,,,R_3WksQ064xj6JYYN,1,2024-05-05_13h31.13.231,interaction task,2021.2.3,Win32,59.88023952,120834,,,,,,,,,,,,,,,,,Greater,Smaller,,-0.311458302,-0.494444444,1,0,0,LeftButton,"[""LeftButton""]",,,,,,,,,,,,,74.62121212,4.5056,space,39.05724227,12.0741,0,36,36,36,1,3,only_sub_wrong.png,3,RandomDot20.png,No answer,19,,,6.4671,,,,,,
,,,,,,,,,,,,,,,,,,,,,,,,,,,,,,,R_3WksQ064xj6JYYN,1,2024-05-05_13h31.13.231,interaction task,2021.2.3,Win32,59.88023952,120834,,,,,,,,,,,,,,,,,Greater,Smaller,,0.275,-0.494444444,1,0,0,RightButton,"[""RightButton""]",,,,,,,,,,,,,75.14731282,5.5222,space,29.7979798,8.7964,0,37,37,37,1,3,only_sub_wrong.png,3,RandomDot34.png,No answer,20,,,0.3083,,,,,,
,,,,,,,,,,,,,,,,,,,,,,,,,,,,,,,R_3WksQ064xj6JYYN,1,2024-05-05_13h31.13.231,interaction task,2021.2.3,Win32,59.88023952,120834,,,,,,,,,,,,,,,,,Greater,Smaller,,0.31875,-0.509259372,1,0,0,RightButton,"[""RightButton""]",95,2.2131,space,0.2688,,,,,,,,,,,,,,0,38,38,38,1,3,only_sub_wrong.png,0,RandomDot38.png,No answer,21,,,,,,,,,
,,,,,,,,,,,,,,,,,,,,,,,,,,,,,,,R_3WksQ064xj6JYYN,1,2024-05-05_13h31.13.231,interaction task,2021.2.3,Win32,59.88023952,120834,,,,,,,,,,,,,,,,,Greater,Smaller,,-0.283333302,-0.540740797,1,0,0,LeftButton,"[""LeftButton""]",,,,,2.447916985,3.2145,space,,,,,,,,,,,0,39,39,39,1,2,only_sub_right.png,1,RandomDot4.png,No answer,19,,,,1.3363,,,,,
,,,,,,,,,,,,,,,,,,,,,,,,,,,,,,,R_3WksQ064xj6JYYN,1,2024-05-05_13h31.13.231,interaction task,2021.2.3,Win32,59.88023952,120834,,,,,,,,,,,,,,,,,Greater,Smaller,,-0.264583302,-0.488888889,1,0,0,LeftButton,"[""LeftButton""]",,,,,4.973958492,4.9377,space,,,,,,,,,,,0,40,40,40,1,3,only_sub_wrong.png,1,RandomDot36.png,No answer,19,,,,0.3511,,,,,
,,,,,,,,,,,,,,,,,,,,,,,,,,,,,,,R_3WksQ064xj6JYYN,1,2024-05-05_13h31.13.231,interaction task,2021.2.3,Win32,59.88023952,120834,,,,,,,,,,,,,,,,,Greater,Smaller,,-0.2875,-0.470370483,1,0,0,LeftButton,"[""LeftButton""]",20,3.5287,space,0.8211,,,,,,,,,,,,,,0,41,41,41,1,2,only_sub_right.png,0,RandomDot26.png,No answer,19,,,,,,,,,
,,,,,,,,,,,,,,,,,,,,,,,,,,,,,,,R_3WksQ064xj6JYYN,1,2024-05-05_13h31.13.231,interaction task,2021.2.3,Win32,59.88023952,120834,,,,,,,,,,,,,,,,,Smaller,Greater,,-0.25,-0.472222222,1,0,0,LeftButton,"[""LeftButton""]",,,,,,,,,,,,,69.88636364,6.341,space,35.58502005,8.9997,,,,,,3,only_sub_wrong.png,3,RandomDot18.png,No answer,21,,,0.4725,,0,0,0,0,1
