chooserow,ParID,pre_instru_resp_2.keys,pre_instru_resp_2.rt,pre_instru_resp_3.keys,pre_instru_resp_3.rt,pre_instru_resp_9.keys,pre_instru_resp_9.rt,pre_instru_resp_8.keys,pre_instru_resp_8.rt,pre_instru_resp_4.keys,pre_instru_resp_4.rt,pre_instru_resp_5.keys,pre_instru_resp_5.rt,pre_instru_resp_6.keys,pre_instru_resp_6.rt,key_resp_3.keys,key_resp_3.rt,key_resp_4.keys,key_resp_4.rt,key_resp_5.keys,key_resp_5.rt,key_resp_6.keys,key_resp_6.rt,key_resp_7.keys,key_resp_7.rt,trials_2.thisRepN,trials_2.thisTrialN,trials_2.thisN,trials_2.thisIndex,trials_2.ran,participant,session,date,expName,psychopyVersion,OS,frameRate,SONAid,pre_instru_resp.keys,pre_instru_resp.rt,clicked,judge_2.x,judge_2.y,judge_2.leftButton,judge_2.midButton,judge_2.rightButton,judge_2.clicked_name,trials.thisRepN,trials.thisTrialN,trials.thisN,trials.thisIndex,trials.ran,prac_answer,prac_dot_sti,dotlefttext,dotrighttext,prac_acc,judge.x,judge.y,judge.leftButton,judge.midButton,judge.rightButton,judge.clicked_name,clicked_guilt,slider_guilt.response,slider_guilt.rt,key_guilt.keys,share_slider.response,share_slider.rt,key_share.keys,slider_apology.response,slider_apology.rt,key_apology.keys,slider_hide.response,slider_hide.rt,slider_forgiveness.response,slider_forgiveness.rt,key_forgiveness.keys,slider_mad.response,slider_mad.rt,trialseq.thisRepN,trialseq.thisTrialN,trialseq.thisN,trialseq.thisIndex,trialseq.ran,type_trial,stipic,DV,picture,answer,number,key_forgiveness.rt,key_guilt.rt,key_apology.rt,incompleteTrials,key_share.rt,trials_redo.thisRepN,trials_redo.thisTrialN,trials_redo.thisN,trials_redo.thisIndex,trials_redo.ran
"[199,196,187,12,181,48,121,179,105,58,191,138,150,116,172,167,178,166,68,130,92,117,84,104,120,40,163,33,62,149,151,135,112,6,76,98,136,69,53,81,83,94]",R_3YovKuFHnYI49gt,space,1.814,space,3.542,space,10.533,space,24.878,space,25.732,space,12.189,space,9.148,2,13.208,1,7.584,3,13.596,2,9.523,1,12.676,0,0,0,0,1,R_3YovKuFHnYI49gt,1,2024-05-01_12h56.27.083,interaction task,2021.2.3,MacIntel,58.82352941,120331,,,,,,,,,,,,,,,,,,,,,,,,,,,,,,,,,,,,,,,,,,,,,,,,,,,,,,,,,,,,,,,
,,,,space,1.164,space,0.479,space,0.352,space,0.63,space,0.706,space,0.857,3,1.96,1,2.894,3,2.913,1,3.725,3,1.884,1,0,1,0,1,R_3YovKuFHnYI49gt,1,2024-05-01_12h56.27.083,interaction task,2021.2.3,MacIntel,58.82352941,120331,,,,,,,,,,,,,,,,,,,,,,,,,,,,,,,,,,,,,,,,,,,,,,,,,,,,,,,,,,,,,,,
,,,,space,1.714,space,0.55,space,0.393,space,0.516,space,1.051,space,0.644,3,5.134,1,1.852,3,1.917,2,6.884,1,1.849,2,0,2,0,1,R_3YovKuFHnYI49gt,1,2024-05-01_12h56.27.083,interaction task,2021.2.3,MacIntel,58.82352941,120331,,,,,,,,,,,,,,,,,,,,,,,,,,,,,,,,,,,,,,,,,,,,,,,,,,,,,,,,,,,,,,,
,,,,space,0.76,space,0.319,space,0.303,space,0.247,space,5.083,space,0.468,3,21.82,1,2.875,3,2.628,2,3.267,2,0.916,3,0,3,0,1,R_3YovKuFHnYI49gt,1,2024-05-01_12h56.27.083,interaction task,2021.2.3,MacIntel,58.82352941,120331,,,,,,,,,,,,,,,,,,,,,,,,,,,,,,,,,,,,,,,,,,,,,,,,,,,,,,,,,,,,,,,
,,,,,,,,,,,,,,,,,,,,,,,,,,,,,,,R_3YovKuFHnYI49gt,1,2024-05-01_12h56.27.083,interaction task,2021.2.3,MacIntel,58.82352941,120331,space,1.344,"[""RightButton_2""]",0.245833333,-0.333333333,1,0,0,RightButton_2,0,0,0,0,1,RightButton_2,9dot1.png,Greater,Smaller,,,,,,,,,,,,,,,,,,,,,,,,,,,,,,,,,,,,,,,,,,,,,
,,,,,,,,,,,,,,,,,,,,,,,,,,,,,,,R_3YovKuFHnYI49gt,1,2024-05-01_12h56.27.083,interaction task,2021.2.3,MacIntel,58.82352941,120331,,,"[""LeftButton_2""]",-0.266666667,-0.328888889,1,0,0,LeftButton_2,0,1,1,2,1,LeftButton_2,9dot2.png,Smaller,Greater,,,,,,,,,,,,,,,,,,,,,,,,,,,,,,,,,,,,,,,,,,,,,
,,,,,,,,,,,,,,,,,,,,,,,,,,,,,,,R_3YovKuFHnYI49gt,1,2024-05-01_12h56.27.083,interaction task,2021.2.3,MacIntel,58.82352941,120331,,,"[""RightButton_2""]",0.2625,-0.326666667,1,0,0,RightButton_2,0,2,2,1,1,RightButton_2,11dot1.png,Smaller,Greater,,,,,,,,,,,,,,,,,,,,,,,,,,,,,,,,,,,,,,,,,,,,,
,,,,,,,,,,,,,,,,,,,,,,,,,,,,,,,R_3YovKuFHnYI49gt,1,2024-05-01_12h56.27.083,interaction task,2021.2.3,MacIntel,58.82352941,120331,,,,,,,,,,,,,,,,,Greater,Smaller,0.6,0.230555556,-0.5,1,0,0,RightButton,"[""RightButton""]",,,,,,,,,,,,,,,,,0,0,0,0,1,5,both_right.png,10,RandomDot42.png,RightButton,19,,,,,,,,,,
,,,,,,,,,,,,,,,,,,,,,,,,,,,,,,,R_3YovKuFHnYI49gt,1,2024-05-01_12h56.27.083,interaction task,2021.2.3,MacIntel,58.82352941,120331,,,,,,,,,,,,,,,,,Smaller,Greater,,0.279166667,-0.544444444,1,0,0,RightButton,"[""RightButton""]",,,,,,,,,,,,,,,,,0,1,1,1,1,4,both_right.png,10,RandomDot41.png,RightButton,5,,,,,,,,,,
,,,,,,,,,,,,,,,,,,,,,,,,,,,,,,,R_3YovKuFHnYI49gt,1,2024-05-01_12h56.27.083,interaction task,2021.2.3,MacIntel,58.82352941,120331,,,,,,,,,,,,,,,,,Smaller,Greater,,0.275,-0.477777778,1,0,0,RightButton,"[""RightButton""]",,,,,,,,,,,,99.10213244,8.539,space,9.87654321,13.047,0,2,2,2,1,3,only_sub_wrong.png,3,RandomDot18.png,No answer,21,1.218,,,,,,,,,
,,,,,,,,,,,,,,,,,,,,,,,,,,,,,,,R_3YovKuFHnYI49gt,1,2024-05-01_12h56.27.083,interaction task,2021.2.3,MacIntel,58.82352941,120331,,,,,,,,,,,,,,,,,Greater,Smaller,,-0.318055556,-0.484444444,1,0,0,LeftButton,"[""LeftButton""]",,,,,,,,,,,,,,,,,0,3,3,3,1,0,both_right.png,1,RandomDot30.png,No answer,20,,,,,,,,,,
,,,,,,,,,,,,,,,,,,,,,,,,,,,,,,,R_3YovKuFHnYI49gt,1,2024-05-01_12h56.27.083,interaction task,2021.2.3,MacIntel,58.82352941,120331,,,,,,,,,,,,,,,,,Greater,Smaller,,-0.326388889,-0.533333333,1,0,0,LeftButton,"[""LeftButton""]",,,,,,,,,,,,97.41863075,2.32,space,20.11784512,4.319,0,4,4,4,1,3,only_sub_wrong.png,3,RandomDot3.png,No answer,19,1.318,,,,,,,,,
,,,,,,,,,,,,,,,,,,,,,,,,,,,,,,,R_3YovKuFHnYI49gt,1,2024-05-01_12h56.27.083,interaction task,2021.2.3,MacIntel,58.82352941,120331,,,,,,,,,,,,,,,,,Greater,Smaller,,-0.280555556,-0.511111111,1,0,0,LeftButton,"[""LeftButton""]",20,3.445,space,,,,,,,,,,,,,,0,5,5,5,1,1,both_wrong.png,0,RandomDot24.png,No answer,21,,0.73,,,,,,,,
,,,,,,,,,,,,,,,,,,,,,,,,,,,,,,,R_3YovKuFHnYI49gt,1,2024-05-01_12h56.27.083,interaction task,2021.2.3,MacIntel,58.82352941,120331,,,,,,,,,,,,,,,,,Greater,Smaller,,0.311111111,-0.5,1,0,0,RightButton,"[""RightButton""]",,,,,,,0,6.194,space,58,10.118,,,,,,0,6,6,6,1,2,only_sub_right.png,2,RandomDot18.png,No answer,19,,,1.303,,,,,,,
,,,,,,,,,,,,,,,,,,,,,,,,,,,,,,,R_3YovKuFHnYI49gt,1,2024-05-01_12h56.27.083,interaction task,2021.2.3,MacIntel,58.82352941,120331,,,,,,,,,,,,,,,,,Smaller,Greater,,-0.280555556,-0.504444444,1,0,0,LeftButton,"[""LeftButton""]",,,,,,,2,2.146,space,67,5.29,,,,,,0,7,7,7,1,3,only_sub_wrong.png,2,RandomDot15.png,No answer,20,,,1.35,,,,,,,
,,,,,,,,,,,,,,,,,,,,,,,,,,,,,,,R_3YovKuFHnYI49gt,1,2024-05-01_12h56.27.083,interaction task,2021.2.3,MacIntel,58.82352941,120331,,,,,,,,,,,,,,,,,Smaller,Greater,,0.298611111,-0.497777778,1,0,0,RightButton,"[""RightButton""]",0,2.595,space,,,,,,,,,,,,,,0,8,8,8,1,2,only_sub_right.png,0,RandomDot17.png,No answer,20,,0.87,,,,,,,,
,,,,,,,,,,,,,,,,,,,,,,,,,,,,,,,R_3YovKuFHnYI49gt,1,2024-05-01_12h56.27.083,interaction task,2021.2.3,MacIntel,58.82352941,120331,,,,,,,,,,,,,,,,,Smaller,Greater,,0.269444444,-0.493333333,1,0,0,RightButton,"[""RightButton""]",0,3.905,space,,,,,,,,,,,,,,0,9,9,9,1,1,both_wrong.png,0,RandomDot34.png,No answer,19,,0.919,,,,,,,,
,,,,,,,,,,,,,,,,,,,,,,,,,,,,,,,R_3YovKuFHnYI49gt,1,2024-05-01_12h56.27.083,interaction task,2021.2.3,MacIntel,58.82352941,120331,,,,,,,,,,,,,,,,,Smaller,Greater,,0.1,-0.297777778,0,0,0,,[],,,,,,,,,,,,,,,,,0,10,10,10,1,3,only_sub_wrong.png,3,RandomDot36.png,No answer,21,,,,191,,,,,,
,,,,,,,,,,,,,,,,,,,,,,,,,,,,,,,R_3YovKuFHnYI49gt,1,2024-05-01_12h56.27.083,interaction task,2021.2.3,MacIntel,58.82352941,120331,,,,,,,,,,,,,,,,,Smaller,Greater,,0.254166667,-0.533333333,1,0,0,RightButton,"[""RightButton""]",,,,,,,,,,,,93.06958474,7.494,space,1.459034792,9.811,0,11,11,11,1,2,only_sub_right.png,3,RandomDot25.png,No answer,21,0.469,,,,,,,,,
,,,,,,,,,,,,,,,,,,,,,,,,,,,,,,,R_3YovKuFHnYI49gt,1,2024-05-01_12h56.27.083,interaction task,2021.2.3,MacIntel,58.82352941,120331,,,,,,,,,,,,,,,,,Smaller,Greater,,-0.326388889,-0.528888889,1,0,0,LeftButton,"[""LeftButton""]",3,2.504,space,,,,,,,,,,,,,,0,12,12,12,1,3,only_sub_wrong.png,0,RandomDot16.png,No answer,21,,1.203,,,,,,,,
,,,,,,,,,,,,,,,,,,,,,,,,,,,,,,,R_3YovKuFHnYI49gt,1,2024-05-01_12h56.27.083,interaction task,2021.2.3,MacIntel,58.82352941,120331,,,,,,,,,,,,,,,,,Smaller,Greater,,-0.261111111,-0.513333333,1,0,0,LeftButton,"[""LeftButton""]",,,,0.013888889,11.965,space,,,,,,,,,,,0,13,13,13,1,2,only_sub_right.png,1,RandomDot25.png,No answer,19,,,,,1.311,,,,,
,,,,,,,,,,,,,,,,,,,,,,,,,,,,,,,R_3YovKuFHnYI49gt,1,2024-05-01_12h56.27.083,interaction task,2021.2.3,MacIntel,58.82352941,120331,,,,,,,,,,,,,,,,,Greater,Smaller,,0.248611111,-0.508888889,1,0,0,RightButton,"[""RightButton""]",,,,,,,1,3.08,space,86,5.108,,,,,,0,14,14,14,1,3,only_sub_wrong.png,2,RandomDot38.png,No answer,21,,,0.41,,,,,,,
,,,,,,,,,,,,,,,,,,,,,,,,,,,,,,,R_3YovKuFHnYI49gt,1,2024-05-01_12h56.27.083,interaction task,2021.2.3,MacIntel,58.82352941,120331,,,,,,,,,,,,,,,,,Smaller,Greater,,0.298611111,-0.544444444,1,0,0,RightButton,"[""RightButton""]",,,,0.069444444,5.676,space,,,,,,,,,,,0,15,15,15,1,3,only_sub_wrong.png,1,RandomDot22.png,No answer,20,,,,,1.03,,,,,
,,,,,,,,,,,,,,,,,,,,,,,,,,,,,,,R_3YovKuFHnYI49gt,1,2024-05-01_12h56.27.083,interaction task,2021.2.3,MacIntel,58.82352941,120331,,,,,,,,,,,,,,,,,Smaller,Greater,,-0.313888889,-0.544444444,1,0,0,LeftButton,"[""LeftButton""]",,,,,,,0,2.18,space,92,5.703,,,,,,0,16,16,16,1,3,only_sub_wrong.png,2,RandomDot22.png,No answer,19,,,2.035,,,,,,,
,,,,,,,,,,,,,,,,,,,,,,,,,,,,,,,R_3YovKuFHnYI49gt,1,2024-05-01_12h56.27.083,interaction task,2021.2.3,MacIntel,58.82352941,120331,,,,,,,,,,,,,,,,,Smaller,Greater,,-0.290277778,-0.502222222,1,0,0,LeftButton,"[""LeftButton""]",,,,0.020833333,3.972,space,,,,,,,,,,,0,17,17,17,1,3,only_sub_wrong.png,1,RandomDot15.png,No answer,20,,,,,0.84,,,,,
,,,,,,,,,,,,,,,,,,,,,,,,,,,,,,,R_3YovKuFHnYI49gt,1,2024-05-01_12h56.27.083,interaction task,2021.2.3,MacIntel,58.82352941,120331,,,,,,,,,,,,,,,,,Smaller,Greater,,-0.247222222,-0.522222222,1,0,0,LeftButton,"[""LeftButton""]",,,,0.090277778,7.112,space,,,,,,,,,,,0,18,18,18,1,1,both_wrong.png,1,RandomDot8.png,No answer,21,,,,,0.667,,,,,
,,,,,,,,,,,,,,,,,,,,,,,,,,,,,,,R_3YovKuFHnYI49gt,1,2024-05-01_12h56.27.083,interaction task,2021.2.3,MacIntel,58.82352941,120331,,,,,,,,,,,,,,,,,Smaller,Greater,,-0.305555556,-0.54,1,0,0,LeftButton,"[""LeftButton""]",,,,,,,1,4.266,space,91,5.894,,,,,,0,19,19,19,1,2,only_sub_right.png,2,RandomDot8.png,No answer,21,,,1.094,,,,,,,
,,,,,,,,,,,,,,,,,,,,,,,,,,,,,,,R_3YovKuFHnYI49gt,1,2024-05-01_12h56.27.083,interaction task,2021.2.3,MacIntel,58.82352941,120331,,,,,,,,,,,,,,,,,Smaller,Greater,,-0.256944444,-0.511111111,1,0,0,LeftButton,"[""LeftButton""]",,,,,,,,,,,,61.78451178,8.914,space,21.09988777,5.87,0,20,20,20,1,1,both_wrong.png,3,RandomDot7.png,No answer,21,2.317,,,,,,,,,
,,,,,,,,,,,,,,,,,,,,,,,,,,,,,,,R_3YovKuFHnYI49gt,1,2024-05-01_12h56.27.083,interaction task,2021.2.3,MacIntel,58.82352941,120331,,,,,,,,,,,,,,,,,Smaller,Greater,,-0.269444444,-0.506666667,1,0,0,LeftButton,"[""LeftButton""]",,,,0.020833333,2.137,space,,,,,,,,,,,0,21,21,21,1,2,only_sub_right.png,1,RandomDot27.png,No answer,21,,,,,2.078,,,,,
,,,,,,,,,,,,,,,,,,,,,,,,,,,,,,,R_3YovKuFHnYI49gt,1,2024-05-01_12h56.27.083,interaction task,2021.2.3,MacIntel,58.82352941,120331,,,,,,,,,,,,,,,,,Greater,Smaller,,-0.329166667,-0.495555556,1,0,0,LeftButton,"[""LeftButton""]",,,,,,,,,,,,69.64085297,11.241,space,1.599326599,7.383,0,22,22,22,1,1,both_wrong.png,3,RandomDot6.png,No answer,20,1.516,,,,,,,,,
,,,,,,,,,,,,,,,,,,,,,,,,,,,,,,,R_3YovKuFHnYI49gt,1,2024-05-01_12h56.27.083,interaction task,2021.2.3,MacIntel,58.82352941,120331,,,,,,,,,,,,,,,,,Smaller,Greater,,-0.238888889,-0.464444444,1,0,0,LeftButton,"[""LeftButton""]",0,2.122,space,,,,,,,,,,,,,,0,23,23,23,1,2,only_sub_right.png,0,RandomDot29.png,No answer,20,,0.936,,,,,,,,
,,,,,,,,,,,,,,,,,,,,,,,,,,,,,,,R_3YovKuFHnYI49gt,1,2024-05-01_12h56.27.083,interaction task,2021.2.3,MacIntel,58.82352941,120331,,,,,,,,,,,,,,,,,Greater,Smaller,,-0.302777778,-0.535555556,1,0,0,LeftButton,"[""LeftButton""]",,,,,,,0,4.513,space,1,5.68,,,,,,0,24,24,24,1,2,only_sub_right.png,2,RandomDot21.png,No answer,21,,,0.935,,,,,,,
,,,,,,,,,,,,,,,,,,,,,,,,,,,,,,,R_3YovKuFHnYI49gt,1,2024-05-01_12h56.27.083,interaction task,2021.2.3,MacIntel,58.82352941,120331,,,,,,,,,,,,,,,,,Greater,Smaller,,-0.288888889,-0.533333333,1,0,0,LeftButton,"[""LeftButton""]",,,,,,,,,,,,,,,,,0,25,25,25,1,0,both_right.png,3,RandomDot36.png,No answer,20,,,,,,,,,,
,,,,,,,,,,,,,,,,,,,,,,,,,,,,,,,R_3YovKuFHnYI49gt,1,2024-05-01_12h56.27.083,interaction task,2021.2.3,MacIntel,58.82352941,120331,,,,,,,,,,,,,,,,,Smaller,Greater,,-0.283333333,-0.46,1,0,0,LeftButton,"[""LeftButton""]",,,,0.013888889,3.288,space,,,,,,,,,,,0,26,26,26,1,3,only_sub_wrong.png,1,RandomDot6.png,No answer,20,,,,,0.735,,,,,
,,,,,,,,,,,,,,,,,,,,,,,,,,,,,,,R_3YovKuFHnYI49gt,1,2024-05-01_12h56.27.083,interaction task,2021.2.3,MacIntel,58.82352941,120331,,,,,,,,,,,,,,,,,Smaller,Greater,,-0.291666667,-0.548888889,0,0,0,,[],,,,,,,,,,,,,,,,,0,27,27,27,1,0,both_right.png,2,RandomDot25.png,No answer,20,,,,33,,,,,,
,,,,,,,,,,,,,,,,,,,,,,,,,,,,,,,R_3YovKuFHnYI49gt,1,2024-05-01_12h56.27.083,interaction task,2021.2.3,MacIntel,58.82352941,120331,,,,,,,,,,,,,,,,,Greater,Smaller,,-0.2625,-0.484444444,1,0,0,LeftButton,"[""LeftButton""]",,,,0.034722222,2.858,space,,,,,,,,,,,0,28,28,28,1,1,both_wrong.png,1,RandomDot28.png,No answer,21,,,,,0.333,,,,,
,,,,,,,,,,,,,,,,,,,,,,,,,,,,,,,R_3YovKuFHnYI49gt,1,2024-05-01_12h56.27.083,interaction task,2021.2.3,MacIntel,58.82352941,120331,,,,,,,,,,,,,,,,,Greater,Smaller,,-0.348611111,-0.524444444,1,0,0,LeftButton,"[""LeftButton""]",0,2.258,space,,,,,,,,,,,,,,0,29,29,29,1,3,only_sub_wrong.png,0,RandomDot24.png,No answer,20,,0.885,,,,,,,,
,,,,,,,,,,,,,,,,,,,,,,,,,,,,,,,R_3YovKuFHnYI49gt,1,2024-05-01_12h56.27.083,interaction task,2021.2.3,MacIntel,58.82352941,120331,,,,,,,,,,,,,,,,,Smaller,Greater,,-0.315277778,-0.486666667,1,0,0,LeftButton,"[""LeftButton""]",1,2.321,space,,,,,,,,,,,,,,0,30,30,30,1,3,only_sub_wrong.png,0,RandomDot26.png,No answer,19,,1.784,,,,,,,,
,,,,,,,,,,,,,,,,,,,,,,,,,,,,,,,R_3YovKuFHnYI49gt,1,2024-05-01_12h56.27.083,interaction task,2021.2.3,MacIntel,58.82352941,120331,,,,,,,,,,,,,,,,,Greater,Smaller,,-0.259722222,-0.517777778,1,0,0,LeftButton,"[""LeftButton""]",,,,,,,,,,,,0.617283951,4.392,space,0.476992144,5.763,0,31,31,31,1,2,only_sub_right.png,3,RandomDot26.png,No answer,20,1.152,,,,,,,,,
,,,,,,,,,,,,,,,,,,,,,,,,,,,,,,,R_3YovKuFHnYI49gt,1,2024-05-01_12h56.27.083,interaction task,2021.2.3,MacIntel,58.82352941,120331,,,,,,,,,,,,,,,,,Greater,Smaller,,-0.241666667,-0.568888889,0,0,0,,[],,,,,,,,,,,,,,,,,0,32,32,32,1,2,only_sub_right.png,1,RandomDot32.png,No answer,19,,,,112,,,,,,
,,,,,,,,,,,,,,,,,,,,,,,,,,,,,,,R_3YovKuFHnYI49gt,1,2024-05-01_12h56.27.083,interaction task,2021.2.3,MacIntel,58.82352941,120331,,,,,,,,,,,,,,,,,Smaller,Greater,,-0.241666667,-0.568888889,1,0,0,,[],,,,,,,,,,,,,,,,,0,33,33,33,1,0,both_right.png,0,RandomDot22.png,No answer,19,,,,6,,,,,,
,,,,,,,,,,,,,,,,,,,,,,,,,,,,,,,R_3YovKuFHnYI49gt,1,2024-05-01_12h56.27.083,interaction task,2021.2.3,MacIntel,58.82352941,120331,,,,,,,,,,,,,,,,,Greater,Smaller,,-0.252777778,-0.462222222,1,0,0,LeftButton,"[""LeftButton""]",,,,,,,0,2.322,space,0,3.679,,,,,,0,34,34,34,1,1,both_wrong.png,2,RandomDot9.png,No answer,21,,,0.374,,,,,,,
,,,,,,,,,,,,,,,,,,,,,,,,,,,,,,,R_3YovKuFHnYI49gt,1,2024-05-01_12h56.27.083,interaction task,2021.2.3,MacIntel,58.82352941,120331,,,,,,,,,,,,,,,,,Greater,Smaller,,-0.323611111,-0.488888889,1,0,0,LeftButton,"[""LeftButton""]",0,12.892,space,,,,,,,,,,,,,,0,35,35,35,1,2,only_sub_right.png,0,RandomDot16.png,No answer,20,,0.577,,,,,,,,
,,,,,,,,,,,,,,,,,,,,,,,,,,,,,,,R_3YovKuFHnYI49gt,1,2024-05-01_12h56.27.083,interaction task,2021.2.3,MacIntel,58.82352941,120331,,,,,,,,,,,,,,,,,Greater,Smaller,,-0.322222222,-0.542222222,1,0,0,LeftButton,"[""LeftButton""]",,,,,,,,,,,,1.318742985,6.261,space,1.038159371,7.501,0,36,36,36,1,2,only_sub_right.png,3,RandomDot10.png,No answer,19,0.44,,,,,,,,,
,,,,,,,,,,,,,,,,,,,,,,,,,,,,,,,R_3YovKuFHnYI49gt,1,2024-05-01_12h56.27.083,interaction task,2021.2.3,MacIntel,58.82352941,120331,,,,,,,,,,,,,,,,,Smaller,Greater,,-0.452777778,-0.346666667,0,0,0,,[],,,,,,,,,,,,,,,,,0,37,37,37,1,1,both_wrong.png,1,RandomDot13.png,No answer,19,,,,69,,,,,,
,,,,,,,,,,,,,,,,,,,,,,,,,,,,,,,R_3YovKuFHnYI49gt,1,2024-05-01_12h56.27.083,interaction task,2021.2.3,MacIntel,58.82352941,120331,,,,,,,,,,,,,,,,,Greater,Smaller,,-0.259722222,-0.522222222,1,0,0,LeftButton,"[""LeftButton""]",0,4.587,space,,,,,,,,,,,,,,0,38,38,38,1,1,both_wrong.png,0,RandomDot32.png,No answer,19,,0.6,,,,,,,,
,,,,,,,,,,,,,,,,,,,,,,,,,,,,,,,R_3YovKuFHnYI49gt,1,2024-05-01_12h56.27.083,interaction task,2021.2.3,MacIntel,58.82352941,120331,,,,,,,,,,,,,,,,,Smaller,Greater,,-0.225,-0.457777778,1,0,0,LeftButton,"[""LeftButton""]",,,,,,,0,3.767,space,0,5.171,,,,,,0,39,39,39,1,1,both_wrong.png,2,RandomDot21.png,No answer,20,,,0.588,,,,,,,
,,,,,,,,,,,,,,,,,,,,,,,,,,,,,,,R_3YovKuFHnYI49gt,1,2024-05-01_12h56.27.083,interaction task,2021.2.3,MacIntel,58.82352941,120331,,,,,,,,,,,,,,,,,Smaller,Greater,,-0.491666667,-0.337777778,0,0,0,,[],,,,,,,,,,,,,,,,,0,40,40,40,1,1,both_wrong.png,2,RandomDot8.png,No answer,20,,,,83,,,,,,
,,,,,,,,,,,,,,,,,,,,,,,,,,,,,,,R_3YovKuFHnYI49gt,1,2024-05-01_12h56.27.083,interaction task,2021.2.3,MacIntel,58.82352941,120331,,,,,,,,,,,,,,,,,Smaller,Greater,,-0.293055556,-0.524444444,1,0,0,LeftButton,"[""LeftButton""]",,,,,,,,,,,,0.897867565,2.699,space,1.178451178,3.75,0,41,41,41,1,1,both_wrong.png,3,RandomDot25.png,No answer,21,0.302,,,,,,,,,
,,,,,,,,,,,,,,,,,,,,,,,,,,,,,,,R_3YovKuFHnYI49gt,1,2024-05-01_12h56.27.083,interaction task,2021.2.3,MacIntel,58.82352941,120331,,,,,,,,,,,,,,,,,Smaller,Greater,,0.313888889,-0.511111111,1,0,0,RightButton,"[""RightButton""]",,,,0.034722222,2.233,space,,,,,,,,,,,,,,,,1,both_wrong.png,1,RandomDot13.png,No answer,19,,,,,0.818,0,0,0,4,1
,,,,,,,,,,,,,,,,,,,,,,,,,,,,,,,R_3YovKuFHnYI49gt,1,2024-05-01_12h56.27.083,interaction task,2021.2.3,MacIntel,58.82352941,120331,,,,,,,,,,,,,,,,,Smaller,Greater,,-0.276388889,-0.54,1,0,0,LeftButton,"[""LeftButton""]",,,,,,,,,,,,,,,,,,,,,,0,both_right.png,2,RandomDot25.png,No answer,20,,,,,,0,1,1,1,1
,,,,,,,,,,,,,,,,,,,,,,,,,,,,,,,R_3YovKuFHnYI49gt,1,2024-05-01_12h56.27.083,interaction task,2021.2.3,MacIntel,58.82352941,120331,,,,,,,,,,,,,,,,,Smaller,Greater,,0.276388889,-0.504444444,1,0,0,RightButton,"[""RightButton""]",,,,,,,,,,,,0,2.126,space,1.038159371,3.594,,,,,,3,only_sub_wrong.png,3,RandomDot36.png,No answer,21,0.925,,,,,0,2,2,0,1
,,,,,,,,,,,,,,,,,,,,,,,,,,,,,,,R_3YovKuFHnYI49gt,1,2024-05-01_12h56.27.083,interaction task,2021.2.3,MacIntel,58.82352941,120331,,,,,,,,,,,,,,,,,Smaller,Greater,,-0.266666667,-0.526666667,1,0,0,LeftButton,"[""LeftButton""]",,,,,,,,,,,,,,,,,,,,,,0,both_right.png,0,RandomDot22.png,No answer,19,,,,,,0,3,3,3,1
,,,,,,,,,,,,,,,,,,,,,,,,,,,,,,,R_3YovKuFHnYI49gt,1,2024-05-01_12h56.27.083,interaction task,2021.2.3,MacIntel,58.82352941,120331,,,,,,,,,,,,,,,,,Greater,Smaller,,-0.266666667,-0.526666667,1,0,0,LeftButton,"[""LeftButton""]",,,,0.034722222,6.634,space,,,,,,,,,,,,,,,,2,only_sub_right.png,1,RandomDot32.png,No answer,19,,,,,0.95,0,4,4,2,1
,,,,,,,,,,,,,,,,,,,,,,,,,,,,,,,R_3YovKuFHnYI49gt,1,2024-05-01_12h56.27.083,interaction task,2021.2.3,MacIntel,58.82352941,120331,,,,,,,,,,,,,,,,,Smaller,Greater,,-0.258333333,-0.502222222,1,0,0,LeftButton,"[""LeftButton""]",,,,,,,0,4.163,space,0,2.929,,,,,,,,,,,1,both_wrong.png,2,RandomDot8.png,No answer,20,,,1.117,,,0,5,5,5,1
