﻿chooserow,ParID,pre_instru_resp_2.keys,pre_instru_resp_2.rt,pre_instru_resp_3.keys,pre_instru_resp_3.rt,pre_instru_resp_9.keys,pre_instru_resp_9.rt,pre_instru_resp_8.keys,pre_instru_resp_8.rt,pre_instru_resp_4.keys,pre_instru_resp_4.rt,pre_instru_resp_5.keys,pre_instru_resp_5.rt,pre_instru_resp_6.keys,pre_instru_resp_6.rt,key_resp_3.keys,key_resp_3.rt,key_resp_4.keys,key_resp_4.rt,key_resp_5.keys,key_resp_5.rt,key_resp_6.keys,key_resp_6.rt,key_resp_7.keys,key_resp_7.rt,trials_2.thisRepN,trials_2.thisTrialN,trials_2.thisN,trials_2.thisIndex,trials_2.ran,participant,session,date,expName,psychopyVersion,OS,frameRate,pre_instru_resp.keys,pre_instru_resp.rt,clicked,judge_2.x,judge_2.y,judge_2.leftButton,judge_2.midButton,judge_2.rightButton,judge_2.clicked_name,trials.thisRepN,trials.thisTrialN,trials.thisN,trials.thisIndex,trials.ran,prac_answer,prac_dot_sti,dotlefttext,dotrighttext,prac_acc,judge.x,judge.y,judge.leftButton,judge.midButton,judge.rightButton,judge.clicked_name,clicked_guilt,slider_guilt.response,slider_guilt.rt,key_guilt.keys,share_slider.response,share_slider.rt,key_share.keys,slider_apology.response,slider_apology.rt,key_apology.keys,key_apology.rt,slider_hide.response,slider_hide.rt,slider_forgiveness.response,slider_forgiveness.rt,key_forgiveness.keys,slider_mad.response,slider_mad.rt,trialseq.thisRepN,trialseq.thisTrialN,trialseq.thisN,trialseq.thisIndex,trialseq.ran,type_trial,stipic,DV,picture,answer,number,key_share.rt,key_guilt.rt,key_forgiveness.rt,slider_friendly.response,slider_friendly.rt,slider_trustworthy.response,slider_trustworthy.rt,slider_competence.response,slider_competence.rt,slider_critical.response,slider_critical.rt,key_resp.keys,key_resp.rt
"[176,62,149,142,159,154,84,36,103,132,22,195,183,49,179,94,112,89,161,155,137,109,66,121,9,31,54,61,164,57,202,131,123,116,80,191,105,78,102,81,182,178]",用户30686,space,1.3332,space,6.0999,space,30.5774,space,26.5736,space,49.3906,space,6.5807,space,3.7642,3,3.5229,3,19.7486,3,3.434,1,6.2295,3,11.9914,0,0,0,0,1,用户30686,1,2024-05-31_00h53.32.680,interaction task chi,2021.2.3,Win32,74.62686567,,,,,,,,,,,,,,,,,,,,,,,,,,,,,,,,,,,,,,,,,,,,,,,,,,,,,,,,,,,,,,,,,,,
,,,,space,1.2955,space,13.081,space,3.4494,space,13.0694,space,1.0186,space,1.2492,3,1.5328,1,3.8453,3,2.8229,1,4.2426,2,2.2319,1,0,1,0,1,用户30686,1,2024-05-31_00h53.32.680,interaction task chi,2021.2.3,Win32,74.62686567,,,,,,,,,,,,,,,,,,,,,,,,,,,,,,,,,,,,,,,,,,,,,,,,,,,,,,,,,,,,,,,,,,,
,,,,space,0.6575,space,0.6128,space,0.723,space,9.3162,space,0.7581,space,0.6438,3,1.0316,1,1.1338,3,2.2056,2,1.4771,2,1.5978,2,0,2,0,1,用户30686,1,2024-05-31_00h53.32.680,interaction task chi,2021.2.3,Win32,74.62686567,,,,,,,,,,,,,,,,,,,,,,,,,,,,,,,,,,,,,,,,,,,,,,,,,,,,,,,,,,,,,,,,,,,
,,,,,,,,,,,,,,,,,,,,,,,,,,,,,,,用户30686,1,2024-05-31_00h53.32.680,interaction task chi,2021.2.3,Win32,74.62686567,space,3.4004,"[""LeftButton_2""]",-0.269791667,-0.338888889,1,0,0,LeftButton_2,0,0,0,0,1,LeftButton_2,9dot2.png,小于,大于,,,,,,,,,,,,,,,,,,,,,,,,,,,,,,,,,,,,,,,,,,,,,,,,,
,,,,,,,,,,,,,,,,,,,,,,,,,,,,,,,用户30686,1,2024-05-31_00h53.32.680,interaction task chi,2021.2.3,Win32,74.62686567,,,"[""RightButton_2""]",0.311458333,-0.3,1,0,0,RightButton_2,0,1,1,2,1,RightButton_2,9dot1.png,大于,小于,,,,,,,,,,,,,,,,,,,,,,,,,,,,,,,,,,,,,,,,,,,,,,,,,
,,,,,,,,,,,,,,,,,,,,,,,,,,,,,,,用户30686,1,2024-05-31_00h53.32.680,interaction task chi,2021.2.3,Win32,74.62686567,,,"[""RightButton_2""]",0.273958333,-0.242592593,1,0,0,RightButton_2,0,2,2,1,1,RightButton_2,11dot1.png,小于,大于,,,,,,,,,,,,,,,,,,,,,,,,,,,,,,,,,,,,,,,,,,,,,,,,,
,,,,,,,,,,,,,,,,,,,,,,,,,,,,,,,用户30686,1,2024-05-31_00h53.32.680,interaction task chi,2021.2.3,Win32,74.62686567,,,,,,,,,,,,,,,,,小于,大于,0.6,0.308333333,-0.514814815,1,0,0,RightButton,"[""RightButton""]",,,,,,,92,2.5979,space,3.4786,4,7.1156,,,,,,0,0,0,0,1,3,only_sub_wrong.png,2,RandomDot40.png,No answer,20,,,,,,,,,,,,,
,,,,,,,,,,,,,,,,,,,,,,,,,,,,,,,用户30686,1,2024-05-31_00h53.32.680,interaction task chi,2021.2.3,Win32,74.62686567,,,,,,,,,,,,,,,,,大于,小于,,0.292708333,-0.516666667,1,0,0,RightButton,"[""RightButton""]",,,,4.989583333,7.9865,space,,,,,,,,,,,,0,1,1,1,1,1,both_wrong.png,1,RandomDot28.png,No answer,21,1.2232,,,,,,,,,,,,
,,,,,,,,,,,,,,,,,,,,,,,,,,,,,,,用户30686,1,2024-05-31_00h53.32.680,interaction task chi,2021.2.3,Win32,74.62686567,,,,,,,,,,,,,,,,,大于,小于,,-0.280208333,-0.524074074,1,0,0,LeftButton,"[""LeftButton""]",85,2.1112,space,,,,,,,,,,,,,,,0,2,2,2,1,3,only_sub_wrong.png,0,RandomDot24.png,No answer,20,,2.4471,,,,,,,,,,,
,,,,,,,,,,,,,,,,,,,,,,,,,,,,,,,用户30686,1,2024-05-31_00h53.32.680,interaction task chi,2021.2.3,Win32,74.62686567,,,,,,,,,,,,,,,,,小于,大于,,0.286458333,-0.511111111,1,0,0,RightButton,"[""RightButton""]",,,,,,,,,,,,,66.83501684,3.2596,space,26.95707071,6.3265,0,3,3,3,1,2,only_sub_right.png,3,RandomDot18.png,No answer,20,,,3.7377,,,,,,,,,,
,,,,,,,,,,,,,,,,,,,,,,,,,,,,,,,用户30686,1,2024-05-31_00h53.32.680,interaction task chi,2021.2.3,Win32,74.62686567,,,,,,,,,,,,,,,,,大于,小于,,-0.320833333,-0.512962963,1,0,0,LeftButton,"[""LeftButton""]",,,,4.005208333,6.9392,space,,,,,,,,,,,,0,4,4,4,1,3,only_sub_wrong.png,1,RandomDot11.png,No answer,20,1.9532,,,,,,,,,,,,
,,,,,,,,,,,,,,,,,,,,,,,,,,,,,,,用户30686,1,2024-05-31_00h53.32.680,interaction task chi,2021.2.3,Win32,74.62686567,,,,,,,,,,,,,,,,,小于,大于,,-0.2875,-0.518518519,1,0,0,LeftButton,"[""LeftButton""]",98,1.623,space,,,,,,,,,,,,,,,0,5,5,5,1,3,only_sub_wrong.png,0,RandomDot25.png,No answer,21,,1.8412,,,,,,,,,,,
,,,,,,,,,,,,,,,,,,,,,,,,,,,,,,,用户30686,1,2024-05-31_00h53.32.680,interaction task chi,2021.2.3,Win32,74.62686567,,,,,,,,,,,,,,,,,大于,小于,,0.26875,-0.524074074,1,0,0,RightButton,"[""RightButton""]",,,,,,,,,,,,,46.10690236,4.2748,space,55.68181818,7.6164,0,6,6,6,1,1,both_wrong.png,3,RandomDot6.png,No answer,20,,,1.4401,,,,,,,,,,
,,,,,,,,,,,,,,,,,,,,,,,,,,,,,,,用户30686,1,2024-05-31_00h53.32.680,interaction task chi,2021.2.3,Win32,74.62686567,,,,,,,,,,,,,,,,,大于,小于,,0.276041667,-0.494444444,1,0,0,RightButton,"[""RightButton""]",,,,,,,,,,,,,,,,,,0,7,7,7,1,0,both_right.png,3,RandomDot3.png,No answer,20,,,,,,,,,,,,,
,,,,,,,,,,,,,,,,,,,,,,,,,,,,,,,用户30686,1,2024-05-31_00h53.32.680,interaction task chi,2021.2.3,Win32,74.62686567,,,,,,,,,,,,,,,,,小于,大于,,-0.294791667,-0.505555556,1,0,0,LeftButton,"[""LeftButton""]",5,1.8609,space,,,,,,,,,,,,,,,0,8,8,8,1,2,only_sub_right.png,0,RandomDot21.png,No answer,21,,1.0439,,,,,,,,,,,
,,,,,,,,,,,,,,,,,,,,,,,,,,,,,,,用户30686,1,2024-05-31_00h53.32.680,interaction task chi,2021.2.3,Win32,74.62686567,,,,,,,,,,,,,,,,,大于,小于,,-0.328125,-0.509259259,1,0,0,LeftButton,"[""LeftButton""]",,,,,,,,,,,,,68.72895623,2.5084,space,28.74579125,4.3325,0,9,9,9,1,2,only_sub_right.png,3,RandomDot20.png,No answer,21,,,0.8551,,,,,,,,,,
,,,,,,,,,,,,,,,,,,,,,,,,,,,,,,,用户30686,1,2024-05-31_00h53.32.680,interaction task chi,2021.2.3,Win32,74.62686567,,,,,,,,,,,,,,,,,小于,大于,,-0.266666667,-0.518518519,1,0,0,LeftButton,"[""LeftButton""]",,,,,,,,,,,,,,,,,,0,10,10,10,1,0,both_right.png,1,RandomDot21.png,No answer,20,,,,,,,,,,,,,
,,,,,,,,,,,,,,,,,,,,,,,,,,,,,,,用户30686,1,2024-05-31_00h53.32.680,interaction task chi,2021.2.3,Win32,74.62686567,,,,,,,,,,,,,,,,,小于,大于,,0.325,-0.514814815,1,0,0,RightButton,"[""RightButton""]",,,,,,,,,,,,,,,,,,0,11,11,11,1,4,both_right.png,10,RandomDot41.png,RightButton,5,,,,,,,,,,,,,
,,,,,,,,,,,,,,,,,,,,,,,,,,,,,,,用户30686,1,2024-05-31_00h53.32.680,interaction task chi,2021.2.3,Win32,74.62686567,,,,,,,,,,,,,,,,,大于,小于,,-0.33125,-0.501851852,1,0,0,LeftButton,"[""LeftButton""]",,,,,,,,,,,,,54.84006734,3.073,space,39.8989899,5.3804,0,12,12,12,1,3,only_sub_wrong.png,3,RandomDot17.png,No answer,19,,,1.2966,,,,,,,,,,
,,,,,,,,,,,,,,,,,,,,,,,,,,,,,,,用户30686,1,2024-05-31_00h53.32.680,interaction task chi,2021.2.3,Win32,74.62686567,,,,,,,,,,,,,,,,,大于,小于,,-0.320833333,-0.514814815,1,0,0,LeftButton,"[""LeftButton""]",74,1.6564,space,,,,,,,,,,,,,,,0,13,13,13,1,1,both_wrong.png,0,RandomDot16.png,No answer,19,,1.2953,,,,,,,,,,,
,,,,,,,,,,,,,,,,,,,,,,,,,,,,,,,用户30686,1,2024-05-31_00h53.32.680,interaction task chi,2021.2.3,Win32,74.62686567,,,,,,,,,,,,,,,,,小于,大于,,0.314583333,-0.487037037,1,0,0,RightButton,"[""RightButton""]",,,,,,,96,2.0212,space,0.9023,8,4.0602,,,,,,0,14,14,14,1,3,only_sub_wrong.png,2,RandomDot15.png,No answer,20,,,,,,,,,,,,,
,,,,,,,,,,,,,,,,,,,,,,,,,,,,,,,用户30686,1,2024-05-31_00h53.32.680,interaction task chi,2021.2.3,Win32,74.62686567,,,,,,,,,,,,,,,,,小于,大于,,-0.30625,-0.538888889,1,0,0,LeftButton,"[""LeftButton""]",,,,,,,,,,,,,44.94949495,2.8103,space,39.8989899,5.1918,0,15,15,15,1,1,both_wrong.png,3,RandomDot25.png,No answer,21,,,0.8483,,,,,,,,,,
,,,,,,,,,,,,,,,,,,,,,,,,,,,,,,,用户30686,1,2024-05-31_00h53.32.680,interaction task chi,2021.2.3,Win32,74.62686567,,,,,,,,,,,,,,,,,大于,小于,,0.323958333,-0.527777778,1,0,0,RightButton,"[""RightButton""]",,,,2.958333333,2.3666,space,,,,,,,,,,,,0,16,16,16,1,2,only_sub_right.png,1,RandomDot32.png,No answer,19,1.1603,,,,,,,,,,,,
,,,,,,,,,,,,,,,,,,,,,,,,,,,,,,,用户30686,1,2024-05-31_00h53.32.680,interaction task chi,2021.2.3,Win32,74.62686567,,,,,,,,,,,,,,,,,大于,小于,,0.276041667,-0.525925926,1,0,0,RightButton,"[""RightButton""]",,,,,,,,,,,,,57.47053872,2.1694,space,36.21632997,3.8922,0,17,17,17,1,1,both_wrong.png,3,RandomDot6.png,No answer,21,,,0.5176,,,,,,,,,,
,,,,,,,,,,,,,,,,,,,,,,,,,,,,,,,用户30686,1,2024-05-31_00h53.32.680,interaction task chi,2021.2.3,Win32,74.62686567,,,,,,,,,,,,,,,,,大于,小于,,-0.282291667,-0.518518519,1,0,0,LeftButton,"[""LeftButton""]",,,,3.541666667,3.6511,space,,,,,,,,,,,,0,18,18,18,1,3,only_sub_wrong.png,1,RandomDot36.png,No answer,19,1.2161,,,,,,,,,,,,
,,,,,,,,,,,,,,,,,,,,,,,,,,,,,,,用户30686,1,2024-05-31_00h53.32.680,interaction task chi,2021.2.3,Win32,74.62686567,,,,,,,,,,,,,,,,,小于,大于,,0.316666667,-0.490740741,1,0,0,RightButton,"[""RightButton""]",51,3.7185,space,,,,,,,,,,,,,,,0,19,19,19,1,3,only_sub_wrong.png,0,RandomDot2.png,No answer,20,,2.3081,,,,,,,,,,,
,,,,,,,,,,,,,,,,,,,,,,,,,,,,,,,用户30686,1,2024-05-31_00h53.32.680,interaction task chi,2021.2.3,Win32,74.62686567,,,,,,,,,,,,,,,,,大于,小于,,0.289583333,-0.52037037,1,0,0,RightButton,"[""RightButton""]",,,,,,,,,,,,,71.04377104,2.269,space,44.63383838,3.3358,0,20,20,20,1,2,only_sub_right.png,3,RandomDot23.png,No answer,20,,,1.2889,,,,,,,,,,
,,,,,,,,,,,,,,,,,,,,,,,,,,,,,,,用户30686,1,2024-05-31_00h53.32.680,interaction task chi,2021.2.3,Win32,74.62686567,,,,,,,,,,,,,,,,,大于,小于,,0.302083333,-0.512962963,1,0,0,RightButton,"[""RightButton""]",,,,3.6875,2.2741,space,,,,,,,,,,,,0,21,21,21,1,2,only_sub_right.png,1,RandomDot3.png,No answer,19,1.0036,,,,,,,,,,,,
,,,,,,,,,,,,,,,,,,,,,,,,,,,,,,,用户30686,1,2024-05-31_00h53.32.680,interaction task chi,2021.2.3,Win32,74.62686567,,,,,,,,,,,,,,,,,小于,大于,,-0.291666667,-0.498148148,1,0,0,LeftButton,"[""LeftButton""]",,,,4.239583333,1.4147,space,,,,,,,,,,,,0,22,22,22,1,1,both_wrong.png,1,RandomDot10.png,No answer,19,0.8631,,,,,,,,,,,,
,,,,,,,,,,,,,,,,,,,,,,,,,,,,,,,用户30686,1,2024-05-31_00h53.32.680,interaction task chi,2021.2.3,Win32,74.62686567,,,,,,,,,,,,,,,,,大于,小于,,-0.335416667,-0.522222222,1,0,0,LeftButton,"[""LeftButton""]",,,,,,,59,3.2008,space,0.8688,12,4.9715,,,,,,0,23,23,23,1,2,only_sub_right.png,2,RandomDot18.png,No answer,19,,,,,,,,,,,,,
,,,,,,,,,,,,,,,,,,,,,,,,,,,,,,,用户30686,1,2024-05-31_00h53.32.680,interaction task chi,2021.2.3,Win32,74.62686567,,,,,,,,,,,,,,,,,小于,大于,,-0.278125,-0.533333333,1,0,0,LeftButton,"[""LeftButton""]",,,,,,,,,,,,,,,,,,0,24,24,24,1,0,both_right.png,0,RandomDot5.png,No answer,21,,,,,,,,,,,,,
,,,,,,,,,,,,,,,,,,,,,,,,,,,,,,,用户30686,1,2024-05-31_00h53.32.680,interaction task chi,2021.2.3,Win32,74.62686567,,,,,,,,,,,,,,,,,小于,大于,,0.295833333,-0.511111111,1,0,0,RightButton,"[""RightButton""]",,,,,,,,,,,,,,,,,,0,25,25,25,1,0,both_right.png,2,RandomDot2.png,No answer,20,,,,,,,,,,,,,
,,,,,,,,,,,,,,,,,,,,,,,,,,,,,,,用户30686,1,2024-05-31_00h53.32.680,interaction task chi,2021.2.3,Win32,74.62686567,,,,,,,,,,,,,,,,,小于,大于,,0.353125,-0.483333333,1,0,0,RightButton,"[""RightButton""]",19,2.5299,space,,,,,,,,,,,,,,,0,26,26,26,1,1,both_wrong.png,0,RandomDot23.png,No answer,20,,1.033,,,,,,,,,,,
,,,,,,,,,,,,,,,,,,,,,,,,,,,,,,,用户30686,1,2024-05-31_00h53.32.680,interaction task chi,2021.2.3,Win32,74.62686567,,,,,,,,,,,,,,,,,大于,小于,,0.267708333,-0.527777778,1,0,0,RightButton,"[""RightButton""]",,,,3.244791667,1.6316,space,,,,,,,,,,,,0,27,27,27,1,1,both_wrong.png,1,RandomDot23.png,No answer,21,0.7124,,,,,,,,,,,,
,,,,,,,,,,,,,,,,,,,,,,,,,,,,,,,用户30686,1,2024-05-31_00h53.32.680,interaction task chi,2021.2.3,Win32,74.62686567,,,,,,,,,,,,,,,,,小于,大于,,-0.285416667,-0.518518519,1,0,0,LeftButton,"[""LeftButton""]",,,,3.822916667,2.4637,space,,,,,,,,,,,,0,28,28,28,1,3,only_sub_wrong.png,1,RandomDot40.png,No answer,19,1.1134,,,,,,,,,,,,
,,,,,,,,,,,,,,,,,,,,,,,,,,,,,,,用户30686,1,2024-05-31_00h53.32.680,interaction task chi,2021.2.3,Win32,74.62686567,,,,,,,,,,,,,,,,,小于,大于,,0.279166667,-0.525925926,1,0,0,RightButton,"[""RightButton""]",29,2.787,space,,,,,,,,,,,,,,,0,29,29,29,1,1,both_wrong.png,0,RandomDot22.png,No answer,21,,0.6222,,,,,,,,,,,
,,,,,,,,,,,,,,,,,,,,,,,,,,,,,,,用户30686,1,2024-05-31_00h53.32.680,interaction task chi,2021.2.3,Win32,74.62686567,,,,,,,,,,,,,,,,,小于,大于,,-0.28125,-0.538888889,1,0,0,LeftButton,"[""LeftButton""]",,,,,,,,,,,,,,,,,,0,30,30,30,1,5,both_right.png,10,RandomDot42.png,LeftButton,21,,,,,,,,,,,,,
,,,,,,,,,,,,,,,,,,,,,,,,,,,,,,,用户30686,1,2024-05-31_00h53.32.680,interaction task chi,2021.2.3,Win32,74.62686567,,,,,,,,,,,,,,,,,小于,大于,,-0.308333333,-0.501851852,1,0,0,LeftButton,"[""LeftButton""]",,,,,,,5,2.2062,space,2.521,20,7.4147,,,,,,0,31,31,31,1,2,only_sub_right.png,2,RandomDot5.png,No answer,21,,,,,,,,,,,,,
,,,,,,,,,,,,,,,,,,,,,,,,,,,,,,,用户30686,1,2024-05-31_00h53.32.680,interaction task chi,2021.2.3,Win32,74.62686567,,,,,,,,,,,,,,,,,大于,小于,,0.291666667,-0.516666667,1,0,0,RightButton,"[""RightButton""]",,,,,,,23,3.2643,space,0.7216,13,4.5924,,,,,,0,32,32,32,1,2,only_sub_right.png,2,RandomDot16.png,No answer,20,,,,,,,,,,,,,
,,,,,,,,,,,,,,,,,,,,,,,,,,,,,,,用户30686,1,2024-05-31_00h53.32.680,interaction task chi,2021.2.3,Win32,74.62686567,,,,,,,,,,,,,,,,,小于,大于,,0.294791667,-0.522222222,1,0,0,RightButton,"[""RightButton""]",,,,2.572916667,3.0753,space,,,,,,,,,,,,0,33,33,33,1,2,only_sub_right.png,1,RandomDot25.png,No answer,19,0.7952,,,,,,,,,,,,
,,,,,,,,,,,,,,,,,,,,,,,,,,,,,,,用户30686,1,2024-05-31_00h53.32.680,interaction task chi,2021.2.3,Win32,74.62686567,,,,,,,,,,,,,,,,,小于,大于,,-0.289583333,-0.52962963,1,0,0,LeftButton,"[""LeftButton""]",,,,,,,64,2.4525,space,2.3339,8,6.9225,,,,,,0,34,34,34,1,1,both_wrong.png,2,RandomDot8.png,No answer,20,,,,,,,,,,,,,
,,,,,,,,,,,,,,,,,,,,,,,,,,,,,,,用户30686,1,2024-05-31_00h53.32.680,interaction task chi,2021.2.3,Win32,74.62686567,,,,,,,,,,,,,,,,,小于,大于,,-0.3,-0.542592593,1,0,0,LeftButton,"[""LeftButton""]",,,,,,,,,,,,,45.15993266,2.9798,space,37.37373737,4.9224,0,35,35,35,1,3,only_sub_wrong.png,3,RandomDot36.png,No answer,21,,,0.6944,,,,,,,,,,
,,,,,,,,,,,,,,,,,,,,,,,,,,,,,,,用户30686,1,2024-05-31_00h53.32.680,interaction task chi,2021.2.3,Win32,74.62686567,,,,,,,,,,,,,,,,,小于,大于,,0.289583333,-0.488888889,1,0,0,RightButton,"[""RightButton""]",3,2.2827,space,,,,,,,,,,,,,,,0,36,36,36,1,2,only_sub_right.png,0,RandomDot17.png,No answer,20,,1.2899,,,,,,,,,,,
,,,,,,,,,,,,,,,,,,,,,,,,,,,,,,,用户30686,1,2024-05-31_00h53.32.680,interaction task chi,2021.2.3,Win32,74.62686567,,,,,,,,,,,,,,,,,小于,大于,,0.341666667,-0.512962963,1,0,0,RightButton,"[""RightButton""]",,,,,,,88,1.5311,space,1.3337,17,3.1953,,,,,,0,37,37,37,1,1,both_wrong.png,2,RandomDot19.png,No answer,19,,,,,,,,,,,,,
,,,,,,,,,,,,,,,,,,,,,,,,,,,,,,,用户30686,1,2024-05-31_00h53.32.680,interaction task chi,2021.2.3,Win32,74.62686567,,,,,,,,,,,,,,,,,小于,大于,,-0.307291667,-0.505555556,1,0,0,LeftButton,"[""LeftButton""]",0,1.9511,space,,,,,,,,,,,,,,,0,38,38,38,1,2,only_sub_right.png,0,RandomDot16.png,No answer,21,,1.4014,,,,,,,,,,,
,,,,,,,,,,,,,,,,,,,,,,,,,,,,,,,用户30686,1,2024-05-31_00h53.32.680,interaction task chi,2021.2.3,Win32,74.62686567,,,,,,,,,,,,,,,,,小于,大于,,-0.317708333,-0.481481481,1,0,0,LeftButton,"[""LeftButton""]",,,,,,,26,2.6665,space,1.6686,10,5.8482,,,,,,0,39,39,39,1,1,both_wrong.png,2,RandomDot21.png,No answer,20,,,,,,,,,,,,,
,,,,,,,,,,,,,,,,,,,,,,,,,,,,,,,用户30686,1,2024-05-31_00h53.32.680,interaction task chi,2021.2.3,Win32,74.62686567,,,,,,,,,,,,,,,,,大于,小于,,-0.336458333,-0.481481481,1,0,0,LeftButton,"[""LeftButton""]",,,,,,,,,,,,,42.84511785,2.8938,space,47.05387205,4.918,0,40,40,40,1,3,only_sub_wrong.png,3,RandomDot8.png,No answer,21,,,1.2622,,,,,,,,,,
,,,,,,,,,,,,,,,,,,,,,,,,,,,,,,,用户30686,1,2024-05-31_00h53.32.680,interaction task chi,2021.2.3,Win32,74.62686567,,,,,,,,,,,,,,,,,小于,大于,,-0.285416667,-0.533333333,1,0,0,LeftButton,"[""LeftButton""]",,,,,,,86,2.8018,space,0.8632,6,4.5727,,,,,,0,41,41,41,1,3,only_sub_wrong.png,2,RandomDot22.png,No answer,19,,,,,,,,,,,,,
,,,,,,,,,,,,,,,,,,,,,,,,,,,,,,,用户30686,1,2024-05-31_00h53.32.680,interaction task chi,2021.2.3,Win32,74.62686567,,,,,,,,,,,,,,,,,,,,,,,,,,,,,,,,,,,,,,,,,,,,,,,,,,,,,,,,,,6.325,5.5174,6.76875,6.8403,5.775,8.8325,2.14375,11.8967,space,14.1272