﻿choose_trial,key_resp.keys,key_resp.rt,key_resp_4.keys,key_resp_4.rt,session_trait,key_resp_5.keys,key_resp_5.rt,slider_face_judge.response,slider_face_judge.rt,key_resp_3.keys,key_resp_3.rt,face_loop.thisRepN,face_loop.thisTrialN,face_loop.thisN,face_loop.thisIndex,face_loop.ran,face_serial,image_name,isCheck,answer,check_question,participant,session,date,expName,psychopyVersion,OS,frameRate,session.thisRepN,session.thisTrialN,session.thisN,session.thisIndex,session.ran,session_serial,slider_judge_img
"[0,1,2,3,4,5,6,7,8,9,10,11,12,13,14,15,16,17,18,19,20,21,22,23,24,25,26,27,28,29,30,31,32,33,34,35,36,37,38,39,40,41,42,43,44,45,46,47,48,49,57,57,56]",space,7.7006,space,19.7674,critical,space,39.6318,3.003599376,2.1315,space,1.4414,0,0,0,12,1,13,image/13.jpg,0,0,,加多宝,2,2024-05-31_01h18.14.976,face trait task chi,2021.2.3,Win32,59.52380952,,,,,,,
,,,,,,,,1.068914442,2.3364,space,0.3064,0,1,1,11,1,12,image/12.jpg,0,0,,加多宝,2,2024-05-31_01h18.14.976,face trait task chi,2021.2.3,Win32,59.52380952,,,,,,,
,,,,,,,,3.088585582,1.9516,space,0.3855,0,2,2,35,1,36,image/36.jpg,0,0,,加多宝,2,2024-05-31_01h18.14.976,face trait task chi,2021.2.3,Win32,59.52380952,,,,,,,
,,,,,,,,4.943283729,3.0024,space,0.434,0,3,3,19,1,20,image/20.jpg,0,0,,加多宝,2,2024-05-31_01h18.14.976,face trait task chi,2021.2.3,Win32,59.52380952,,,,,,,
,,,,,,,,2.013760473,2.0083,space,0.2188,0,4,4,40,1,41,image/41.jpg,0,0,,加多宝,2,2024-05-31_01h18.14.976,face trait task chi,2021.2.3,Win32,59.52380952,,,,,,,
,,,,,,,,3.05359143,2.4578,space,0.3564,0,5,5,4,1,5,image/5.jpg,0,0,,加多宝,2,2024-05-31_01h18.14.976,face trait task chi,2021.2.3,Win32,59.52380952,,,,,,,
,,,,,,,,6.977952413,4.9776,space,1.4937,0,6,6,52,1,57,image/fill_img.png,1,7,请将滑块完全移动到<右边>，以示您在专心判断。,加多宝,2,2024-05-31_01h18.14.976,face trait task chi,2021.2.3,Win32,59.52380952,,,,,,,
,,,,,,,,5.988113748,4.9005,space,2.4854,0,7,7,3,1,4,image/4.jpg,0,0,,加多宝,2,2024-05-31_01h18.14.976,face trait task chi,2021.2.3,Win32,59.52380952,,,,,,,
,,,,,,,,4.968279756,2.8905,space,0.1339,0,8,8,21,1,22,image/22.jpg,0,0,,加多宝,2,2024-05-31_01h18.14.976,face trait task chi,2021.2.3,Win32,59.52380952,,,,,,,
,,,,,,,,6.987951015,3.4955,space,4.1173,0,9,9,50,1,58,image/fill_img.png,1,7,请将滑块完全移动到<右边>，以示您在专心判断。,加多宝,2,2024-05-31_01h18.14.976,face trait task chi,2021.2.3,Win32,59.52380952,,,,,,,
,,,,,,,,5.993113526,2.993,space,1.1576,0,10,10,6,1,7,image/7.jpg,0,0,,加多宝,2,2024-05-31_01h18.14.976,face trait task chi,2021.2.3,Win32,59.52380952,,,,,,,
,,,,,,,,6.947957562,2.5366,space,0.3847,0,11,11,39,1,40,image/40.jpg,0,0,,加多宝,2,2024-05-31_01h18.14.976,face trait task chi,2021.2.3,Win32,59.52380952,,,,,,,
,,,,,,,,4.963280455,1.3593,space,0.3395,0,12,12,33,1,34,image/34.jpg,0,0,,加多宝,2,2024-05-31_01h18.14.976,face trait task chi,2021.2.3,Win32,59.52380952,,,,,,,
,,,,,,,,5.968117499,1.3057,space,0.2694,0,13,13,5,1,6,image/6.jpg,0,0,,加多宝,2,2024-05-31_01h18.14.976,face trait task chi,2021.2.3,Win32,59.52380952,,,,,,,
,,,,,,,,3.01859704,1.9075,space,0.3855,0,14,14,34,1,35,image/35.jpg,0,0,,加多宝,2,2024-05-31_01h18.14.976,face trait task chi,2021.2.3,Win32,59.52380952,,,,,,,
,,,,,,,,4.943283729,1.9101,space,0.317,0,15,15,17,1,18,image/18.jpg,0,0,,加多宝,2,2024-05-31_01h18.14.976,face trait task chi,2021.2.3,Win32,59.52380952,,,,,,,
,,,,,,,,3.073588156,3.3106,space,0.3429,0,16,16,46,1,47,image/47.jpg,0,0,,加多宝,2,2024-05-31_01h18.14.976,face trait task chi,2021.2.3,Win32,59.52380952,,,,,,,
,,,,,,,,6.058102052,2.1348,space,0.3577,0,17,17,23,1,24,image/24.jpg,0,0,,加多宝,2,2024-05-31_01h18.14.976,face trait task chi,2021.2.3,Win32,59.52380952,,,,,,,
,,,,,,,,5.103257539,1.639,space,0.3845,0,18,18,1,1,2,image/2.jpg,0,0,,加多宝,2,2024-05-31_01h18.14.976,face trait task chi,2021.2.3,Win32,59.52380952,,,,,,,
,,,,,,,,6.927960836,1.6032,space,0.3699,0,19,19,30,1,31,image/31.jpg,0,0,,加多宝,2,2024-05-31_01h18.14.976,face trait task chi,2021.2.3,Win32,59.52380952,,,,,,,
,,,,,,,,5.088260114,2.5171,space,0.351,0,20,20,27,1,28,image/28.jpg,0,0,,加多宝,2,2024-05-31_01h18.14.976,face trait task chi,2021.2.3,Win32,59.52380952,,,,,,,
,,,,,,,,6.0231079,1.4347,space,0.7406,0,21,21,16,1,17,image/17.jpg,0,0,,加多宝,2,2024-05-31_01h18.14.976,face trait task chi,2021.2.3,Win32,59.52380952,,,,,,,
,,,,,,,,4.973279057,1.3419,space,0.2875,0,22,22,42,1,43,image/43.jpg,0,0,,加多宝,2,2024-05-31_01h18.14.976,face trait task chi,2021.2.3,Win32,59.52380952,,,,,,,
,,,,,,,,5.973115846,1.4069,space,0.3099,0,23,23,26,1,27,image/27.jpg,0,0,,加多宝,2,2024-05-31_01h18.14.976,face trait task chi,2021.2.3,Win32,59.52380952,,,,,,,
,,,,,,,,5.058264786,1.5812,space,0.4073,0,24,24,10,1,11,image/11.jpg,0,0,,加多宝,2,2024-05-31_01h18.14.976,face trait task chi,2021.2.3,Win32,59.52380952,,,,,,,
,,,,,,,,6.003111174,2.5622,space,0.0898,0,25,25,8,1,9,image/9.jpg,0,0,,加多宝,2,2024-05-31_01h18.14.976,face trait task chi,2021.2.3,Win32,59.52380952,,,,,,,
,,,,,,,,3.05359143,2.0721,space,0.3748,0,26,26,32,1,33,image/33.jpg,0,0,,加多宝,2,2024-05-31_01h18.14.976,face trait task chi,2021.2.3,Win32,59.52380952,,,,,,,
,,,,,,,,2.013760473,1.8089,space,0.149,0,27,27,47,1,48,image/48.jpg,0,0,,加多宝,2,2024-05-31_01h18.14.976,face trait task chi,2021.2.3,Win32,59.52380952,,,,,,,
,,,,,,,,3.023596102,2.3363,space,0.786,0,28,28,49,1,50,image/50.jpg,0,0,,加多宝,2,2024-05-31_01h18.14.976,face trait task chi,2021.2.3,Win32,59.52380952,,,,,,,
,,,,,,,,4.968279756,2.3396,space,1.3083,0,29,29,37,1,38,image/38.jpg,0,0,,加多宝,2,2024-05-31_01h18.14.976,face trait task chi,2021.2.3,Win32,59.52380952,,,,,,,
,,,,,,,,5.958118421,1.5832,space,0.2872,0,30,30,25,1,26,image/26.jpg,0,0,,加多宝,2,2024-05-31_01h18.14.976,face trait task chi,2021.2.3,Win32,59.52380952,,,,,,,
,,,,,,,,1.998763047,2.5714,space,1.0171,0,31,31,2,1,3,image/3.jpg,0,0,,加多宝,2,2024-05-31_01h18.14.976,face trait task chi,2021.2.3,Win32,59.52380952,,,,,,,
,,,,,,,,3.063589793,1.9435,space,0.4506,0,32,32,24,1,25,image/25.jpg,0,0,,加多宝,2,2024-05-31_01h18.14.976,face trait task chi,2021.2.3,Win32,59.52380952,,,,,,,
,,,,,,,,1.083911987,1.6381,space,0.3202,0,33,33,48,1,49,image/49.jpg,0,0,,加多宝,2,2024-05-31_01h18.14.976,face trait task chi,2021.2.3,Win32,59.52380952,,,,,,,
,,,,,,,,4.978277881,2.9482,space,1.0926,0,34,34,20,1,21,image/21.jpg,0,0,,加多宝,2,2024-05-31_01h18.14.976,face trait task chi,2021.2.3,Win32,59.52380952,,,,,,,
,,,,,,,,2.983603126,1.6893,space,1.1265,0,35,35,43,1,44,image/44.jpg,0,0,,加多宝,2,2024-05-31_01h18.14.976,face trait task chi,2021.2.3,Win32,59.52380952,,,,,,,
,,,,,,,,4.998274607,1.8413,space,0.1383,0,36,36,44,1,45,image/45.jpg,0,0,,加多宝,2,2024-05-31_01h18.14.976,face trait task chi,2021.2.3,Win32,59.52380952,,,,,,,
,,,,,,,,6.937958961,2.624,space,1.0533,0,37,37,45,1,46,image/46.jpg,0,0,,加多宝,2,2024-05-31_01h18.14.976,face trait task chi,2021.2.3,Win32,59.52380952,,,,,,,
,,,,,,,,5.008273209,2.3897,space,0.2267,0,38,38,28,1,29,image/29.jpg,0,0,,加多宝,2,2024-05-31_01h18.14.976,face trait task chi,2021.2.3,Win32,59.52380952,,,,,,,
,,,,,,,,5.993113526,1.7731,space,0.2371,0,39,39,15,1,16,image/16.jpg,0,0,,加多宝,2,2024-05-31_01h18.14.976,face trait task chi,2021.2.3,Win32,59.52380952,,,,,,,
,,,,,,,,6.962954988,2.3544,space,0.9399,0,40,40,14,1,15,image/15.jpg,0,0,,加多宝,2,2024-05-31_01h18.14.976,face trait task chi,2021.2.3,Win32,59.52380952,,,,,,,
,,,,,,,,5.023270634,1.3374,space,0.6074,0,41,41,29,1,30,image/30.jpg,0,0,,加多宝,2,2024-05-31_01h18.14.976,face trait task chi,2021.2.3,Win32,59.52380952,,,,,,,
,,,,,,,,3.048592129,1.6231,space,0.3386,0,42,42,31,1,32,image/32.jpg,0,0,,加多宝,2,2024-05-31_01h18.14.976,face trait task chi,2021.2.3,Win32,59.52380952,,,,,,,
,,,,,,,,5.983114448,2.3078,space,0.8705,0,43,43,13,1,14,image/14.jpg,0,0,,加多宝,2,2024-05-31_01h18.14.976,face trait task chi,2021.2.3,Win32,59.52380952,,,,,,,
,,,,,,,,4.953281854,2.3042,space,0.3503,0,44,44,0,1,1,image/1.jpg,0,0,,加多宝,2,2024-05-31_01h18.14.976,face trait task chi,2021.2.3,Win32,59.52380952,,,,,,,
,,,,,,,,6.917962711,1.2832,space,0.3105,0,45,45,22,1,23,image/23.jpg,0,0,,加多宝,2,2024-05-31_01h18.14.976,face trait task chi,2021.2.3,Win32,59.52380952,,,,,,,
,,,,,,,,7,2.9487,space,2.2512,0,46,46,51,1,58,image/fill_img.png,1,7,请将滑块完全移动到<右边>，以示您在专心判断。,加多宝,2,2024-05-31_01h18.14.976,face trait task chi,2021.2.3,Win32,59.52380952,,,,,,,
,,,,,,,,5.003273908,3.5399,space,1.9344,0,47,47,38,1,39,image/39.jpg,0,0,,加多宝,2,2024-05-31_01h18.14.976,face trait task chi,2021.2.3,Win32,59.52380952,,,,,,,
,,,,,,,,5.958118421,1.9905,space,0.8686,0,48,48,41,1,42,image/42.jpg,0,0,,加多宝,2,2024-05-31_01h18.14.976,face trait task chi,2021.2.3,Win32,59.52380952,,,,,,,
,,,,,,,,4.978277881,2.5467,space,0.823,0,49,49,36,1,37,image/37.jpg,0,0,,加多宝,2,2024-05-31_01h18.14.976,face trait task chi,2021.2.3,Win32,59.52380952,,,,,,,
,,,,,,,,5.943121472,3.2136,space,0.4226,0,50,50,7,1,8,image/8.jpg,0,0,,加多宝,2,2024-05-31_01h18.14.976,face trait task chi,2021.2.3,Win32,59.52380952,,,,,,,
,,,,,,,,5.083260813,1.365,space,0.4674,0,51,51,9,1,10,image/10.jpg,0,0,,加多宝,2,2024-05-31_01h18.14.976,face trait task chi,2021.2.3,Win32,59.52380952,,,,,,,
,,,,,,,,6.922961535,1.9234,space,0.3696,0,52,52,18,1,19,image/19.jpg,0,0,,加多宝,2,2024-05-31_01h18.14.976,face trait task chi,2021.2.3,Win32,59.52380952,,,,,,,
,,,,,,,,,,,,,,,,,,,,,,加多宝,2,2024-05-31_01h18.14.976,face trait task chi,2021.2.3,Win32,59.52380952,0,0,0,0,1,0,critical.png
,,,,,competent,space,5.3868,4.928286304,1.941,space,0.3336,0,0,0,3,1,4,image/4.jpg,0,0,,加多宝,2,2024-05-31_01h18.14.976,face trait task chi,2021.2.3,Win32,59.52380952,,,,,,,
,,,,,,,,2.98860195,2.6978,space,0.3003,0,1,1,39,1,40,image/40.jpg,0,0,,加多宝,2,2024-05-31_01h18.14.976,face trait task chi,2021.2.3,Win32,59.52380952,,,,,,,
,,,,,,,,5.973115846,2.2735,space,0.068,0,2,2,45,1,46,image/46.jpg,0,0,,加多宝,2,2024-05-31_01h18.14.976,face trait task chi,2021.2.3,Win32,59.52380952,,,,,,,
,,,,,,,,5.073262688,1.356,space,0.3382,0,3,3,30,1,31,image/31.jpg,0,0,,加多宝,2,2024-05-31_01h18.14.976,face trait task chi,2021.2.3,Win32,59.52380952,,,,,,,
,,,,,,,,5.998111873,2.0235,space,0.8863,0,4,4,35,1,36,image/36.jpg,0,0,,加多宝,2,2024-05-31_01h18.14.976,face trait task chi,2021.2.3,Win32,59.52380952,,,,,,,
,,,,,,,,2.998600313,1.8187,space,0.3163,0,5,5,5,1,6,image/6.jpg,0,0,,加多宝,2,2024-05-31_01h18.14.976,face trait task chi,2021.2.3,Win32,59.52380952,,,,,,,
,,,,,,,,2.018759774,2.3949,space,0.3382,0,6,6,10,1,11,image/11.jpg,0,0,,加多宝,2,2024-05-31_01h18.14.976,face trait task chi,2021.2.3,Win32,59.52380952,,,,,,,
,,,,,,,,5.033269236,2.7577,space,0.2167,0,7,7,40,1,41,image/41.jpg,0,0,,加多宝,2,2024-05-31_01h18.14.976,face trait task chi,2021.2.3,Win32,59.52380952,,,,,,,
,,,,,,,,6.08809738,2.4253,space,0.3592,0,8,8,16,1,17,image/17.jpg,0,0,,加多宝,2,2024-05-31_01h18.14.976,face trait task chi,2021.2.3,Win32,59.52380952,,,,,,,
,,,,,,,,2.048754863,1.6084,space,0.3325,0,9,9,42,1,43,image/43.jpg,0,0,,加多宝,2,2024-05-31_01h18.14.976,face trait task chi,2021.2.3,Win32,59.52380952,,,,,,,
,,,,,,,,5.028269935,2.5866,space,0.7692,0,10,10,34,1,35,image/35.jpg,0,0,,加多宝,2,2024-05-31_01h18.14.976,face trait task chi,2021.2.3,Win32,59.52380952,,,,,,,
,,,,,,,,3.038593766,3.2231,space,0.3699,0,11,11,24,1,25,image/25.jpg,0,0,,加多宝,2,2024-05-31_01h18.14.976,face trait task chi,2021.2.3,Win32,59.52380952,,,,,,,
,,,,,,,,1.998763047,3.3243,space,1.8865,0,12,12,15,1,16,image/16.jpg,0,0,,加多宝,2,2024-05-31_01h18.14.976,face trait task chi,2021.2.3,Win32,59.52380952,,,,,,,
,,,,,,,,3.008598915,2.7212,space,1.193,0,13,13,47,1,48,image/48.jpg,0,0,,加多宝,2,2024-05-31_01h18.14.976,face trait task chi,2021.2.3,Win32,59.52380952,,,,,,,
,,,,,,,,2.00876141,1.7554,space,0.3665,0,14,14,9,1,10,image/10.jpg,0,0,,加多宝,2,2024-05-31_01h18.14.976,face trait task chi,2021.2.3,Win32,59.52380952,,,,,,,
,,,,,,,,3.033594942,1.6885,space,0.6195,0,15,15,46,1,47,image/47.jpg,0,0,,加多宝,2,2024-05-31_01h18.14.976,face trait task chi,2021.2.3,Win32,59.52380952,,,,,,,
,,,,,,,,6.982951714,2.3739,space,0.9837,0,16,16,50,1,58,image/fill_img.png,1,7,请将滑块完全移动到<右边>，以示您在专心判断。,加多宝,2,2024-05-31_01h18.14.976,face trait task chi,2021.2.3,Win32,59.52380952,,,,,,,
,,,,,,,,2.053754164,5.2752,space,1.4842,0,17,17,2,1,3,image/3.jpg,0,0,,加多宝,2,2024-05-31_01h18.14.976,face trait task chi,2021.2.3,Win32,59.52380952,,,,,,,
,,,,,,,,5.008273209,6.024,space,1.3383,0,18,18,49,1,50,image/50.jpg,0,0,,加多宝,2,2024-05-31_01h18.14.976,face trait task chi,2021.2.3,Win32,59.52380952,,,,,,,
,,,,,,,,4.94828303,4.427,space,0.4669,0,19,19,14,1,15,image/15.jpg,0,0,,加多宝,2,2024-05-31_01h18.14.976,face trait task chi,2021.2.3,Win32,59.52380952,,,,,,,
,,,,,,,,3.003599376,1.7233,space,0.1509,0,20,20,29,1,30,image/30.jpg,0,0,,加多宝,2,2024-05-31_01h18.14.976,face trait task chi,2021.2.3,Win32,59.52380952,,,,,,,
,,,,,,,,1.023921689,3.0325,space,1.3857,0,21,21,37,1,38,image/38.jpg,0,0,,加多宝,2,2024-05-31_01h18.14.976,face trait task chi,2021.2.3,Win32,59.52380952,,,,,,,
,,,,,,,,3.028595403,1.4375,space,0.2526,0,22,22,17,1,18,image/18.jpg,0,0,,加多宝,2,2024-05-31_01h18.14.976,face trait task chi,2021.2.3,Win32,59.52380952,,,,,,,
,,,,,,,,5.018271333,1.9894,space,0.1899,0,23,23,41,1,42,image/42.jpg,0,0,,加多宝,2,2024-05-31_01h18.14.976,face trait task chi,2021.2.3,Win32,59.52380952,,,,,,,
,,,,,,,,2.0387565,2.4397,space,0.6349,0,24,24,22,1,23,image/23.jpg,0,0,,加多宝,2,2024-05-31_01h18.14.976,face trait task chi,2021.2.3,Win32,59.52380952,,,,,,,
,,,,,,,,6.997949139,1.6321,space,3.7601,0,25,25,51,1,58,image/fill_img.png,1,7,请将滑块完全移动到<右边>，以示您在专心判断。,加多宝,2,2024-05-31_01h18.14.976,face trait task chi,2021.2.3,Win32,59.52380952,,,,,,,
,,,,,,,,2.978603587,3.2976,space,0.7605,0,26,26,33,1,34,image/34.jpg,0,0,,加多宝,2,2024-05-31_01h18.14.976,face trait task chi,2021.2.3,Win32,59.52380952,,,,,,,
,,,,,,,,1.068914442,1.735,space,0.6009,0,27,27,0,1,1,image/1.jpg,0,0,,加多宝,2,2024-05-31_01h18.14.976,face trait task chi,2021.2.3,Win32,59.52380952,,,,,,,
,,,,,,,,1.063915261,2.1949,space,0.7527,0,28,28,27,1,28,image/28.jpg,0,0,,加多宝,2,2024-05-31_01h18.14.976,face trait task chi,2021.2.3,Win32,59.52380952,,,,,,,
,,,,,,,,4.973279057,1.5334,space,0.2029,0,29,29,20,1,21,image/21.jpg,0,0,,加多宝,2,2024-05-31_01h18.14.976,face trait task chi,2021.2.3,Win32,59.52380952,,,,,,,
,,,,,,,,3.05359143,1.4293,space,0.2734,0,30,30,23,1,24,image/24.jpg,0,0,,加多宝,2,2024-05-31_01h18.14.976,face trait task chi,2021.2.3,Win32,59.52380952,,,,,,,
,,,,,,,,5.008273209,1.5871,space,0.2001,0,31,31,38,1,39,image/39.jpg,0,0,,加多宝,2,2024-05-31_01h18.14.976,face trait task chi,2021.2.3,Win32,59.52380952,,,,,,,
,,,,,,,,3.033594942,2.8298,space,0.2515,0,32,32,19,1,20,image/20.jpg,0,0,,加多宝,2,2024-05-31_01h18.14.976,face trait task chi,2021.2.3,Win32,59.52380952,,,,,,,
,,,,,,,,7,3.0897,space,2.1184,0,33,33,52,1,57,image/fill_img.png,1,7,请将滑块完全移动到<右边>，以示您在专心判断。,加多宝,2,2024-05-31_01h18.14.976,face trait task chi,2021.2.3,Win32,59.52380952,,,,,,,
,,,,,,,,3.038593766,2.2053,space,0.2701,0,34,34,43,1,44,image/44.jpg,0,0,,加多宝,2,2024-05-31_01h18.14.976,face trait task chi,2021.2.3,Win32,59.52380952,,,,,,,
,,,,,,,,2.053754164,1.5412,space,0.2934,0,35,35,1,1,2,image/2.jpg,0,0,,加多宝,2,2024-05-31_01h18.14.976,face trait task chi,2021.2.3,Win32,59.52380952,,,,,,,
,,,,,,,,1.018922508,3.0044,space,1.8992,0,36,36,7,1,8,image/8.jpg,0,0,,加多宝,2,2024-05-31_01h18.14.976,face trait task chi,2021.2.3,Win32,59.52380952,,,,,,,
,,,,,,,,2.0387565,1.973,space,0.3749,0,37,37,18,1,19,image/19.jpg,0,0,,加多宝,2,2024-05-31_01h18.14.976,face trait task chi,2021.2.3,Win32,59.52380952,,,,,,,
,,,,,,,,1.018922508,2.3382,space,0.917,0,38,38,26,1,27,image/27.jpg,0,0,,加多宝,2,2024-05-31_01h18.14.976,face trait task chi,2021.2.3,Win32,59.52380952,,,,,,,
,,,,,,,,2.98860195,1.2713,space,0.2914,0,39,39,21,1,22,image/22.jpg,0,0,,加多宝,2,2024-05-31_01h18.14.976,face trait task chi,2021.2.3,Win32,59.52380952,,,,,,,
,,,,,,,,2.023759074,1.8394,space,0.6844,0,40,40,25,1,26,image/26.jpg,0,0,,加多宝,2,2024-05-31_01h18.14.976,face trait task chi,2021.2.3,Win32,59.52380952,,,,,,,
,,,,,,,,1.028921109,2.3538,space,0.8386,0,41,41,31,1,32,image/32.jpg,0,0,,加多宝,2,2024-05-31_01h18.14.976,face trait task chi,2021.2.3,Win32,59.52380952,,,,,,,
,,,,,,,,1.998763047,1.7627,space,1.4148,0,42,42,12,1,13,image/13.jpg,0,0,,加多宝,2,2024-05-31_01h18.14.976,face trait task chi,2021.2.3,Win32,59.52380952,,,,,,,
,,,,,,,,1.003925082,2.388,space,0.3708,0,43,43,48,1,49,image/49.jpg,0,0,,加多宝,2,2024-05-31_01h18.14.976,face trait task chi,2021.2.3,Win32,59.52380952,,,,,,,
,,,,,,,,3.01859704,1.8708,space,0.7072,0,44,44,8,1,9,image/9.jpg,0,0,,加多宝,2,2024-05-31_01h18.14.976,face trait task chi,2021.2.3,Win32,59.52380952,,,,,,,
,,,,,,,,1.978766321,1.9883,space,0.8233,0,45,45,28,1,29,image/29.jpg,0,0,,加多宝,2,2024-05-31_01h18.14.976,face trait task chi,2021.2.3,Win32,59.52380952,,,,,,,
,,,,,,,,3.003599376,3.49,space,0.106,0,46,46,6,1,7,image/7.jpg,0,0,,加多宝,2,2024-05-31_01h18.14.976,face trait task chi,2021.2.3,Win32,59.52380952,,,,,,,
,,,,,,,,2.968605224,6.175,space,0.4667,0,47,47,44,1,45,image/45.jpg,0,0,,加多宝,2,2024-05-31_01h18.14.976,face trait task chi,2021.2.3,Win32,59.52380952,,,,,,,
,,,,,,,,4.993275783,8.1624,space,0.9032,0,48,48,4,1,5,image/5.jpg,0,0,,加多宝,2,2024-05-31_01h18.14.976,face trait task chi,2021.2.3,Win32,59.52380952,,,,,,,
,,,,,,,,5.013272509,4.4436,space,0.2095,0,49,49,11,1,12,image/12.jpg,0,0,,加多宝,2,2024-05-31_01h18.14.976,face trait task chi,2021.2.3,Win32,59.52380952,,,,,,,
,,,,,,,,1.028921109,2.7854,space,0.6532,0,50,50,32,1,33,image/33.jpg,0,0,,加多宝,2,2024-05-31_01h18.14.976,face trait task chi,2021.2.3,Win32,59.52380952,,,,,,,
,,,,,,,,2.968605224,7.4891,space,1.4603,0,51,51,13,1,14,image/14.jpg,0,0,,加多宝,2,2024-05-31_01h18.14.976,face trait task chi,2021.2.3,Win32,59.52380952,,,,,,,
,,,,,,,,2.993601013,5.7064,space,0.517,0,52,52,36,1,37,image/37.jpg,0,0,,加多宝,2,2024-05-31_01h18.14.976,face trait task chi,2021.2.3,Win32,59.52380952,,,,,,,
,,,,,,,,,,,,,,,,,,,,,,加多宝,2,2024-05-31_01h18.14.976,face trait task chi,2021.2.3,Win32,59.52380952,0,1,1,1,1,1,competent.png
,,,,,trustworthy,space,2.3359,2.98860195,3.5314,space,0.2708,0,0,0,20,1,21,image/21.jpg,0,0,,加多宝,2,2024-05-31_01h18.14.976,face trait task chi,2021.2.3,Win32,59.52380952,,,,,,,
,,,,,,,,1.068914442,1.7235,space,0.5255,0,1,1,12,1,13,image/13.jpg,0,0,,加多宝,2,2024-05-31_01h18.14.976,face trait task chi,2021.2.3,Win32,59.52380952,,,,,,,
,,,,,,,,5.063264087,1.7225,space,0.5361,0,2,2,17,1,18,image/18.jpg,0,0,,加多宝,2,2024-05-31_01h18.14.976,face trait task chi,2021.2.3,Win32,59.52380952,,,,,,,
,,,,,,,,6.982951714,1.8078,space,0.5703,0,3,3,4,1,5,image/5.jpg,0,0,,加多宝,2,2024-05-31_01h18.14.976,face trait task chi,2021.2.3,Win32,59.52380952,,,,,,,
,,,,,,,,1.988764684,1.4083,space,0.2255,0,4,4,30,1,31,image/31.jpg,0,0,,加多宝,2,2024-05-31_01h18.14.976,face trait task chi,2021.2.3,Win32,59.52380952,,,,,,,
,,,,,,,,4.988276482,1.307,space,0.1501,0,5,5,31,1,32,image/32.jpg,0,0,,加多宝,2,2024-05-31_01h18.14.976,face trait task chi,2021.2.3,Win32,59.52380952,,,,,,,
,,,,,,,,2.983603126,1.97,space,0.2182,0,6,6,6,1,7,image/7.jpg,0,0,,加多宝,2,2024-05-31_01h18.14.976,face trait task chi,2021.2.3,Win32,59.52380952,,,,,,,
,,,,,,,,2.048754863,1.8561,space,0.4343,0,7,7,36,1,37,image/37.jpg,0,0,,加多宝,2,2024-05-31_01h18.14.976,face trait task chi,2021.2.3,Win32,59.52380952,,,,,,,
,,,,,,,,2.98860195,1.658,space,0.1032,0,8,8,29,1,30,image/30.jpg,0,0,,加多宝,2,2024-05-31_01h18.14.976,face trait task chi,2021.2.3,Win32,59.52380952,,,,,,,
,,,,,,,,1.103908832,1.4641,space,0.6728,0,9,9,0,1,1,image/1.jpg,0,0,,加多宝,2,2024-05-31_01h18.14.976,face trait task chi,2021.2.3,Win32,59.52380952,,,,,,,
,,,,,,,,1.97376702,1.5112,space,0.3263,0,10,10,23,1,24,image/24.jpg,0,0,,加多宝,2,2024-05-31_01h18.14.976,face trait task chi,2021.2.3,Win32,59.52380952,,,,,,,
,,,,,,,,1.028921109,1.846,space,0.3332,0,11,11,48,1,49,image/49.jpg,0,0,,加多宝,2,2024-05-31_01h18.14.976,face trait task chi,2021.2.3,Win32,59.52380952,,,,,,,
,,,,,,,,2.998600313,2.159,space,0.8379,0,12,12,10,1,11,image/11.jpg,0,0,,加多宝,2,2024-05-31_01h18.14.976,face trait task chi,2021.2.3,Win32,59.52380952,,,,,,,
,,,,,,,,1.988764684,3.2539,space,0.0944,0,13,13,33,1,34,image/34.jpg,0,0,,加多宝,2,2024-05-31_01h18.14.976,face trait task chi,2021.2.3,Win32,59.52380952,,,,,,,
,,,,,,,,6.997949139,2.7214,space,1.1663,0,14,14,51,1,58,image/fill_img.png,1,7,请将滑块完全移动到<右边>，以示您在专心判断。,加多宝,2,2024-05-31_01h18.14.976,face trait task chi,2021.2.3,Win32,59.52380952,,,,,,,
,,,,,,,,2.973604286,2.0363,space,0.2203,0,15,15,45,1,46,image/46.jpg,0,0,,加多宝,2,2024-05-31_01h18.14.976,face trait task chi,2021.2.3,Win32,59.52380952,,,,,,,
,,,,,,,,1.988764684,7.0621,space,4.6322,0,16,16,19,1,20,image/20.jpg,0,0,,加多宝,2,2024-05-31_01h18.14.976,face trait task chi,2021.2.3,Win32,59.52380952,,,,,,,
,,,,,,,,4.983277182,2.7511,space,0.6843,0,17,17,49,1,50,image/50.jpg,0,0,,加多宝,2,2024-05-31_01h18.14.976,face trait task chi,2021.2.3,Win32,59.52380952,,,,,,,
,,,,,,,,6.013109775,3.1037,space,0.144,0,18,18,43,1,44,image/44.jpg,0,0,,加多宝,2,2024-05-31_01h18.14.976,face trait task chi,2021.2.3,Win32,59.52380952,,,,,,,
,,,,,,,,3.008598915,5.1927,space,2.1006,0,19,19,25,1,26,image/26.jpg,0,0,,加多宝,2,2024-05-31_01h18.14.976,face trait task chi,2021.2.3,Win32,59.52380952,,,,,,,
,,,,,,,,2.00376211,1.8993,space,0.7017,0,20,20,1,1,2,image/2.jpg,0,0,,加多宝,2,2024-05-31_01h18.14.976,face trait task chi,2021.2.3,Win32,59.52380952,,,,,,,
,,,,,,,,1.048917597,2.5394,space,0.3374,0,21,21,44,1,45,image/45.jpg,0,0,,加多宝,2,2024-05-31_01h18.14.976,face trait task chi,2021.2.3,Win32,59.52380952,,,,,,,
,,,,,,,,2.968605224,1.9865,space,0.8827,0,22,22,24,1,25,image/25.jpg,0,0,,加多宝,2,2024-05-31_01h18.14.976,face trait task chi,2021.2.3,Win32,59.52380952,,,,,,,
,,,,,,,,2.918613408,3.1661,space,1.2584,0,23,23,18,1,19,image/19.jpg,0,0,,加多宝,2,2024-05-31_01h18.14.976,face trait task chi,2021.2.3,Win32,59.52380952,,,,,,,
,,,,,,,,2.013760473,5.5894,space,0.4092,0,24,24,26,1,27,image/27.jpg,0,0,,加多宝,2,2024-05-31_01h18.14.976,face trait task chi,2021.2.3,Win32,59.52380952,,,,,,,
,,,,,,,,6.982951714,2.4956,space,0.3538,0,25,25,52,1,57,image/fill_img.png,1,7,请将滑块完全移动到<右边>，以示您在专心判断。,加多宝,2,2024-05-31_01h18.14.976,face trait task chi,2021.2.3,Win32,59.52380952,,,,,,,
,,,,,,,,2.968605224,1.3505,space,0.3506,0,26,26,7,1,8,image/8.jpg,0,0,,加多宝,2,2024-05-31_01h18.14.976,face trait task chi,2021.2.3,Win32,59.52380952,,,,,,,
,,,,,,,,2.013760473,1.4039,space,0.3172,0,27,27,15,1,16,image/16.jpg,0,0,,加多宝,2,2024-05-31_01h18.14.976,face trait task chi,2021.2.3,Win32,59.52380952,,,,,,,
,,,,,,,,1.033920052,3.3352,space,2.1824,0,28,28,32,1,33,image/33.jpg,0,0,,加多宝,2,2024-05-31_01h18.14.976,face trait task chi,2021.2.3,Win32,59.52380952,,,,,,,
,,,,,,,,2.973604286,1.7715,space,0.184,0,29,29,46,1,47,image/47.jpg,0,0,,加多宝,2,2024-05-31_01h18.14.976,face trait task chi,2021.2.3,Win32,59.52380952,,,,,,,
,,,,,,,,2.983603126,5.0004,space,0.1744,0,30,30,37,1,38,image/38.jpg,0,0,,加多宝,2,2024-05-31_01h18.14.976,face trait task chi,2021.2.3,Win32,59.52380952,,,,,,,
,,,,,,,,6.987951015,2.5182,space,0.7545,0,31,31,50,1,58,image/fill_img.png,1,7,请将滑块完全移动到<右边>，以示您在专心判断。,加多宝,2,2024-05-31_01h18.14.976,face trait task chi,2021.2.3,Win32,59.52380952,,,,,,,
,,,,,,,,2.978603587,4.5726,space,0.4692,0,32,32,47,1,48,image/48.jpg,0,0,,加多宝,2,2024-05-31_01h18.14.976,face trait task chi,2021.2.3,Win32,59.52380952,,,,,,,
,,,,,,,,2.048754863,1.4034,space,0.3869,0,33,33,38,1,39,image/39.jpg,0,0,,加多宝,2,2024-05-31_01h18.14.976,face trait task chi,2021.2.3,Win32,59.52380952,,,,,,,
,,,,,,,,1.013923326,1.9842,space,0.376,0,34,34,41,1,42,image/42.jpg,0,0,,加多宝,2,2024-05-31_01h18.14.976,face trait task chi,2021.2.3,Win32,59.52380952,,,,,,,
,,,,,,,,3.01859704,1.953,space,0.8399,0,35,35,8,1,9,image/9.jpg,0,0,,加多宝,2,2024-05-31_01h18.14.976,face trait task chi,2021.2.3,Win32,59.52380952,,,,,,,
,,,,,,,,2.023759074,1.6885,space,0.3209,0,36,36,9,1,10,image/10.jpg,0,0,,加多宝,2,2024-05-31_01h18.14.976,face trait task chi,2021.2.3,Win32,59.52380952,,,,,,,
,,,,,,,,2.963605923,1.7507,space,0.2096,0,37,37,28,1,29,image/29.jpg,0,0,,加多宝,2,2024-05-31_01h18.14.976,face trait task chi,2021.2.3,Win32,59.52380952,,,,,,,
,,,,,,,,1.048917597,1.8036,space,0.3503,0,38,38,22,1,23,image/23.jpg,0,0,,加多宝,2,2024-05-31_01h18.14.976,face trait task chi,2021.2.3,Win32,59.52380952,,,,,,,
,,,,,,,,1.943771931,1.3722,space,0.1666,0,39,39,13,1,14,image/14.jpg,0,0,,加多宝,2,2024-05-31_01h18.14.976,face trait task chi,2021.2.3,Win32,59.52380952,,,,,,,
,,,,,,,,1.118906258,1.5566,space,0.2858,0,40,40,21,1,22,image/22.jpg,0,0,,加多宝,2,2024-05-31_01h18.14.976,face trait task chi,2021.2.3,Win32,59.52380952,,,,,,,
,,,,,,,,4.94828303,1.5249,space,0.5427,0,41,41,11,1,12,image/12.jpg,0,0,,加多宝,2,2024-05-31_01h18.14.976,face trait task chi,2021.2.3,Win32,59.52380952,,,,,,,
,,,,,,,,2.98860195,1.296,space,0.217,0,42,42,40,1,41,image/41.jpg,0,0,,加多宝,2,2024-05-31_01h18.14.976,face trait task chi,2021.2.3,Win32,59.52380952,,,,,,,
,,,,,,,,1.983765383,2.1061,space,0.9014,0,43,43,3,1,4,image/4.jpg,0,0,,加多宝,2,2024-05-31_01h18.14.976,face trait task chi,2021.2.3,Win32,59.52380952,,,,,,,
,,,,,,,,2.978603587,1.8699,space,0.621,0,44,44,27,1,28,image/28.jpg,0,0,,加多宝,2,2024-05-31_01h18.14.976,face trait task chi,2021.2.3,Win32,59.52380952,,,,,,,
,,,,,,,,1.083911987,1.6217,space,0.3171,0,45,45,5,1,6,image/6.jpg,0,0,,加多宝,2,2024-05-31_01h18.14.976,face trait task chi,2021.2.3,Win32,59.52380952,,,,,,,
,,,,,,,,1.993763747,2.0174,space,1.0013,0,46,46,14,1,15,image/15.jpg,0,0,,加多宝,2,2024-05-31_01h18.14.976,face trait task chi,2021.2.3,Win32,59.52380952,,,,,,,
,,,,,,,,1.953770294,1.7048,space,0.3539,0,47,47,2,1,3,image/3.jpg,0,0,,加多宝,2,2024-05-31_01h18.14.976,face trait task chi,2021.2.3,Win32,59.52380952,,,,,,,
,,,,,,,,3.023596102,1.5092,space,0.8343,0,48,48,39,1,40,image/40.jpg,0,0,,加多宝,2,2024-05-31_01h18.14.976,face trait task chi,2021.2.3,Win32,59.52380952,,,,,,,
,,,,,,,,3.043593067,4.5555,space,0.7071,0,49,49,34,1,35,image/35.jpg,0,0,,加多宝,2,2024-05-31_01h18.14.976,face trait task chi,2021.2.3,Win32,59.52380952,,,,,,,
,,,,,,,,2.048754863,2.3696,space,0.4251,0,50,50,42,1,43,image/43.jpg,0,0,,加多宝,2,2024-05-31_01h18.14.976,face trait task chi,2021.2.3,Win32,59.52380952,,,,,,,
,,,,,,,,2.983603126,4.0236,space,0.3039,0,51,51,16,1,17,image/17.jpg,0,0,,加多宝,2,2024-05-31_01h18.14.976,face trait task chi,2021.2.3,Win32,59.52380952,,,,,,,
,,,,,,,,4.988276482,4.7443,space,0.8864,0,52,52,35,1,36,image/36.jpg,0,0,,加多宝,2,2024-05-31_01h18.14.976,face trait task chi,2021.2.3,Win32,59.52380952,,,,,,,
,,,,,,,,,,,,,,,,,,,,,,加多宝,2,2024-05-31_01h18.14.976,face trait task chi,2021.2.3,Win32,59.52380952,0,2,2,2,1,2,trustworthy.png
,,,,,friendly,space,7.7354,3.003599376,2.2293,space,0.6862,0,0,0,0,1,1,image/1.jpg,0,0,,加多宝,2,2024-05-31_01h18.14.976,face trait task chi,2021.2.3,Win32,59.52380952,,,,,,,
,,,,,,,,2.053754164,2.6215,space,0.4523,0,1,1,33,1,34,image/34.jpg,0,0,,加多宝,2,2024-05-31_01h18.14.976,face trait task chi,2021.2.3,Win32,59.52380952,,,,,,,
,,,,,,,,1.018922508,1.7227,space,0.5688,0,2,2,21,1,22,image/22.jpg,0,0,,加多宝,2,2024-05-31_01h18.14.976,face trait task chi,2021.2.3,Win32,59.52380952,,,,,,,
,,,,,,,,1.043918415,2.2618,space,0.7517,0,3,3,26,1,27,image/27.jpg,0,0,,加多宝,2,2024-05-31_01h18.14.976,face trait task chi,2021.2.3,Win32,59.52380952,,,,,,,
,,,,,,,,4.968279756,2.8517,space,0.467,0,4,4,3,1,4,image/4.jpg,0,0,,加多宝,2,2024-05-31_01h18.14.976,face trait task chi,2021.2.3,Win32,59.52380952,,,,,,,
,,,,,,,,6.018109553,2.0612,space,0.3189,0,5,5,48,1,49,image/49.jpg,0,0,,加多宝,2,2024-05-31_01h18.14.976,face trait task chi,2021.2.3,Win32,59.52380952,,,,,,,
,,,,,,,,2.943609197,1.5556,space,0.1662,0,6,6,39,1,40,image/40.jpg,0,0,,加多宝,2,2024-05-31_01h18.14.976,face trait task chi,2021.2.3,Win32,59.52380952,,,,,,,
,,,,,,,,2.033757437,1.4289,space,0.1672,0,7,7,13,1,14,image/14.jpg,0,0,,加多宝,2,2024-05-31_01h18.14.976,face trait task chi,2021.2.3,Win32,59.52380952,,,,,,,
,,,,,,,,3.033594942,1.6852,space,0.0721,0,8,8,6,1,7,image/7.jpg,0,0,,加多宝,2,2024-05-31_01h18.14.976,face trait task chi,2021.2.3,Win32,59.52380952,,,,,,,
,,,,,,,,1.033920052,1.8413,space,0.3676,0,9,9,1,1,2,image/2.jpg,0,0,,加多宝,2,2024-05-31_01h18.14.976,face trait task chi,2021.2.3,Win32,59.52380952,,,,,,,
,,,,,,,,1.97376702,1.1736,space,0.1689,0,10,10,30,1,31,image/31.jpg,0,0,,加多宝,2,2024-05-31_01h18.14.976,face trait task chi,2021.2.3,Win32,59.52380952,,,,,,,
,,,,,,,,1.088911169,1.6565,space,0.2025,0,11,11,23,1,24,image/24.jpg,0,0,,加多宝,2,2024-05-31_01h18.14.976,face trait task chi,2021.2.3,Win32,59.52380952,,,,,,,
,,,,,,,,2.978603587,1.6878,space,0.8057,0,12,12,7,1,8,image/8.jpg,0,0,,加多宝,2,2024-05-31_01h18.14.976,face trait task chi,2021.2.3,Win32,59.52380952,,,,,,,
,,,,,,,,6.972953112,2.8134,space,0.6775,0,13,13,52,1,57,image/fill_img.png,1,7,请将滑块完全移动到<右边>，以示您在专心判断。,加多宝,2,2024-05-31_01h18.14.976,face trait task chi,2021.2.3,Win32,59.52380952,,,,,,,
,,,,,,,,2.023759074,1.674,space,0.3678,0,14,14,18,1,19,image/19.jpg,0,0,,加多宝,2,2024-05-31_01h18.14.976,face trait task chi,2021.2.3,Win32,59.52380952,,,,,,,
,,,,,,,,3.033594942,1.4558,space,8.7824,0,15,15,45,1,46,image/46.jpg,0,0,,加多宝,2,2024-05-31_01h18.14.976,face trait task chi,2021.2.3,Win32,59.52380952,,,,,,,
,,,,,,,,2.023759074,2.1312,space,1.319,0,16,16,27,1,28,image/28.jpg,0,0,,加多宝,2,2024-05-31_01h18.14.976,face trait task chi,2021.2.3,Win32,59.52380952,,,,,,,
,,,,,,,,6.982951714,1.7871,space,0.4672,0,17,17,50,1,58,image/fill_img.png,1,7,请将滑块完全移动到<右边>，以示您在专心判断。,加多宝,2,2024-05-31_01h18.14.976,face trait task chi,2021.2.3,Win32,59.52380952,,,,,,,
,,,,,,,,2.98860195,1.7736,space,0.2202,0,18,18,31,1,32,image/32.jpg,0,0,,加多宝,2,2024-05-31_01h18.14.976,face trait task chi,2021.2.3,Win32,59.52380952,,,,,,,
,,,,,,,,4.998274607,3.3168,space,0.8517,0,19,19,20,1,21,image/21.jpg,0,0,,加多宝,2,2024-05-31_01h18.14.976,face trait task chi,2021.2.3,Win32,59.52380952,,,,,,,
,,,,,,,,2.028758137,1.9232,space,1.0177,0,20,20,42,1,43,image/43.jpg,0,0,,加多宝,2,2024-05-31_01h18.14.976,face trait task chi,2021.2.3,Win32,59.52380952,,,,,,,
,,,,,,,,3.013597739,1.6354,space,0.3179,0,21,21,16,1,17,image/17.jpg,0,0,,加多宝,2,2024-05-31_01h18.14.976,face trait task chi,2021.2.3,Win32,59.52380952,,,,,,,
,,,,,,,,1.018922508,2.517,space,0.9697,0,22,22,17,1,18,image/18.jpg,0,0,,加多宝,2,2024-05-31_01h18.14.976,face trait task chi,2021.2.3,Win32,59.52380952,,,,,,,
,,,,,,,,2.998600313,2.2555,space,0.6697,0,23,23,44,1,45,image/45.jpg,0,0,,加多宝,2,2024-05-31_01h18.14.976,face trait task chi,2021.2.3,Win32,59.52380952,,,,,,,
,,,,,,,,1.988764684,1.4534,space,1.2032,0,24,24,5,1,6,image/6.jpg,0,0,,加多宝,2,2024-05-31_01h18.14.976,face trait task chi,2021.2.3,Win32,59.52380952,,,,,,,
,,,,,,,,4.988276482,1.8505,space,0.7004,0,25,25,4,1,5,image/5.jpg,0,0,,加多宝,2,2024-05-31_01h18.14.976,face trait task chi,2021.2.3,Win32,59.52380952,,,,,,,
,,,,,,,,3.023596102,2.3364,space,0.2931,0,26,26,40,1,41,image/41.jpg,0,0,,加多宝,2,2024-05-31_01h18.14.976,face trait task chi,2021.2.3,Win32,59.52380952,,,,,,,
,,,,,,,,2.973604286,2.7638,space,0.65,0,27,27,24,1,25,image/25.jpg,0,0,,加多宝,2,2024-05-31_01h18.14.976,face trait task chi,2021.2.3,Win32,59.52380952,,,,,,,
,,,,,,,,1.993763747,1.6877,space,0.6013,0,28,28,29,1,30,image/30.jpg,0,0,,加多宝,2,2024-05-31_01h18.14.976,face trait task chi,2021.2.3,Win32,59.52380952,,,,,,,
,,,,,,,,3.028595403,1.2407,space,0.3587,0,29,29,37,1,38,image/38.jpg,0,0,,加多宝,2,2024-05-31_01h18.14.976,face trait task chi,2021.2.3,Win32,59.52380952,,,,,,,
,,,,,,,,5.018271333,1.3564,space,0.1032,0,30,30,11,1,12,image/12.jpg,0,0,,加多宝,2,2024-05-31_01h18.14.976,face trait task chi,2021.2.3,Win32,59.52380952,,,,,,,
,,,,,,,,6.033106502,1.6034,space,0.4229,0,31,31,43,1,44,image/44.jpg,0,0,,加多宝,2,2024-05-31_01h18.14.976,face trait task chi,2021.2.3,Win32,59.52380952,,,,,,,
,,,,,,,,5.008273209,3.7428,space,2.27,0,32,32,35,1,36,image/36.jpg,0,0,,加多宝,2,2024-05-31_01h18.14.976,face trait task chi,2021.2.3,Win32,59.52380952,,,,,,,
,,,,,,,,2.983603126,1.5214,space,0.2046,0,33,33,36,1,37,image/37.jpg,0,0,,加多宝,2,2024-05-31_01h18.14.976,face trait task chi,2021.2.3,Win32,59.52380952,,,,,,,
,,,,,,,,2.058753226,1.5409,space,2.0677,0,34,34,19,1,20,image/20.jpg,0,0,,加多宝,2,2024-05-31_01h18.14.976,face trait task chi,2021.2.3,Win32,59.52380952,,,,,,,
,,,,,,,,1,1.9178,space,0.7862,0,35,35,22,1,23,image/23.jpg,0,0,,加多宝,2,2024-05-31_01h18.14.976,face trait task chi,2021.2.3,Win32,59.52380952,,,,,,,
,,,,,,,,1.993763747,1.4725,space,0.2677,0,36,36,38,1,39,image/39.jpg,0,0,,加多宝,2,2024-05-31_01h18.14.976,face trait task chi,2021.2.3,Win32,59.52380952,,,,,,,
,,,,,,,,4.988276482,1.5391,space,0.2572,0,37,37,2,1,3,image/3.jpg,0,0,,加多宝,2,2024-05-31_01h18.14.976,face trait task chi,2021.2.3,Win32,59.52380952,,,,,,,
,,,,,,,,2.968605224,2.5899,space,1.201,0,38,38,12,1,13,image/13.jpg,0,0,,加多宝,2,2024-05-31_01h18.14.976,face trait task chi,2021.2.3,Win32,59.52380952,,,,,,,
,,,,,,,,5.008273209,2.8891,space,1.0036,0,39,39,49,1,50,image/50.jpg,0,0,,加多宝,2,2024-05-31_01h18.14.976,face trait task chi,2021.2.3,Win32,59.52380952,,,,,,,
,,,,,,,,1.983765383,1.4216,space,0.3674,0,40,40,15,1,16,image/16.jpg,0,0,,加多宝,2,2024-05-31_01h18.14.976,face trait task chi,2021.2.3,Win32,59.52380952,,,,,,,
,,,,,,,,6.952956386,1.7553,space,0.3852,0,41,41,51,1,58,image/fill_img.png,1,7,请将滑块完全移动到<右边>，以示您在专心判断。,加多宝,2,2024-05-31_01h18.14.976,face trait task chi,2021.2.3,Win32,59.52380952,,,,,,,
,,,,,,,,3.013597739,1.5667,space,0.0048,0,42,42,8,1,9,image/9.jpg,0,0,,加多宝,2,2024-05-31_01h18.14.976,face trait task chi,2021.2.3,Win32,59.52380952,,,,,,,
,,,,,,,,2.018759774,1.595,space,0.3239,0,43,43,25,1,26,image/26.jpg,0,0,,加多宝,2,2024-05-31_01h18.14.976,face trait task chi,2021.2.3,Win32,59.52380952,,,,,,,
,,,,,,,,2.963605923,1.7733,space,0.3335,0,44,44,47,1,48,image/48.jpg,0,0,,加多宝,2,2024-05-31_01h18.14.976,face trait task chi,2021.2.3,Win32,59.52380952,,,,,,,
,,,,,,,,5.003273908,2.4874,space,1.337,0,45,45,34,1,35,image/35.jpg,0,0,,加多宝,2,2024-05-31_01h18.14.976,face trait task chi,2021.2.3,Win32,59.52380952,,,,,,,
,,,,,,,,2.993601013,1.5241,space,0.3259,0,46,46,46,1,47,image/47.jpg,0,0,,加多宝,2,2024-05-31_01h18.14.976,face trait task chi,2021.2.3,Win32,59.52380952,,,,,,,
,,,,,,,,2.043755801,1.6715,space,0.3674,0,47,47,41,1,42,image/42.jpg,0,0,,加多宝,2,2024-05-31_01h18.14.976,face trait task chi,2021.2.3,Win32,59.52380952,,,,,,,
,,,,,,,,1.043918415,1.5773,space,0.2576,0,48,48,9,1,10,image/10.jpg,0,0,,加多宝,2,2024-05-31_01h18.14.976,face trait task chi,2021.2.3,Win32,59.52380952,,,,,,,
,,,,,,,,2.023759074,1.6046,space,0.3531,0,49,49,32,1,33,image/33.jpg,0,0,,加多宝,2,2024-05-31_01h18.14.976,face trait task chi,2021.2.3,Win32,59.52380952,,,,,,,
,,,,,,,,1.013923326,2.1874,space,0.3699,0,50,50,10,1,11,image/11.jpg,0,0,,加多宝,2,2024-05-31_01h18.14.976,face trait task chi,2021.2.3,Win32,59.52380952,,,,,,,
,,,,,,,,3.003599376,2.3315,space,1.1199,0,51,51,14,1,15,image/15.jpg,0,0,,加多宝,2,2024-05-31_01h18.14.976,face trait task chi,2021.2.3,Win32,59.52380952,,,,,,,
,,,,,,,,1.988764684,1.5886,space,0.4198,0,52,52,28,1,29,image/29.jpg,0,0,,加多宝,2,2024-05-31_01h18.14.976,face trait task chi,2021.2.3,Win32,59.52380952,,,,,,,
,,,,,,,,,,,,,,,,,,,,,,加多宝,2,2024-05-31_01h18.14.976,face trait task chi,2021.2.3,Win32,59.52380952,0,3,3,3,1,3,friendly.png