﻿choose_trial,key_resp.keys,key_resp.rt,key_resp_4.keys,key_resp_4.rt,session_trait,key_resp_5.keys,key_resp_5.rt,slider_face_judge.response,slider_face_judge.rt,key_resp_3.keys,key_resp_3.rt,face_loop.thisRepN,face_loop.thisTrialN,face_loop.thisN,face_loop.thisIndex,face_loop.ran,face_serial,image_name,isCheck,answer,check_question,participant,session,date,expName,psychopyVersion,OS,frameRate,session.thisRepN,session.thisTrialN,session.thisN,session.thisIndex,session.ran,session_serial,slider_judge_img
"[0,1,2,3,4,5,6,7,8,9,10,11,12,13,14,15,16,17,18,19,20,21,22,23,24,25,26,27,28,29,30,31,32,33,34,35,36,37,38,39,40,41,42,43,44,45,46,47,48,49,57,53,57]",space,24.3681,space,1.6448,trustworthy,space,939.3962,3.053275782,3.1245,space,0.3338,0,0,0,44,1,45,image/45.jpg,0,0,,繁星点点,2,2024-05-31_01h17.54.853,face trait task chi,2021.2.3,Win32,60.24096386,,,,,,,
,,,,,,,,2.966577022,3.1779,space,0.3686,0,1,1,28,1,29,image/29.jpg,0,0,,繁星点点,2,2024-05-31_01h17.54.853,face trait task chi,2021.2.3,Win32,60.24096386,,,,,,,
,,,,,,,,1.988117079,2.5285,space,0.4008,0,2,2,39,1,40,image/40.jpg,0,0,,繁星点点,2,2024-05-31_01h17.54.853,face trait task chi,2021.2.3,Win32,60.24096386,,,,,,,
,,,,,,,,1.022042668,7.0758,space,1.2996,0,3,3,51,1,54,image/fill_img.png,1,1,请将滑块完全移动到<左边>，以示您在专心判断。,繁星点点,2,2024-05-31_01h17.54.853,face trait task chi,2021.2.3,Win32,60.24096386,,,,,,,
,,,,,,,,2.756022184,3.2877,space,1.483,0,4,4,41,1,42,image/42.jpg,0,0,,繁星点点,2,2024-05-31_01h17.54.853,face trait task chi,2021.2.3,Win32,60.24096386,,,,,,,
,,,,,,,,2.991348003,4.6574,space,0.7166,0,5,5,26,1,27,image/27.jpg,0,0,,繁星点点,2,2024-05-31_01h17.54.853,face trait task chi,2021.2.3,Win32,60.24096386,,,,,,,
,,,,,,,,2.997540976,4.3665,space,0.1751,0,6,6,47,1,48,image/48.jpg,0,0,,繁星点点,2,2024-05-31_01h17.54.853,face trait task chi,2021.2.3,Win32,60.24096386,,,,,,,
,,,,,,,,6.985187163,4.3287,space,1.3545,0,7,7,52,1,58,image/fill_img.png,1,7,请将滑块完全移动到<右边>，以示您在专心判断。,繁星点点,2,2024-05-31_01h17.54.853,face trait task chi,2021.2.3,Win32,60.24096386,,,,,,,
,,,,,,,,3.0285048,3.9477,space,1.8904,0,8,8,37,1,38,image/38.jpg,0,0,,繁星点点,2,2024-05-31_01h17.54.853,face trait task chi,2021.2.3,Win32,60.24096386,,,,,,,
,,,,,,,,3.034697513,2.4287,space,0.5336,0,9,9,3,1,4,image/4.jpg,0,0,,繁星点点,2,2024-05-31_01h17.54.853,face trait task chi,2021.2.3,Win32,60.24096386,,,,,,,
,,,,,,,,3.047083069,4.4435,space,0.2173,0,10,10,13,1,14,image/14.jpg,0,0,,繁星点点,2,2024-05-31_01h17.54.853,face trait task chi,2021.2.3,Win32,60.24096386,,,,,,,
,,,,,,,,3.022311828,4.2508,space,0.3507,0,11,11,14,1,15,image/15.jpg,0,0,,繁星点点,2,2024-05-31_01h17.54.853,face trait task chi,2021.2.3,Win32,60.24096386,,,,,,,
,,,,,,,,1.969538615,6.7753,space,0.8229,0,12,12,42,1,43,image/43.jpg,0,0,,繁星点点,2,2024-05-31_01h17.54.853,face trait task chi,2021.2.3,Win32,60.24096386,,,,,,,
,,,,,,,,5.982462378,2.6352,space,0.2836,0,13,13,49,1,50,image/50.jpg,0,0,,繁星点点,2,2024-05-31_01h17.54.853,face trait task chi,2021.2.3,Win32,60.24096386,,,,,,,
,,,,,,,,2.050044923,3.8847,space,0.5172,0,14,14,27,1,28,image/28.jpg,0,0,,繁星点点,2,2024-05-31_01h17.54.853,face trait task chi,2021.2.3,Win32,60.24096386,,,,,,,
,,,,,,,,2.006695348,5.3842,space,1.2331,0,15,15,20,1,21,image/21.jpg,0,0,,繁星点点,2,2024-05-31_01h17.54.853,face trait task chi,2021.2.3,Win32,60.24096386,,,,,,,
,,,,,,,,4.97303874,3.3425,space,0.3008,0,16,16,34,1,35,image/35.jpg,0,0,,繁星点点,2,2024-05-31_01h17.54.853,face trait task chi,2021.2.3,Win32,60.24096386,,,,,,,
,,,,,,,,2.978962447,5.5321,space,2.2344,0,17,17,40,1,41,image/41.jpg,0,0,,繁星点点,2,2024-05-31_01h17.54.853,face trait task chi,2021.2.3,Win32,60.24096386,,,,,,,
,,,,,,,,3.034697513,6.3375,space,0.2019,0,18,18,31,1,32,image/32.jpg,0,0,,繁星点点,2,2024-05-31_01h17.54.853,face trait task chi,2021.2.3,Win32,60.24096386,,,,,,,
,,,,,,,,2.074815969,2.3209,space,0.4005,0,19,19,32,1,33,image/33.jpg,0,0,,繁星点点,2,2024-05-31_01h17.54.853,face trait task chi,2021.2.3,Win32,60.24096386,,,,,,,
,,,,,,,,2.978962447,2.6537,space,0.2329,0,20,20,0,1,1,image/1.jpg,0,0,,繁星点点,2,2024-05-31_01h17.54.853,face trait task chi,2021.2.3,Win32,60.24096386,,,,,,,
,,,,,,,,2.978962447,3.8249,space,1.9992,0,21,21,5,1,6,image/6.jpg,0,0,,繁星点点,2,2024-05-31_01h17.54.853,face trait task chi,2021.2.3,Win32,60.24096386,,,,,,,
,,,,,,,,6.013426722,3.6855,space,1.6062,0,22,22,35,1,36,image/36.jpg,0,0,,繁星点点,2,2024-05-31_01h17.54.853,face trait task chi,2021.2.3,Win32,60.24096386,,,,,,,
,,,,,,,,2.050044923,1.6703,space,0.4225,0,23,23,30,1,31,image/31.jpg,0,0,,繁星点点,2,2024-05-31_01h17.54.853,face trait task chi,2021.2.3,Win32,60.24096386,,,,,,,
,,,,,,,,2.98515516,2.1685,space,0.4841,0,24,24,1,1,2,image/2.jpg,0,0,,繁星点点,2,2024-05-31_01h17.54.853,face trait task chi,2021.2.3,Win32,60.24096386,,,,,,,
,,,,,,,,2.074815969,3.8011,space,0.3672,0,25,25,24,1,25,image/25.jpg,0,0,,繁星点点,2,2024-05-31_01h17.54.853,face trait task chi,2021.2.3,Win32,60.24096386,,,,,,,
,,,,,,,,3.003733559,5.4413,space,0.4174,0,26,26,8,1,9,image/9.jpg,0,0,,繁星点点,2,2024-05-31_01h17.54.853,face trait task chi,2021.2.3,Win32,60.24096386,,,,,,,
,,,,,,,,1.944767504,4.3004,space,2.3169,0,27,27,12,1,13,image/13.jpg,0,0,,繁星点点,2,2024-05-31_01h17.54.853,face trait task chi,2021.2.3,Win32,60.24096386,,,,,,,
,,,,,,,,1.028235453,4.6928,space,0.6533,0,28,28,29,1,30,image/30.jpg,0,0,,繁星点点,2,2024-05-31_01h17.54.853,face trait task chi,2021.2.3,Win32,60.24096386,,,,,,,
,,,,,,,,6.985187163,4.5863,space,2.2288,0,29,29,50,1,58,image/fill_img.png,1,7,请将滑块完全移动到<右边>，以示您在专心判断。,繁星点点,2,2024-05-31_01h17.54.853,face trait task chi,2021.2.3,Win32,60.24096386,,,,,,,
,,,,,,,,2.978962447,4.2519,space,0.1407,0,30,30,38,1,39,image/39.jpg,0,0,,繁星点点,2,2024-05-31_01h17.54.853,face trait task chi,2021.2.3,Win32,60.24096386,,,,,,,
,,,,,,,,2.966577022,3.4042,space,0.2251,0,31,31,15,1,16,image/16.jpg,0,0,,繁星点点,2,2024-05-31_01h17.54.853,face trait task chi,2021.2.3,Win32,60.24096386,,,,,,,
,,,,,,,,4.991617139,5.3181,space,0.6337,0,32,32,48,1,49,image/49.jpg,0,0,,繁星点点,2,2024-05-31_01h17.54.853,face trait task chi,2021.2.3,Win32,60.24096386,,,,,,,
,,,,,,,,2.910841826,2.5526,space,0.4525,0,33,33,22,1,23,image/23.jpg,0,0,,繁星点点,2,2024-05-31_01h17.54.853,face trait task chi,2021.2.3,Win32,60.24096386,,,,,,,
,,,,,,,,1.963345837,3.091,space,0.3838,0,34,34,9,1,10,image/10.jpg,0,0,,繁星点点,2,2024-05-31_01h17.54.853,face trait task chi,2021.2.3,Win32,60.24096386,,,,,,,
,,,,,,,,1.040621021,2.6401,space,0.4829,0,35,35,7,1,8,image/8.jpg,0,0,,繁星点点,2,2024-05-31_01h17.54.853,face trait task chi,2021.2.3,Win32,60.24096386,,,,,,,
,,,,,,,,5.994848323,3.4942,space,0.4209,0,36,36,11,1,12,image/12.jpg,0,0,,繁星点点,2,2024-05-31_01h17.54.853,face trait task chi,2021.2.3,Win32,60.24096386,,,,,,,
,,,,,,,,5.004002825,3.57,space,0.3956,0,37,37,2,1,3,image/3.jpg,0,0,,繁星点点,2,2024-05-31_01h17.54.853,face trait task chi,2021.2.3,Win32,60.24096386,,,,,,,
,,,,,,,,5.90195633,2.821,space,0.4832,0,38,38,4,1,5,image/5.jpg,0,0,,繁星点点,2,2024-05-31_01h17.54.853,face trait task chi,2021.2.3,Win32,60.24096386,,,,,,,
,,,,,,,,4.92968923,4.454,space,0.3863,0,39,39,17,1,18,image/18.jpg,0,0,,繁星点点,2,2024-05-31_01h17.54.853,face trait task chi,2021.2.3,Win32,60.24096386,,,,,,,
,,,,,,,,3.065661338,1.6148,space,0.6681,0,40,40,33,1,34,image/34.jpg,0,0,,繁星点点,2,2024-05-31_01h17.54.853,face trait task chi,2021.2.3,Win32,60.24096386,,,,,,,
,,,,,,,,1.969538615,3.6167,space,2.7509,0,41,41,16,1,17,image/17.jpg,0,0,,繁星点点,2,2024-05-31_01h17.54.853,face trait task chi,2021.2.3,Win32,60.24096386,,,,,,,
,,,,,,,,4.979231713,6.0359,space,0.4005,0,42,42,43,1,44,image/44.jpg,0,0,,繁星点点,2,2024-05-31_01h17.54.853,face trait task chi,2021.2.3,Win32,60.24096386,,,,,,,
,,,,,,,,2.05623757,1.6493,space,0.5338,0,43,43,18,1,19,image/19.jpg,0,0,,繁星点点,2,2024-05-31_01h17.54.853,face trait task chi,2021.2.3,Win32,60.24096386,,,,,,,
,,,,,,,,2.006695348,7.2662,space,0.6345,0,44,44,23,1,24,image/24.jpg,0,0,,繁星点点,2,2024-05-31_01h17.54.853,face trait task chi,2021.2.3,Win32,60.24096386,,,,,,,
,,,,,,,,1.022042668,5.1947,space,3.0663,0,45,45,19,1,20,image/20.jpg,0,0,,繁星点点,2,2024-05-31_01h17.54.853,face trait task chi,2021.2.3,Win32,60.24096386,,,,,,,
,,,,,,,,3.003733559,1.9843,space,0.567,0,46,46,25,1,26,image/26.jpg,0,0,,繁星点点,2,2024-05-31_01h17.54.853,face trait task chi,2021.2.3,Win32,60.24096386,,,,,,,
,,,,,,,,2.025273681,3.2894,space,0.8842,0,47,47,10,1,11,image/11.jpg,0,0,,繁星点点,2,2024-05-31_01h17.54.853,face trait task chi,2021.2.3,Win32,60.24096386,,,,,,,
,,,,,,,,3.003733559,5.1267,space,0.3506,0,48,48,45,1,46,image/46.jpg,0,0,,繁星点点,2,2024-05-31_01h17.54.853,face trait task chi,2021.2.3,Win32,60.24096386,,,,,,,
,,,,,,,,2.006695348,5.4111,space,0.2737,0,49,49,46,1,47,image/47.jpg,0,0,,繁星点点,2,2024-05-31_01h17.54.853,face trait task chi,2021.2.3,Win32,60.24096386,,,,,,,
,,,,,,,,5.065930473,4.873,space,0.6297,0,50,50,36,1,37,image/37.jpg,0,0,,繁星点点,2,2024-05-31_01h17.54.853,face trait task chi,2021.2.3,Win32,60.24096386,,,,,,,
,,,,,,,,3.016119115,4.7275,space,0.4333,0,51,51,21,1,22,image/22.jpg,0,0,,繁星点点,2,2024-05-31_01h17.54.853,face trait task chi,2021.2.3,Win32,60.24096386,,,,,,,
,,,,,,,,3.0285048,5.4313,space,0.1838,0,52,52,6,1,7,image/7.jpg,0,0,,繁星点点,2,2024-05-31_01h17.54.853,face trait task chi,2021.2.3,Win32,60.24096386,,,,,,,
,,,,,,,,,,,,,,,,,,,,,,繁星点点,2,2024-05-31_01h17.54.853,face trait task chi,2021.2.3,Win32,60.24096386,0,0,0,2,1,2,trustworthy.png
,,,,,critical,space,206.3811,4.999427212,3.451,space,0.5341,0,0,0,24,1,25,image/25.jpg,0,0,,繁星点点,2,2024-05-31_01h17.54.853,face trait task chi,2021.2.3,Win32,60.24096386,,,,,,,
,,,,,,,,3.035552813,4.9001,space,0.3837,0,1,1,41,1,42,image/42.jpg,0,0,,繁星点点,2,2024-05-31_01h17.54.853,face trait task chi,2021.2.3,Win32,60.24096386,,,,,,,
,,,,,,,,2.036125314,2.4766,space,0.9224,0,2,2,3,1,4,image/4.jpg,0,0,,繁星点点,2,2024-05-31_01h17.54.853,face trait task chi,2021.2.3,Win32,60.24096386,,,,,,,
,,,,,,,,6.003851581,2.505,space,0.9997,0,3,3,5,1,6,image/6.jpg,0,0,,繁星点点,2,2024-05-31_01h17.54.853,face trait task chi,2021.2.3,Win32,60.24096386,,,,,,,
,,,,,,,,4.984435766,2.0587,space,0.4924,0,4,4,32,1,33,image/33.jpg,0,0,,繁星点点,2,2024-05-31_01h17.54.853,face trait task chi,2021.2.3,Win32,60.24096386,,,,,,,
,,,,,,,,3.015564079,2.2873,space,0.1232,0,5,5,43,1,44,image/44.jpg,0,0,,繁星点点,2,2024-05-31_01h17.54.853,face trait task chi,2021.2.3,Win32,60.24096386,,,,,,,
,,,,,,,,6.023839896,2.97,space,1.5157,0,6,6,39,1,40,image/40.jpg,0,0,,繁星点点,2,2024-05-31_01h17.54.853,face trait task chi,2021.2.3,Win32,60.24096386,,,,,,,
,,,,,,,,4.984435766,1.3753,space,0.154,0,7,7,49,1,50,image/50.jpg,0,0,,繁星点点,2,2024-05-31_01h17.54.853,face trait task chi,2021.2.3,Win32,60.24096386,,,,,,,
,,,,,,,,5.983862846,4.2273,space,0.1453,0,8,8,12,1,13,image/13.jpg,0,0,,繁星点点,2,2024-05-31_01h17.54.853,face trait task chi,2021.2.3,Win32,60.24096386,,,,,,,
,,,,,,,,3.05054384,2.2501,space,1.6666,0,9,9,0,1,1,image/1.jpg,0,0,,繁星点点,2,2024-05-31_01h17.54.853,face trait task chi,2021.2.3,Win32,60.24096386,,,,,,,
,,,,,,,,2.08609673,5.1595,space,2.5669,0,10,10,2,1,3,image/3.jpg,0,0,,繁星点点,2,2024-05-31_01h17.54.853,face trait task chi,2021.2.3,Win32,60.24096386,,,,,,,
,,,,,,,,2.965592452,2.9316,space,1.51,0,11,11,38,1,39,image/39.jpg,0,0,,繁星点点,2,2024-05-31_01h17.54.853,face trait task chi,2021.2.3,Win32,60.24096386,,,,,,,
,,,,,,,,1.976159739,1.4704,space,1.3674,0,12,12,46,1,47,image/47.jpg,0,0,,繁星点点,2,2024-05-31_01h17.54.853,face trait task chi,2021.2.3,Win32,60.24096386,,,,,,,
,,,,,,,,1.021706787,8.4492,space,0.3515,0,13,13,47,1,48,image/48.jpg,0,0,,繁星点点,2,2024-05-31_01h17.54.853,face trait task chi,2021.2.3,Win32,60.24096386,,,,,,,
,,,,,,,,2.965592452,1.4473,space,0.3166,0,14,14,9,1,10,image/10.jpg,0,0,,繁星点点,2,2024-05-31_01h17.54.853,face trait task chi,2021.2.3,Win32,60.24096386,,,,,,,
,,,,,,,,2.056113838,1.3593,space,0.3016,0,15,15,42,1,43,image/43.jpg,0,0,,繁星点点,2,2024-05-31_01h17.54.853,face trait task chi,2021.2.3,Win32,60.24096386,,,,,,,
,,,,,,,,3.045546971,1.2528,space,0.4171,0,16,16,21,1,22,image/22.jpg,0,0,,繁星点点,2,2024-05-31_01h17.54.853,face trait task chi,2021.2.3,Win32,60.24096386,,,,,,,
,,,,,,,,1.031701155,2.6632,space,0.8508,0,17,17,28,1,29,image/29.jpg,0,0,,繁星点点,2,2024-05-31_01h17.54.853,face trait task chi,2021.2.3,Win32,60.24096386,,,,,,,
,,,,,,,,2.001145343,3.954,space,0.7185,0,18,18,35,1,36,image/36.jpg,0,0,,繁星点点,2,2024-05-31_01h17.54.853,face trait task chi,2021.2.3,Win32,60.24096386,,,,,,,
,,,,,,,,2.950601425,1.6905,space,0.838,0,19,19,22,1,23,image/23.jpg,0,0,,繁星点点,2,2024-05-31_01h17.54.853,face trait task chi,2021.2.3,Win32,60.24096386,,,,,,,
,,,,,,,,1.116652333,1.694,space,1.1508,0,20,20,44,1,45,image/45.jpg,0,0,,繁星点点,2,2024-05-31_01h17.54.853,face trait task chi,2021.2.3,Win32,60.24096386,,,,,,,
,,,,,,,,1.971162451,8.8538,space,1.3509,0,21,21,26,1,27,image/27.jpg,0,0,,繁星点点,2,2024-05-31_01h17.54.853,face trait task chi,2021.2.3,Win32,60.24096386,,,,,,,
,,,,,,,,3.030555525,2.2574,space,0.3524,0,22,22,40,1,41,image/41.jpg,0,0,,繁星点点,2,2024-05-31_01h17.54.853,face trait task chi,2021.2.3,Win32,60.24096386,,,,,,,
,,,,,,,,6.003851581,2.5535,space,0.8406,0,23,23,27,1,28,image/28.jpg,0,0,,繁星点点,2,2024-05-31_01h17.54.853,face trait task chi,2021.2.3,Win32,60.24096386,,,,,,,
,,,,,,,,5.00942137,1.4581,space,0.2362,0,24,24,30,1,31,image/31.jpg,0,0,,繁星点点,2,2024-05-31_01h17.54.853,face trait task chi,2021.2.3,Win32,60.24096386,,,,,,,
,,,,,,,,1.021706787,2.8083,space,1.8593,0,25,25,51,1,54,image/fill_img.png,1,1,请将滑块完全移动到<左边>，以示您在专心判断。,繁星点点,2,2024-05-31_01h17.54.853,face trait task chi,2021.2.3,Win32,60.24096386,,,,,,,
,,,,,,,,5.024412816,2.2027,space,1.0353,0,26,26,1,1,2,image/2.jpg,0,0,,繁星点点,2,2024-05-31_01h17.54.853,face trait task chi,2021.2.3,Win32,60.24096386,,,,,,,
,,,,,,,,5.958877243,2.1732,space,0.4374,0,27,27,25,1,26,image/26.jpg,0,0,,繁星点点,2,2024-05-31_01h17.54.853,face trait task chi,2021.2.3,Win32,60.24096386,,,,,,,
,,,,,,,,4.989432635,1.854,space,0.434,0,28,28,36,1,37,image/37.jpg,0,0,,繁星点点,2,2024-05-31_01h17.54.853,face trait task chi,2021.2.3,Win32,60.24096386,,,,,,,
,,,,,,,,4.989432635,5.1257,space,0.5189,0,29,29,11,1,12,image/12.jpg,0,0,,繁星点点,2,2024-05-31_01h17.54.853,face trait task chi,2021.2.3,Win32,60.24096386,,,,,,,
,,,,,,,,3.010567209,2.0752,space,0.3682,0,30,30,31,1,32,image/32.jpg,0,0,,繁星点点,2,2024-05-31_01h17.54.853,face trait task chi,2021.2.3,Win32,60.24096386,,,,,,,
,,,,,,,,2.01113971,2.8654,space,0.7416,0,31,31,48,1,49,image/49.jpg,0,0,,繁星点点,2,2024-05-31_01h17.54.853,face trait task chi,2021.2.3,Win32,60.24096386,,,,,,,
,,,,,,,,4.984435766,5.7304,space,0.3845,0,32,32,18,1,19,image/19.jpg,0,0,,繁星点点,2,2024-05-31_01h17.54.853,face trait task chi,2021.2.3,Win32,60.24096386,,,,,,,
,,,,,,,,4.984435766,7.6715,space,0.8175,0,33,33,19,1,20,image/20.jpg,0,0,,繁星点点,2,2024-05-31_01h17.54.853,face trait task chi,2021.2.3,Win32,60.24096386,,,,,,,
,,,,,,,,4.999427212,4.3986,space,2.9502,0,34,34,29,1,30,image/30.jpg,0,0,,繁星点点,2,2024-05-31_01h17.54.853,face trait task chi,2021.2.3,Win32,60.24096386,,,,,,,
,,,,,,,,6.003851581,2.4895,space,1.2329,0,35,35,17,1,18,image/18.jpg,0,0,,繁星点点,2,2024-05-31_01h17.54.853,face trait task chi,2021.2.3,Win32,60.24096386,,,,,,,
,,,,,,,,2.97058974,2.1812,space,0.5004,0,36,36,4,1,5,image/5.jpg,0,0,,繁星点点,2,2024-05-31_01h17.54.853,face trait task chi,2021.2.3,Win32,60.24096386,,,,,,,
,,,,,,,,1.981156818,3.3242,space,0.6186,0,37,37,34,1,35,image/35.jpg,0,0,,繁星点点,2,2024-05-31_01h17.54.853,face trait task chi,2021.2.3,Win32,60.24096386,,,,,,,
,,,,,,,,2.965592452,7.4667,space,0.3375,0,38,38,13,1,14,image/14.jpg,0,0,,繁星点点,2,2024-05-31_01h17.54.853,face trait task chi,2021.2.3,Win32,60.24096386,,,,,,,
,,,,,,,,7,2.7031,space,1.4346,0,39,39,50,1,58,image/fill_img.png,1,7,请将滑块完全移动到<右边>，以示您在专心判断。,繁星点点,2,2024-05-31_01h17.54.853,face trait task chi,2021.2.3,Win32,60.24096386,,,,,,,
,,,,,,,,2.980583898,3.6299,space,0.3668,0,40,40,33,1,34,image/34.jpg,0,0,,繁星点点,2,2024-05-31_01h17.54.853,face trait task chi,2021.2.3,Win32,60.24096386,,,,,,,
,,,,,,,,4.959450162,2.7049,space,1.168,0,41,41,8,1,9,image/9.jpg,0,0,,繁星点点,2,2024-05-31_01h17.54.853,face trait task chi,2021.2.3,Win32,60.24096386,,,,,,,
,,,,,,,,2.016136789,1.5191,space,0.2886,0,42,42,7,1,8,image/8.jpg,0,0,,繁星点点,2,2024-05-31_01h17.54.853,face trait task chi,2021.2.3,Win32,60.24096386,,,,,,,
,,,,,,,,1.001718053,2.2706,space,0.3549,0,43,43,14,1,15,image/15.jpg,0,0,,繁星点点,2,2024-05-31_01h17.54.853,face trait task chi,2021.2.3,Win32,60.24096386,,,,,,,
,,,,,,,,2.985581606,2.4272,space,1.1834,0,44,44,6,1,7,image/7.jpg,0,0,,繁星点点,2,2024-05-31_01h17.54.853,face trait task chi,2021.2.3,Win32,60.24096386,,,,,,,
,,,,,,,,2.021133868,1.7101,space,0.5008,0,45,45,45,1,46,image/46.jpg,0,0,,繁星点点,2,2024-05-31_01h17.54.853,face trait task chi,2021.2.3,Win32,60.24096386,,,,,,,
,,,,,,,,6.978292638,1.8496,space,34.5349,0,46,46,52,1,58,image/fill_img.png,1,7,请将滑块完全移动到<右边>，以示您在专心判断。,繁星点点,2,2024-05-31_01h17.54.853,face trait task chi,2021.2.3,Win32,60.24096386,,,,,,,
,,,,,,,,5.00942137,2.7461,space,2.884,0,47,47,37,1,38,image/38.jpg,0,0,,繁星点点,2,2024-05-31_01h17.54.853,face trait task chi,2021.2.3,Win32,60.24096386,,,,,,,
,,,,,,,,3.020560948,4.2078,space,0.652,0,48,48,15,1,16,image/16.jpg,0,0,,繁星点点,2,2024-05-31_01h17.54.853,face trait task chi,2021.2.3,Win32,60.24096386,,,,,,,
,,,,,,,,2.05111676,3.8018,space,0.1738,0,49,49,23,1,24,image/24.jpg,0,0,,繁星点点,2,2024-05-31_01h17.54.853,face trait task chi,2021.2.3,Win32,60.24096386,,,,,,,
,,,,,,,,4.994429924,3.0086,space,0.8832,0,50,50,20,1,21,image/21.jpg,0,0,,繁星点点,2,2024-05-31_01h17.54.853,face trait task chi,2021.2.3,Win32,60.24096386,,,,,,,
,,,,,,,,3.055541128,4.0232,space,0.4722,0,51,51,16,1,17,image/17.jpg,0,0,,繁星点点,2,2024-05-31_01h17.54.853,face trait task chi,2021.2.3,Win32,60.24096386,,,,,,,
,,,,,,,,3.040549682,4.2073,space,5.4998,0,52,52,10,1,11,image/11.jpg,0,0,,繁星点点,2,2024-05-31_01h17.54.853,face trait task chi,2021.2.3,Win32,60.24096386,,,,,,,
,,,,,,,,,,,,,,,,,,,,,,繁星点点,2,2024-05-31_01h17.54.853,face trait task chi,2021.2.3,Win32,60.24096386,0,1,1,0,1,0,critical.png
,,,,,friendly,space,10.1893,3.005569921,3.3738,space,0.3636,0,0,0,17,1,18,image/18.jpg,0,0,,繁星点点,2,2024-05-31_01h17.54.853,face trait task chi,2021.2.3,Win32,60.24096386,,,,,,,
,,,,,,,,2.016136789,5.2115,space,0.1552,0,1,1,14,1,15,image/15.jpg,0,0,,繁星点点,2,2024-05-31_01h17.54.853,face trait task chi,2021.2.3,Win32,60.24096386,,,,,,,
,,,,,,,,1.021706787,2.2627,space,0.4524,0,2,2,30,1,31,image/31.jpg,0,0,,繁星点点,2,2024-05-31_01h17.54.853,face trait task chi,2021.2.3,Win32,60.24096386,,,,,,,
,,,,,,,,3.05054384,1.8185,space,0.6733,0,3,3,22,1,23,image/23.jpg,0,0,,繁星点点,2,2024-05-31_01h17.54.853,face trait task chi,2021.2.3,Win32,60.24096386,,,,,,,
,,,,,,,,2.026130946,2.2567,space,0.419,0,4,4,23,1,24,image/24.jpg,0,0,,繁星点点,2,2024-05-31_01h17.54.853,face trait task chi,2021.2.3,Win32,60.24096386,,,,,,,
,,,,,,,,5.958877243,2.3407,space,0.8135,0,5,5,34,1,35,image/35.jpg,0,0,,繁星点点,2,2024-05-31_01h17.54.853,face trait task chi,2021.2.3,Win32,60.24096386,,,,,,,
,,,,,,,,2.056113838,4.1908,space,1.1743,0,6,6,29,1,30,image/30.jpg,0,0,,繁星点点,2,2024-05-31_01h17.54.853,face trait task chi,2021.2.3,Win32,60.24096386,,,,,,,
,,,,,,,,3.055541128,1.3521,space,0.3564,0,7,7,41,1,42,image/42.jpg,0,0,,繁星点点,2,2024-05-31_01h17.54.853,face trait task chi,2021.2.3,Win32,60.24096386,,,,,,,
,,,,,,,,2.116079413,3.0823,space,1.0168,0,8,8,0,1,1,image/1.jpg,0,0,,繁星点点,2,2024-05-31_01h17.54.853,face trait task chi,2021.2.3,Win32,60.24096386,,,,,,,
,,,,,,,,3.020560948,2.9722,space,0.7751,0,9,9,10,1,11,image/11.jpg,0,0,,繁星点点,2,2024-05-31_01h17.54.853,face trait task chi,2021.2.3,Win32,60.24096386,,,,,,,
,,,,,,,,4.994429924,1.9946,space,1.3929,0,10,10,2,1,3,image/3.jpg,0,0,,繁星点点,2,2024-05-31_01h17.54.853,face trait task chi,2021.2.3,Win32,60.24096386,,,,,,,
,,,,,,,,3.015564079,1.807,space,0.3947,0,11,11,42,1,43,image/43.jpg,0,0,,繁星点点,2,2024-05-31_01h17.54.853,face trait task chi,2021.2.3,Win32,60.24096386,,,,,,,
,,,,,,,,2.006142421,2.4565,space,1.1565,0,12,12,15,1,16,image/16.jpg,0,0,,繁星点点,2,2024-05-31_01h17.54.853,face trait task chi,2021.2.3,Win32,60.24096386,,,,,,,
,,,,,,,,6.988287215,2.5062,space,0.5387,0,13,13,50,1,58,image/fill_img.png,1,7,请将滑块完全移动到<右边>，以示您在专心判断。,繁星点点,2,2024-05-31_01h17.54.853,face trait task chi,2021.2.3,Win32,60.24096386,,,,,,,
,,,,,,,,4.994429924,1.8173,space,0.3693,0,14,14,27,1,28,image/28.jpg,0,0,,繁星点点,2,2024-05-31_01h17.54.853,face trait task chi,2021.2.3,Win32,60.24096386,,,,,,,
,,,,,,,,3.025558236,2.6516,space,1.3743,0,15,15,16,1,17,image/17.jpg,0,0,,繁星点点,2,2024-05-31_01h17.54.853,face trait task chi,2021.2.3,Win32,60.24096386,,,,,,,
,,,,,,,,2.041122392,3.3057,space,1.2824,0,16,16,37,1,38,image/38.jpg,0,0,,繁星点点,2,2024-05-31_01h17.54.853,face trait task chi,2021.2.3,Win32,60.24096386,,,,,,,
,,,,,,,,2.960596002,3.0794,space,1.645,0,17,17,31,1,32,image/32.jpg,0,0,,繁星点点,2,2024-05-31_01h17.54.853,face trait task chi,2021.2.3,Win32,60.24096386,,,,,,,
,,,,,,,,1.961168293,3.6573,space,1.1613,0,18,18,19,1,20,image/20.jpg,0,0,,繁星点点,2,2024-05-31_01h17.54.853,face trait task chi,2021.2.3,Win32,60.24096386,,,,,,,
,,,,,,,,2.955598294,1.5398,space,0.3796,0,19,19,35,1,36,image/36.jpg,0,0,,繁星点点,2,2024-05-31_01h17.54.853,face trait task chi,2021.2.3,Win32,60.24096386,,,,,,,
,,,,,,,,4.999427212,2.161,space,0.3941,0,20,20,48,1,49,image/49.jpg,0,0,,繁星点点,2,2024-05-31_01h17.54.853,face trait task chi,2021.2.3,Win32,60.24096386,,,,,,,
,,,,,,,,2.975587029,3.069,space,0.3299,0,21,21,12,1,13,image/13.jpg,0,0,,繁星点点,2,2024-05-31_01h17.54.853,face trait task chi,2021.2.3,Win32,60.24096386,,,,,,,
,,,,,,,,4.944458716,3.0422,space,0.2919,0,22,22,40,1,41,image/41.jpg,0,0,,繁星点点,2,2024-05-31_01h17.54.853,face trait task chi,2021.2.3,Win32,60.24096386,,,,,,,
,,,,,,,,2.975587029,2.8675,space,0.9928,0,23,23,26,1,27,image/27.jpg,0,0,,繁星点点,2,2024-05-31_01h17.54.853,face trait task chi,2021.2.3,Win32,60.24096386,,,,,,,
,,,,,,,,1.031701155,3.4515,space,2.0897,0,24,24,51,1,54,image/fill_img.png,1,1,请将滑块完全移动到<左边>，以示您在专心判断。,繁星点点,2,2024-05-31_01h17.54.853,face trait task chi,2021.2.3,Win32,60.24096386,,,,,,,
,,,,,,,,2.990578475,1.9225,space,0.8446,0,25,25,5,1,6,image/6.jpg,0,0,,繁星点点,2,2024-05-31_01h17.54.853,face trait task chi,2021.2.3,Win32,60.24096386,,,,,,,
,,,,,,,,5.988860135,2.7274,space,1.3241,0,26,26,49,1,50,image/50.jpg,0,0,,繁星点点,2,2024-05-31_01h17.54.853,face trait task chi,2021.2.3,Win32,60.24096386,,,,,,,
,,,,,,,,5.034406973,1.5094,space,0.6151,0,27,27,11,1,12,image/12.jpg,0,0,,繁星点点,2,2024-05-31_01h17.54.853,face trait task chi,2021.2.3,Win32,60.24096386,,,,,,,
,,,,,,,,3.000572632,1.694,space,0.3974,0,28,28,9,1,10,image/10.jpg,0,0,,繁星点点,2,2024-05-31_01h17.54.853,face trait task chi,2021.2.3,Win32,60.24096386,,,,,,,
,,,,,,,,2.026130946,1.9847,space,1.1065,0,29,29,44,1,45,image/45.jpg,0,0,,繁星点点,2,2024-05-31_01h17.54.853,face trait task chi,2021.2.3,Win32,60.24096386,,,,,,,
,,,,,,,,2.97058974,1.6181,space,0.4499,0,30,30,13,1,14,image/14.jpg,0,0,,繁星点点,2,2024-05-31_01h17.54.853,face trait task chi,2021.2.3,Win32,60.24096386,,,,,,,
,,,,,,,,3.05054384,2.3542,space,0.4057,0,31,31,20,1,21,image/21.jpg,0,0,,繁星点点,2,2024-05-31_01h17.54.853,face trait task chi,2021.2.3,Win32,60.24096386,,,,,,,
,,,,,,,,1.021706787,1.6283,space,3.5192,0,32,32,7,1,8,image/8.jpg,0,0,,繁星点点,2,2024-05-31_01h17.54.853,face trait task chi,2021.2.3,Win32,60.24096386,,,,,,,
,,,,,,,,3.010567209,1.8007,space,0.6716,0,33,33,25,1,26,image/26.jpg,0,0,,繁星点点,2,2024-05-31_01h17.54.853,face trait task chi,2021.2.3,Win32,60.24096386,,,,,,,
,,,,,,,,1.976159739,1.6511,space,0.2462,0,34,34,28,1,29,image/29.jpg,0,0,,繁星点点,2,2024-05-31_01h17.54.853,face trait task chi,2021.2.3,Win32,60.24096386,,,,,,,
,,,,,,,,2.031128235,2.2639,space,0.752,0,35,35,46,1,47,image/47.jpg,0,0,,繁星点点,2,2024-05-31_01h17.54.853,face trait task chi,2021.2.3,Win32,60.24096386,,,,,,,
,,,,,,,,3.005569921,1.7589,space,0.1805,0,36,36,45,1,46,image/46.jpg,0,0,,繁星点点,2,2024-05-31_01h17.54.853,face trait task chi,2021.2.3,Win32,60.24096386,,,,,,,
,,,,,,,,2.041122392,1.7266,space,0.3453,0,37,37,18,1,19,image/19.jpg,0,0,,繁星点点,2,2024-05-31_01h17.54.853,face trait task chi,2021.2.3,Win32,60.24096386,,,,,,,
,,,,,,,,4.989432635,2.263,space,0.5079,0,38,38,4,1,5,image/5.jpg,0,0,,繁星点点,2,2024-05-31_01h17.54.853,face trait task chi,2021.2.3,Win32,60.24096386,,,,,,,
,,,,,,,,3.010567209,2.2886,space,1.1461,0,39,39,33,1,34,image/34.jpg,0,0,,繁星点点,2,2024-05-31_01h17.54.853,face trait task chi,2021.2.3,Win32,60.24096386,,,,,,,
,,,,,,,,2.05111676,1.5994,space,0.3037,0,40,40,47,1,48,image/48.jpg,0,0,,繁星点点,2,2024-05-31_01h17.54.853,face trait task chi,2021.2.3,Win32,60.24096386,,,,,,,
,,,,,,,,1.031701155,1.9771,space,0.4114,0,41,41,1,1,2,image/2.jpg,0,0,,繁星点点,2,2024-05-31_01h17.54.853,face trait task chi,2021.2.3,Win32,60.24096386,,,,,,,
,,,,,,,,1.036698024,1.2914,space,0.0965,0,42,42,6,1,7,image/7.jpg,0,0,,繁星点点,2,2024-05-31_01h17.54.853,face trait task chi,2021.2.3,Win32,60.24096386,,,,,,,
,,,,,,,,3.005569921,1.5386,space,0.2469,0,43,43,32,1,33,image/33.jpg,0,0,,繁星点点,2,2024-05-31_01h17.54.853,face trait task chi,2021.2.3,Win32,60.24096386,,,,,,,
,,,,,,,,6.993285342,2.7942,space,0.8792,0,44,44,52,1,58,image/fill_img.png,1,7,请将滑块完全移动到<右边>，以示您在专心判断。,繁星点点,2,2024-05-31_01h17.54.853,face trait task chi,2021.2.3,Win32,60.24096386,,,,,,,
,,,,,,,,3.005569921,1.8217,space,0.2694,0,45,45,36,1,37,image/37.jpg,0,0,,繁星点点,2,2024-05-31_01h17.54.853,face trait task chi,2021.2.3,Win32,60.24096386,,,,,,,
,,,,,,,,2.001145343,1.9518,space,0.8249,0,46,46,8,1,9,image/9.jpg,0,0,,繁星点点,2,2024-05-31_01h17.54.853,face trait task chi,2021.2.3,Win32,60.24096386,,,,,,,
,,,,,,,,1.026703866,2.2145,space,0.4617,0,47,47,21,1,22,image/22.jpg,0,0,,繁星点点,2,2024-05-31_01h17.54.853,face trait task chi,2021.2.3,Win32,60.24096386,,,,,,,
,,,,,,,,5.039404262,3.6885,space,0.8624,0,48,48,43,1,44,image/44.jpg,0,0,,繁星点点,2,2024-05-31_01h17.54.853,face trait task chi,2021.2.3,Win32,60.24096386,,,,,,,
,,,,,,,,3.015564079,1.4684,space,1.4266,0,49,49,38,1,39,image/39.jpg,0,0,,繁星点点,2,2024-05-31_01h17.54.853,face trait task chi,2021.2.3,Win32,60.24096386,,,,,,,
,,,,,,,,2.031128235,2.7628,space,1.4609,0,50,50,24,1,25,image/25.jpg,0,0,,繁星点点,2,2024-05-31_01h17.54.853,face trait task chi,2021.2.3,Win32,60.24096386,,,,,,,
,,,,,,,,5.039404262,3.9418,space,0.8652,0,51,51,3,1,4,image/4.jpg,0,0,,繁星点点,2,2024-05-31_01h17.54.853,face trait task chi,2021.2.3,Win32,60.24096386,,,,,,,
,,,,,,,,2.960596002,2.0351,space,0.8143,0,52,52,39,1,40,image/40.jpg,0,0,,繁星点点,2,2024-05-31_01h17.54.853,face trait task chi,2021.2.3,Win32,60.24096386,,,,,,,
,,,,,,,,,,,,,,,,,,,,,,繁星点点,2,2024-05-31_01h17.54.853,face trait task chi,2021.2.3,Win32,60.24096386,0,2,2,3,1,3,friendly.png
,,,,,competent,space,5.7755,1.996148264,2.1746,space,0.2332,0,0,0,10,1,11,image/11.jpg,0,0,,繁星点点,2,2024-05-31_01h17.54.853,face trait task chi,2021.2.3,Win32,60.24096386,,,,,,,
,,,,,,,,6.993285342,2.137,space,0.6,0,1,1,50,1,58,image/fill_img.png,1,7,请将滑块完全移动到<右边>，以示您在专心判断。,繁星点点,2,2024-05-31_01h17.54.853,face trait task chi,2021.2.3,Win32,60.24096386,,,,,,,
,,,,,,,,1.001718053,1.7814,space,0.3768,0,2,2,8,1,9,image/9.jpg,0,0,,繁星点点,2,2024-05-31_01h17.54.853,face trait task chi,2021.2.3,Win32,60.24096386,,,,,,,
,,,,,,,,3.020560948,1.7867,space,0.37,0,3,3,1,1,2,image/2.jpg,0,0,,繁星点点,2,2024-05-31_01h17.54.853,face trait task chi,2021.2.3,Win32,60.24096386,,,,,,,
,,,,,,,,6.003851581,2.2408,space,0.8238,0,4,4,11,1,12,image/12.jpg,0,0,,繁星点点,2,2024-05-31_01h17.54.853,face trait task chi,2021.2.3,Win32,60.24096386,,,,,,,
,,,,,,,,1.01171242,1.7426,space,0.4844,0,5,5,7,1,8,image/8.jpg,0,0,,繁星点点,2,2024-05-31_01h17.54.853,face trait task chi,2021.2.3,Win32,60.24096386,,,,,,,
,,,,,,,,3.035552813,4.226,space,1.1709,0,6,6,20,1,21,image/21.jpg,0,0,,繁星点点,2,2024-05-31_01h17.54.853,face trait task chi,2021.2.3,Win32,60.24096386,,,,,,,
,,,,,,,,5.988860135,1.7646,space,0.9007,0,7,7,34,1,35,image/35.jpg,0,0,,繁星点点,2,2024-05-31_01h17.54.853,face trait task chi,2021.2.3,Win32,60.24096386,,,,,,,
,,,,,,,,1.006715341,2.2117,space,0.8907,0,8,8,51,1,54,image/fill_img.png,1,1,请将滑块完全移动到<左边>，以示您在专心判断。,繁星点点,2,2024-05-31_01h17.54.853,face trait task chi,2021.2.3,Win32,60.24096386,,,,,,,
,,,,,,,,5.963874112,2.1588,space,1.2339,0,9,9,4,1,5,image/5.jpg,0,0,,繁星点点,2,2024-05-31_01h17.54.853,face trait task chi,2021.2.3,Win32,60.24096386,,,,,,,
,,,,,,,,2.990578475,3.0689,space,1.1434,0,10,10,13,1,14,image/14.jpg,0,0,,繁星点点,2,2024-05-31_01h17.54.853,face trait task chi,2021.2.3,Win32,60.24096386,,,,,,,
,,,,,,,,1.961168293,1.9136,space,0.4004,0,11,11,45,1,46,image/46.jpg,0,0,,繁星点点,2,2024-05-31_01h17.54.853,face trait task chi,2021.2.3,Win32,60.24096386,,,,,,,
,,,,,,,,1.986153897,3.0937,space,0.3001,0,12,12,2,1,3,image/3.jpg,0,0,,繁星点点,2,2024-05-31_01h17.54.853,face trait task chi,2021.2.3,Win32,60.24096386,,,,,,,
,,,,,,,,2.995575344,2.3942,space,0.9099,0,13,13,15,1,16,image/16.jpg,0,0,,繁星点点,2,2024-05-31_01h17.54.853,face trait task chi,2021.2.3,Win32,60.24096386,,,,,,,
,,,,,,,,5.039404262,4.9805,space,3.499,0,14,14,31,1,32,image/32.jpg,0,0,,繁星点点,2,2024-05-31_01h17.54.853,face trait task chi,2021.2.3,Win32,60.24096386,,,,,,,
,,,,,,,,2.975587029,1.5369,space,0.1845,0,15,15,21,1,22,image/22.jpg,0,0,,繁星点点,2,2024-05-31_01h17.54.853,face trait task chi,2021.2.3,Win32,60.24096386,,,,,,,
,,,,,,,,2.006142421,1.4238,space,0.2286,0,16,16,25,1,26,image/26.jpg,0,0,,繁星点点,2,2024-05-31_01h17.54.853,face trait task chi,2021.2.3,Win32,60.24096386,,,,,,,
,,,,,,,,1.01171242,5.424,space,2.466,0,17,17,32,1,33,image/33.jpg,0,0,,繁星点点,2,2024-05-31_01h17.54.853,face trait task chi,2021.2.3,Win32,60.24096386,,,,,,,
,,,,,,,,4.994429924,1.9413,space,0.7181,0,18,18,49,1,50,image/50.jpg,0,0,,繁星点点,2,2024-05-31_01h17.54.853,face trait task chi,2021.2.3,Win32,60.24096386,,,,,,,
,,,,,,,,2.995575344,1.504,space,0.5175,0,19,19,6,1,7,image/7.jpg,0,0,,繁星点点,2,2024-05-31_01h17.54.853,face trait task chi,2021.2.3,Win32,60.24096386,,,,,,,
,,,,,,,,1.986153897,1.7117,space,0.3045,0,20,20,22,1,23,image/23.jpg,0,0,,繁星点点,2,2024-05-31_01h17.54.853,face trait task chi,2021.2.3,Win32,60.24096386,,,,,,,
,,,,,,,,3.020560948,1.7201,space,0.77,0,21,21,29,1,30,image/30.jpg,0,0,,繁星点点,2,2024-05-31_01h17.54.853,face trait task chi,2021.2.3,Win32,60.24096386,,,,,,,
,,,,,,,,1.006715341,1.8479,space,0.6253,0,22,22,26,1,27,image/27.jpg,0,0,,繁星点点,2,2024-05-31_01h17.54.853,face trait task chi,2021.2.3,Win32,60.24096386,,,,,,,
,,,,,,,,2.001145343,1.7269,space,0.2557,0,23,23,39,1,40,image/40.jpg,0,0,,繁星点点,2,2024-05-31_01h17.54.853,face trait task chi,2021.2.3,Win32,60.24096386,,,,,,,
,,,,,,,,6.993285342,2.4545,space,0.4041,0,24,24,52,1,58,image/fill_img.png,1,7,请将滑块完全移动到<右边>，以示您在专心判断。,繁星点点,2,2024-05-31_01h17.54.853,face trait task chi,2021.2.3,Win32,60.24096386,,,,,,,
,,,,,,,,1.956171214,1.6834,space,0.4037,0,25,25,12,1,13,image/13.jpg,0,0,,繁星点点,2,2024-05-31_01h17.54.853,face trait task chi,2021.2.3,Win32,60.24096386,,,,,,,
,,,,,,,,3.035552813,2.3079,space,1.3387,0,26,26,37,1,38,image/38.jpg,0,0,,繁星点点,2,2024-05-31_01h17.54.853,face trait task chi,2021.2.3,Win32,60.24096386,,,,,,,
,,,,,,,,1.096663808,1.6429,space,1.0837,0,27,27,42,1,43,image/43.jpg,0,0,,繁星点点,2,2024-05-31_01h17.54.853,face trait task chi,2021.2.3,Win32,60.24096386,,,,,,,
,,,,,,,,1.986153897,1.6433,space,0.2508,0,28,28,0,1,1,image/1.jpg,0,0,,繁星点点,2,2024-05-31_01h17.54.853,face trait task chi,2021.2.3,Win32,60.24096386,,,,,,,
,,,,,,,,2.990578475,2.4571,space,0.5164,0,29,29,38,1,39,image/39.jpg,0,0,,繁星点点,2,2024-05-31_01h17.54.853,face trait task chi,2021.2.3,Win32,60.24096386,,,,,,,
,,,,,,,,4.989432635,3.9088,space,0.3831,0,30,30,27,1,28,image/28.jpg,0,0,,繁星点点,2,2024-05-31_01h17.54.853,face trait task chi,2021.2.3,Win32,60.24096386,,,,,,,
,,,,,,,,3.030555525,1.3003,space,0.459,0,31,31,30,1,31,image/31.jpg,0,0,,繁星点点,2,2024-05-31_01h17.54.853,face trait task chi,2021.2.3,Win32,60.24096386,,,,,,,
,,,,,,,,2.001145343,2.543,space,0.2753,0,32,32,17,1,18,image/18.jpg,0,0,,繁星点点,2,2024-05-31_01h17.54.853,face trait task chi,2021.2.3,Win32,60.24096386,,,,,,,
,,,,,,,,3.010567209,4.4299,space,2.2,0,33,33,24,1,25,image/25.jpg,0,0,,繁星点点,2,2024-05-31_01h17.54.853,face trait task chi,2021.2.3,Win32,60.24096386,,,,,,,
,,,,,,,,1.986153897,1.6035,space,0.1506,0,34,34,16,1,17,image/17.jpg,0,0,,繁星点点,2,2024-05-31_01h17.54.853,face trait task chi,2021.2.3,Win32,60.24096386,,,,,,,
,,,,,,,,5.014418658,6.3392,space,4.7332,0,35,35,43,1,44,image/44.jpg,0,0,,繁星点点,2,2024-05-31_01h17.54.853,face trait task chi,2021.2.3,Win32,60.24096386,,,,,,,
,,,,,,,,2.016136789,1.6708,space,0.1992,0,36,36,18,1,19,image/19.jpg,0,0,,繁星点点,2,2024-05-31_01h17.54.853,face trait task chi,2021.2.3,Win32,60.24096386,,,,,,,
,,,,,,,,2.97058974,1.4383,space,0.3627,0,37,37,5,1,6,image/6.jpg,0,0,,繁星点点,2,2024-05-31_01h17.54.853,face trait task chi,2021.2.3,Win32,60.24096386,,,,,,,
,,,,,,,,1.096663808,2.0701,space,0.4057,0,38,38,41,1,42,image/42.jpg,0,0,,繁星点点,2,2024-05-31_01h17.54.853,face trait task chi,2021.2.3,Win32,60.24096386,,,,,,,
,,,,,,,,2.031128235,1.3902,space,0.4204,0,39,39,14,1,15,image/15.jpg,0,0,,繁星点点,2,2024-05-31_01h17.54.853,face trait task chi,2021.2.3,Win32,60.24096386,,,,,,,
,,,,,,,,4.994429924,1.8694,space,0.4026,0,40,40,48,1,49,image/49.jpg,0,0,,繁星点点,2,2024-05-31_01h17.54.853,face trait task chi,2021.2.3,Win32,60.24096386,,,,,,,
,,,,,,,,2.975587029,1.8795,space,0.1518,0,41,41,23,1,24,image/24.jpg,0,0,,繁星点点,2,2024-05-31_01h17.54.853,face trait task chi,2021.2.3,Win32,60.24096386,,,,,,,
,,,,,,,,2.006142421,2.2946,space,0.235,0,42,42,3,1,4,image/4.jpg,0,0,,繁星点点,2,2024-05-31_01h17.54.853,face trait task chi,2021.2.3,Win32,60.24096386,,,,,,,
,,,,,,,,6.038831342,1.9884,space,0.4333,0,43,43,33,1,34,image/34.jpg,0,0,,繁星点点,2,2024-05-31_01h17.54.853,face trait task chi,2021.2.3,Win32,60.24096386,,,,,,,
,,,,,,,,2.980583898,1.636,space,0.1508,0,44,44,44,1,45,image/45.jpg,0,0,,繁星点点,2,2024-05-31_01h17.54.853,face trait task chi,2021.2.3,Win32,60.24096386,,,,,,,
,,,,,,,,4.979438478,1.5035,space,0.2182,0,45,45,35,1,36,image/36.jpg,0,0,,繁星点点,2,2024-05-31_01h17.54.853,face trait task chi,2021.2.3,Win32,60.24096386,,,,,,,
,,,,,,,,2.021133868,1.9525,space,0.3264,0,46,46,9,1,10,image/10.jpg,0,0,,繁星点点,2,2024-05-31_01h17.54.853,face trait task chi,2021.2.3,Win32,60.24096386,,,,,,,
,,,,,,,,1.05168947,2.2863,space,1.4736,0,47,47,28,1,29,image/29.jpg,0,0,,繁星点点,2,2024-05-31_01h17.54.853,face trait task chi,2021.2.3,Win32,60.24096386,,,,,,,
,,,,,,,,2.955598294,1.3399,space,0.3345,0,48,48,47,1,48,image/48.jpg,0,0,,繁星点点,2,2024-05-31_01h17.54.853,face trait task chi,2021.2.3,Win32,60.24096386,,,,,,,
,,,,,,,,5.00942137,2.4801,space,0.1679,0,49,49,40,1,41,image/41.jpg,0,0,,繁星点点,2,2024-05-31_01h17.54.853,face trait task chi,2021.2.3,Win32,60.24096386,,,,,,,
,,,,,,,,2.990578475,1.3707,space,1.2156,0,50,50,19,1,20,image/20.jpg,0,0,,繁星点点,2,2024-05-31_01h17.54.853,face trait task chi,2021.2.3,Win32,60.24096386,,,,,,,
,,,,,,,,1.981156818,2.7103,space,1.5016,0,51,51,46,1,47,image/47.jpg,0,0,,繁星点点,2,2024-05-31_01h17.54.853,face trait task chi,2021.2.3,Win32,60.24096386,,,,,,,
,,,,,,,,5.029409685,1.6146,space,0.3667,0,52,52,36,1,37,image/37.jpg,0,0,,繁星点点,2,2024-05-31_01h17.54.853,face trait task chi,2021.2.3,Win32,60.24096386,,,,,,,
,,,,,,,,,,,,,,,,,,,,,,繁星点点,2,2024-05-31_01h17.54.853,face trait task chi,2021.2.3,Win32,60.24096386,0,3,3,1,1,1,competent.png