﻿choose_trial,key_resp.keys,key_resp.rt,key_resp_4.keys,key_resp_4.rt,session_trait,key_resp_5.keys,key_resp_5.rt,slider_face_judge.response,slider_face_judge.rt,key_resp_3.keys,key_resp_3.rt,face_loop.thisRepN,face_loop.thisTrialN,face_loop.thisN,face_loop.thisIndex,face_loop.ran,face_serial,image_name,isCheck,answer,check_question,participant,session,date,expName,psychopyVersion,OS,frameRate,session.thisRepN,session.thisTrialN,session.thisN,session.thisIndex,session.ran,session_serial,slider_judge_img
"[0,1,2,3,4,5,6,7,8,9,10,11,12,13,14,15,16,17,18,19,20,21,22,23,24,25,26,27,28,29,30,31,32,33,34,35,36,37,38,39,40,41,42,43,44,45,46,47,48,49,53,52,57]",space,3.2292,space,6.8148,critical,space,11.8838,1.914990358,4.8045,space,1.564,0,0,0,2,1,3,image/3.jpg,0,0,,王子鸣,2,2024-05-31_01h12.35.507,face trait task chi,2021.2.3,Win32,161.2903226,,,,,,,
,,,,,,,,3.964590046,3.2571,space,1.5599,0,1,1,1,1,2,image/2.jpg,0,0,,王子鸣,2,2024-05-31_01h12.35.507,face trait task chi,2021.2.3,Win32,161.2903226,,,,,,,
,,,,,,,,5.964199497,2.8821,space,0.7939,0,2,2,32,1,33,image/33.jpg,0,0,,王子鸣,2,2024-05-31_01h12.35.507,face trait task chi,2021.2.3,Win32,161.2903226,,,,,,,
,,,,,,,,4.99355587,5.2877,space,0.2054,0,3,3,37,1,38,image/38.jpg,0,0,,王子鸣,2,2024-05-31_01h12.35.507,face trait task chi,2021.2.3,Win32,161.2903226,,,,,,,
,,,,,,,,4.939399653,3.0754,space,0.6332,0,4,4,38,1,39,image/39.jpg,0,0,,王子鸣,2,2024-05-31_01h12.35.507,face trait task chi,2021.2.3,Win32,161.2903226,,,,,,,
,,,,,,,,3.977087605,3.9357,space,0.2421,0,5,5,19,1,20,image/20.jpg,0,0,,王子鸣,2,2024-05-31_01h12.35.507,face trait task chi,2021.2.3,Win32,161.2903226,,,,,,,
,,,,,,,,3.010609958,3.6084,space,0.2487,0,6,6,43,1,44,image/44.jpg,0,0,,王子鸣,2,2024-05-31_01h12.35.507,face trait task chi,2021.2.3,Win32,161.2903226,,,,,,,
,,,,,,,,2.98561484,2.8088,space,0.5049,0,7,7,5,1,6,image/6.jpg,0,0,,王子鸣,2,2024-05-31_01h12.35.507,face trait task chi,2021.2.3,Win32,161.2903226,,,,,,,
,,,,,,,,2.96478532,2.1681,space,1.3332,0,8,8,22,1,23,image/23.jpg,0,0,,王子鸣,2,2024-05-31_01h12.35.507,face trait task chi,2021.2.3,Win32,161.2903226,,,,,,,
,,,,,,,,2.998112399,2.4454,space,0.285,0,9,9,0,1,1,image/1.jpg,0,0,,王子鸣,2,2024-05-31_01h12.35.507,face trait task chi,2021.2.3,Win32,161.2903226,,,,,,,
,,,,,,,,4.99355587,2.821,space,0.287,0,10,10,30,1,31,image/31.jpg,0,0,,王子鸣,2,2024-05-31_01h12.35.507,face trait task chi,2021.2.3,Win32,161.2903226,,,,,,,
,,,,,,,,4.985224291,2.0602,space,0.26,0,11,11,18,1,19,image/19.jpg,0,0,,王子鸣,2,2024-05-31_01h12.35.507,face trait task chi,2021.2.3,Win32,161.2903226,,,,,,,
,,,,,,,,6.001692174,3.136,space,0.2788,0,12,12,21,1,22,image/22.jpg,0,0,,王子鸣,2,2024-05-31_01h12.35.507,face trait task chi,2021.2.3,Win32,161.2903226,,,,,,,
,,,,,,,,2.998112399,1.883,space,0.7346,0,13,13,39,1,40,image/40.jpg,0,0,,王子鸣,2,2024-05-31_01h12.35.507,face trait task chi,2021.2.3,Win32,161.2903226,,,,,,,
,,,,,,,,3.968756026,1.7784,space,0.3458,0,14,14,6,1,7,image/7.jpg,0,0,,王子鸣,2,2024-05-31_01h12.35.507,face trait task chi,2021.2.3,Win32,161.2903226,,,,,,,
,,,,,,,,4.99355587,1.8111,space,0.2164,0,15,15,31,1,32,image/32.jpg,0,0,,王子鸣,2,2024-05-31_01h12.35.507,face trait task chi,2021.2.3,Win32,161.2903226,,,,,,,
,,,,,,,,4.99355587,2.21,space,0.3065,0,16,16,49,1,50,image/50.jpg,0,0,,王子鸣,2,2024-05-31_01h12.35.507,face trait task chi,2021.2.3,Win32,161.2903226,,,,,,,
,,,,,,,,4.99355587,2.5002,space,0.2669,0,17,17,25,1,26,image/26.jpg,0,0,,王子鸣,2,2024-05-31_01h12.35.507,face trait task chi,2021.2.3,Win32,161.2903226,,,,,,,
,,,,,,,,2.981448859,2.9863,space,0.2792,0,18,18,35,1,36,image/36.jpg,0,0,,王子鸣,2,2024-05-31_01h12.35.507,face trait task chi,2021.2.3,Win32,161.2903226,,,,,,,
,,,,,,,,3.968756026,3.6993,space,0.3881,0,19,19,7,1,8,image/8.jpg,0,0,,王子鸣,2,2024-05-31_01h12.35.507,face trait task chi,2021.2.3,Win32,161.2903226,,,,,,,
,,,,,,,,5.993360977,4.4457,space,0.2773,0,20,20,13,1,14,image/14.jpg,0,0,,王子鸣,2,2024-05-31_01h12.35.507,face trait task chi,2021.2.3,Win32,161.2903226,,,,,,,
,,,,,,,,1.985810114,1.968,space,0.3516,0,21,21,47,1,48,image/48.jpg,0,0,,王子鸣,2,2024-05-31_01h12.35.507,face trait task chi,2021.2.3,Win32,161.2903226,,,,,,,
,,,,,,,,4.985224291,3.0528,space,0.2667,0,22,22,45,1,46,image/46.jpg,0,0,,王子鸣,2,2024-05-31_01h12.35.507,face trait task chi,2021.2.3,Win32,161.2903226,,,,,,,
,,,,,,,,5.997526576,2.0527,space,0.3458,0,23,23,27,1,28,image/28.jpg,0,0,,王子鸣,2,2024-05-31_01h12.35.507,face trait task chi,2021.2.3,Win32,161.2903226,,,,,,,
,,,,,,,,2.998112399,2.1067,space,0.4668,0,24,24,40,1,41,image/41.jpg,0,0,,王子鸣,2,2024-05-31_01h12.35.507,face trait task chi,2021.2.3,Win32,161.2903226,,,,,,,
,,,,,,,,1.031829644,3.7309,space,0.4714,0,25,25,34,1,35,image/35.jpg,0,0,,王子鸣,2,2024-05-31_01h12.35.507,face trait task chi,2021.2.3,Win32,161.2903226,,,,,,,
,,,,,,,,1,4.797,space,2.2178,0,26,26,51,1,53,image/fill_img.png,1,1,请将滑块完全移动到<左边>，以示您在专心判断。,王子鸣,2,2024-05-31_01h12.35.507,face trait task chi,2021.2.3,Win32,161.2903226,,,,,,,
,,,,,,,,1.973312555,2.2763,space,0.6,0,27,27,4,1,5,image/5.jpg,0,0,,王子鸣,2,2024-05-31_01h12.35.507,face trait task chi,2021.2.3,Win32,161.2903226,,,,,,,
,,,,,,,,1.973312555,2.7743,space,0.6308,0,28,28,3,1,4,image/4.jpg,0,0,,王子鸣,2,2024-05-31_01h12.35.507,face trait task chi,2021.2.3,Win32,161.2903226,,,,,,,
,,,,,,,,1.973312555,5.0285,space,0.7341,0,29,29,24,1,25,image/25.jpg,0,0,,王子鸣,2,2024-05-31_01h12.35.507,face trait task chi,2021.2.3,Win32,161.2903226,,,,,,,
,,,,,,,,1.973312555,2.859,space,2.1818,0,30,30,42,1,43,image/43.jpg,0,0,,王子鸣,2,2024-05-31_01h12.35.507,face trait task chi,2021.2.3,Win32,161.2903226,,,,,,,
,,,,,,,,5.960033898,1.9196,space,0.7581,0,31,31,8,1,9,image/9.jpg,0,0,,王子鸣,2,2024-05-31_01h12.35.507,face trait task chi,2021.2.3,Win32,161.2903226,,,,,,,
,,,,,,,,3.093926891,1.9802,space,1.4364,0,32,32,23,1,24,image/24.jpg,0,0,,王子鸣,2,2024-05-31_01h12.35.507,face trait task chi,2021.2.3,Win32,161.2903226,,,,,,,
,,,,,,,,3.960424447,2.5497,space,0.4308,0,33,33,17,1,18,image/18.jpg,0,0,,王子鸣,2,2024-05-31_01h12.35.507,face trait task chi,2021.2.3,Win32,161.2903226,,,,,,,
,,,,,,,,2.989780438,2.1013,space,0.3222,0,34,34,20,1,21,image/21.jpg,0,0,,王子鸣,2,2024-05-31_01h12.35.507,face trait task chi,2021.2.3,Win32,161.2903226,,,,,,,
,,,,,,,,1,4.0819,space,2.0937,0,35,35,50,1,54,image/fill_img.png,1,1,请将滑块完全移动到<左边>，以示您在专心判断。,王子鸣,2,2024-05-31_01h12.35.507,face trait task chi,2021.2.3,Win32,161.2903226,,,,,,,
,,,,,,,,7,2.6577,space,1.4001,0,36,36,52,1,58,image/fill_img.png,1,7,请将滑块完全移动到<右边>，以示您在专心判断。,王子鸣,2,2024-05-31_01h12.35.507,face trait task chi,2021.2.3,Win32,161.2903226,,,,,,,
,,,,,,,,6.055848772,2.6831,space,0.3692,0,37,37,16,1,17,image/17.jpg,0,0,,王子鸣,2,2024-05-31_01h12.35.507,face trait task chi,2021.2.3,Win32,161.2903226,,,,,,,
,,,,,,,,2.989780438,2.8163,space,0.225,0,38,38,44,1,45,image/45.jpg,0,0,,王子鸣,2,2024-05-31_01h12.35.507,face trait task chi,2021.2.3,Win32,161.2903226,,,,,,,
,,,,,,,,3.023107517,2.5145,space,1.6878,0,39,39,29,1,30,image/30.jpg,0,0,,王子鸣,2,2024-05-31_01h12.35.507,face trait task chi,2021.2.3,Win32,161.2903226,,,,,,,
,,,,,,,,3.981253585,3.2994,space,0.3263,0,40,40,26,1,27,image/27.jpg,0,0,,王子鸣,2,2024-05-31_01h12.35.507,face trait task chi,2021.2.3,Win32,161.2903226,,,,,,,
,,,,,,,,3.014775557,3.4446,space,0.8963,0,41,41,33,1,34,image/34.jpg,0,0,,王子鸣,2,2024-05-31_01h12.35.507,face trait task chi,2021.2.3,Win32,161.2903226,,,,,,,
,,,,,,,,6.972336183,3.0778,space,0.6426,0,42,42,14,1,15,image/15.jpg,0,0,,王子鸣,2,2024-05-31_01h12.35.507,face trait task chi,2021.2.3,Win32,161.2903226,,,,,,,
,,,,,,,,1.989975713,1.7604,space,0.2243,0,43,43,11,1,12,image/12.jpg,0,0,,王子鸣,2,2024-05-31_01h12.35.507,face trait task chi,2021.2.3,Win32,161.2903226,,,,,,,
,,,,,,,,3.052268234,2.8398,space,0.4221,0,44,44,46,1,47,image/47.jpg,0,0,,王子鸣,2,2024-05-31_01h12.35.507,face trait task chi,2021.2.3,Win32,161.2903226,,,,,,,
,,,,,,,,4.014580282,1.827,space,0.3758,0,45,45,15,1,16,image/16.jpg,0,0,,王子鸣,2,2024-05-31_01h12.35.507,face trait task chi,2021.2.3,Win32,161.2903226,,,,,,,
,,,,,,,,5.976697056,3.3301,space,0.3149,0,46,46,36,1,37,image/37.jpg,0,0,,王子鸣,2,2024-05-31_01h12.35.507,face trait task chi,2021.2.3,Win32,161.2903226,,,,,,,
,,,,,,,,4.981058311,2.1486,space,0.3847,0,47,47,10,1,11,image/11.jpg,0,0,,王子鸣,2,2024-05-31_01h12.35.507,face trait task chi,2021.2.3,Win32,161.2903226,,,,,,,
,,,,,,,,4.98938989,2.1374,space,0.3061,0,48,48,28,1,29,image/29.jpg,0,0,,王子鸣,2,2024-05-31_01h12.35.507,face trait task chi,2021.2.3,Win32,161.2903226,,,,,,,
,,,,,,,,2.977282879,1.8691,space,0.2431,0,49,49,48,1,49,image/49.jpg,0,0,,王子鸣,2,2024-05-31_01h12.35.507,face trait task chi,2021.2.3,Win32,161.2903226,,,,,,,
,,,,,,,,4.99355587,3.0273,space,1.6182,0,50,50,9,1,10,image/10.jpg,0,0,,王子鸣,2,2024-05-31_01h12.35.507,face trait task chi,2021.2.3,Win32,161.2903226,,,,,,,
,,,,,,,,4.968560752,3.4175,space,0.2789,0,51,51,41,1,42,image/42.jpg,0,0,,王子鸣,2,2024-05-31_01h12.35.507,face trait task chi,2021.2.3,Win32,161.2903226,,,,,,,
,,,,,,,,5.985029017,2.2638,space,0.3476,0,52,52,12,1,13,image/13.jpg,0,0,,王子鸣,2,2024-05-31_01h12.35.507,face trait task chi,2021.2.3,Win32,161.2903226,,,,,,,
,,,,,,,,,,,,,,,,,,,,,,王子鸣,2,2024-05-31_01h12.35.507,face trait task chi,2021.2.3,Win32,161.2903226,0,0,0,0,1,0,critical.png
,,,,,competent,space,4.909,6.022521694,3.7854,space,0.2893,0,0,0,6,1,7,image/7.jpg,0,0,,王子鸣,2,2024-05-31_01h12.35.507,face trait task chi,2021.2.3,Win32,161.2903226,,,,,,,
,,,,,,,,4.964394772,4.7664,space,0.1804,0,1,1,30,1,31,image/31.jpg,0,0,,王子鸣,2,2024-05-31_01h12.35.507,face trait task chi,2021.2.3,Win32,161.2903226,,,,,,,
,,,,,,,,4.964394772,2.2347,space,0.2427,0,2,2,22,1,23,image/23.jpg,0,0,,王子鸣,2,2024-05-31_01h12.35.507,face trait task chi,2021.2.3,Win32,161.2903226,,,,,,,
,,,,,,,,2.9689513,2.2346,space,0.479,0,3,3,37,1,38,image/38.jpg,0,0,,王子鸣,2,2024-05-31_01h12.35.507,face trait task chi,2021.2.3,Win32,161.2903226,,,,,,,
,,,,,,,,2.02746839,3.0584,space,1.6905,0,4,4,31,1,32,image/32.jpg,0,0,,王子鸣,2,2024-05-31_01h12.35.507,face trait task chi,2021.2.3,Win32,161.2903226,,,,,,,
,,,,,,,,6.997331301,2.0174,space,0.8001,0,5,5,52,1,58,image/fill_img.png,1,7,请将滑块完全移动到<右边>，以示您在专心判断。,王子鸣,2,2024-05-31_01h12.35.507,face trait task chi,2021.2.3,Win32,161.2903226,,,,,,,
,,,,,,,,2.002473272,2.0885,space,0.2246,0,6,6,2,1,3,image/3.jpg,0,0,,王子鸣,2,2024-05-31_01h12.35.507,face trait task chi,2021.2.3,Win32,161.2903226,,,,,,,
,,,,,,,,2.014970831,1.8481,space,0.4304,0,7,7,24,1,25,image/25.jpg,0,0,,王子鸣,2,2024-05-31_01h12.35.507,face trait task chi,2021.2.3,Win32,161.2903226,,,,,,,
,,,,,,,,2.023302791,1.374,space,0.6065,0,8,8,46,1,47,image/47.jpg,0,0,,王子鸣,2,2024-05-31_01h12.35.507,face trait task chi,2021.2.3,Win32,161.2903226,,,,,,,
,,,,,,,,4.964394772,3.4397,space,0.2471,0,9,9,12,1,13,image/13.jpg,0,0,,王子鸣,2,2024-05-31_01h12.35.507,face trait task chi,2021.2.3,Win32,161.2903226,,,,,,,
,,,,,,,,6.022521694,2.2155,space,0.2548,0,10,10,8,1,9,image/9.jpg,0,0,,王子鸣,2,2024-05-31_01h12.35.507,face trait task chi,2021.2.3,Win32,161.2903226,,,,,,,
,,,,,,,,2.973117281,1.6349,space,0.2792,0,11,11,23,1,24,image/24.jpg,0,0,,王子鸣,2,2024-05-31_01h12.35.507,face trait task chi,2021.2.3,Win32,161.2903226,,,,,,,
,,,,,,,,5.976697056,2.5496,space,0.2668,0,12,12,4,1,5,image/5.jpg,0,0,,王子鸣,2,2024-05-31_01h12.35.507,face trait task chi,2021.2.3,Win32,161.2903226,,,,,,,
,,,,,,,,6.955673025,1.9563,space,0.3151,0,13,13,49,1,50,image/50.jpg,0,0,,王子鸣,2,2024-05-31_01h12.35.507,face trait task chi,2021.2.3,Win32,161.2903226,,,,,,,
,,,,,,,,3.052268234,3.1671,space,0.4046,0,14,14,36,1,37,image/37.jpg,0,0,,王子鸣,2,2024-05-31_01h12.35.507,face trait task chi,2021.2.3,Win32,161.2903226,,,,,,,
,,,,,,,,2.989780438,1.8955,space,0.3641,0,15,15,26,1,27,image/27.jpg,0,0,,王子鸣,2,2024-05-31_01h12.35.507,face trait task chi,2021.2.3,Win32,161.2903226,,,,,,,
,,,,,,,,1.019332085,2.3256,space,0.3639,0,16,16,18,1,19,image/19.jpg,0,0,,王子鸣,2,2024-05-31_01h12.35.507,face trait task chi,2021.2.3,Win32,161.2903226,,,,,,,
,,,,,,,,2.019136811,1.8103,space,0.2853,0,17,17,44,1,45,image/45.jpg,0,0,,王子鸣,2,2024-05-31_01h12.35.507,face trait task chi,2021.2.3,Win32,161.2903226,,,,,,,
,,,,,,,,1,2.961,space,0.8853,0,18,18,50,1,54,image/fill_img.png,1,1,请将滑块完全移动到<左边>，以示您在专心判断。,王子鸣,2,2024-05-31_01h12.35.507,face trait task chi,2021.2.3,Win32,161.2903226,,,,,,,
,,,,,,,,5.110199882,3.567,space,0.3276,0,19,19,41,1,42,image/42.jpg,0,0,,王子鸣,2,2024-05-31_01h12.35.507,face trait task chi,2021.2.3,Win32,161.2903226,,,,,,,
,,,,,,,,6.955673025,2.1255,space,0.3579,0,20,20,34,1,35,image/35.jpg,0,0,,王子鸣,2,2024-05-31_01h12.35.507,face trait task chi,2021.2.3,Win32,161.2903226,,,,,,,
,,,,,,,,5.985029017,1.6408,space,0.3272,0,21,21,35,1,36,image/36.jpg,0,0,,王子鸣,2,2024-05-31_01h12.35.507,face trait task chi,2021.2.3,Win32,161.2903226,,,,,,,
,,,,,,,,5.014385008,3.7373,space,0.306,0,22,22,5,1,6,image/6.jpg,0,0,,王子鸣,2,2024-05-31_01h12.35.507,face trait task chi,2021.2.3,Win32,161.2903226,,,,,,,
,,,,,,,,5.018550988,5.7854,space,0.1506,0,23,23,25,1,26,image/26.jpg,0,0,,王子鸣,2,2024-05-31_01h12.35.507,face trait task chi,2021.2.3,Win32,161.2903226,,,,,,,
,,,,,,,,2.956453741,1.5743,space,0.2912,0,24,24,43,1,44,image/44.jpg,0,0,,王子鸣,2,2024-05-31_01h12.35.507,face trait task chi,2021.2.3,Win32,161.2903226,,,,,,,
,,,,,,,,6.030853654,1.5627,space,0.3701,0,25,25,48,1,49,image/49.jpg,0,0,,王子鸣,2,2024-05-31_01h12.35.507,face trait task chi,2021.2.3,Win32,161.2903226,,,,,,,
,,,,,,,,1.998307673,1.6652,space,0.4011,0,26,26,33,1,34,image/34.jpg,0,0,,王子鸣,2,2024-05-31_01h12.35.507,face trait task chi,2021.2.3,Win32,161.2903226,,,,,,,
,,,,,,,,4.985224291,3.513,space,0.2913,0,27,27,7,1,8,image/8.jpg,0,0,,王子鸣,2,2024-05-31_01h12.35.507,face trait task chi,2021.2.3,Win32,161.2903226,,,,,,,
,,,,,,,,2.014970831,2.4471,space,0.2305,0,28,28,19,1,20,image/20.jpg,0,0,,王子鸣,2,2024-05-31_01h12.35.507,face trait task chi,2021.2.3,Win32,161.2903226,,,,,,,
,,,,,,,,1,2.701,space,0.9396,0,29,29,51,1,53,image/fill_img.png,1,1,请将滑块完全移动到<左边>，以示您在专心判断。,王子鸣,2,2024-05-31_01h12.35.507,face trait task chi,2021.2.3,Win32,161.2903226,,,,,,,
,,,,,,,,1.052658782,2.7509,space,0.1152,0,30,30,13,1,14,image/14.jpg,0,0,,王子鸣,2,2024-05-31_01h12.35.507,face trait task chi,2021.2.3,Win32,161.2903226,,,,,,,
,,,,,,,,2.010805232,2.3255,space,0.3638,0,31,31,20,1,21,image/21.jpg,0,0,,王子鸣,2,2024-05-31_01h12.35.507,face trait task chi,2021.2.3,Win32,161.2903226,,,,,,,
,,,,,,,,1.977478154,1.7077,space,0.3095,0,32,32,21,1,22,image/22.jpg,0,0,,王子鸣,2,2024-05-31_01h12.35.507,face trait task chi,2021.2.3,Win32,161.2903226,,,,,,,
,,,,,,,,5.972531457,2.2115,space,0.4128,0,33,33,39,1,40,image/40.jpg,0,0,,王子鸣,2,2024-05-31_01h12.35.507,face trait task chi,2021.2.3,Win32,161.2903226,,,,,,,
,,,,,,,,3.972922006,3.4829,space,0.8367,0,34,34,14,1,15,image/15.jpg,0,0,,王子鸣,2,2024-05-31_01h12.35.507,face trait task chi,2021.2.3,Win32,161.2903226,,,,,,,
,,,,,,,,1.998307673,2.4225,space,0.2972,0,35,35,45,1,46,image/46.jpg,0,0,,王子鸣,2,2024-05-31_01h12.35.507,face trait task chi,2021.2.3,Win32,161.2903226,,,,,,,
,,,,,,,,1.985810114,1.3257,space,0.1941,0,36,36,1,1,2,image/2.jpg,0,0,,王子鸣,2,2024-05-31_01h12.35.507,face trait task chi,2021.2.3,Win32,161.2903226,,,,,,,
,,,,,,,,4.981058311,1.8717,space,0.2073,0,37,37,47,1,48,image/48.jpg,0,0,,王子鸣,2,2024-05-31_01h12.35.507,face trait task chi,2021.2.3,Win32,161.2903226,,,,,,,
,,,,,,,,2.023302791,2.2029,space,0.8376,0,38,38,28,1,29,image/29.jpg,0,0,,王子鸣,2,2024-05-31_01h12.35.507,face trait task chi,2021.2.3,Win32,161.2903226,,,,,,,
,,,,,,,,2.019136811,2.8236,space,0.3135,0,39,39,17,1,18,image/18.jpg,0,0,,王子鸣,2,2024-05-31_01h12.35.507,face trait task chi,2021.2.3,Win32,161.2903226,,,,,,,
,,,,,,,,2.977282879,3.2166,space,0.209,0,40,40,9,1,10,image/10.jpg,0,0,,王子鸣,2,2024-05-31_01h12.35.507,face trait task chi,2021.2.3,Win32,161.2903226,,,,,,,
,,,,,,,,5.993360977,2.3241,space,0.4647,0,41,41,40,1,41,image/41.jpg,0,0,,王子鸣,2,2024-05-31_01h12.35.507,face trait task chi,2021.2.3,Win32,161.2903226,,,,,,,
,,,,,,,,2.98561484,1.8582,space,0.3162,0,42,42,29,1,30,image/30.jpg,0,0,,王子鸣,2,2024-05-31_01h12.35.507,face trait task chi,2021.2.3,Win32,161.2903226,,,,,,,
,,,,,,,,1.977478154,2.0835,space,0.2799,0,43,43,16,1,17,image/17.jpg,0,0,,王子鸣,2,2024-05-31_01h12.35.507,face trait task chi,2021.2.3,Win32,161.2903226,,,,,,,
,,,,,,,,3.018941537,1.8272,space,0.3052,0,44,44,11,1,12,image/12.jpg,0,0,,王子鸣,2,2024-05-31_01h12.35.507,face trait task chi,2021.2.3,Win32,161.2903226,,,,,,,
,,,,,,,,1.994141693,1.7262,space,0.2487,0,45,45,0,1,1,image/1.jpg,0,0,,王子鸣,2,2024-05-31_01h12.35.507,face trait task chi,2021.2.3,Win32,161.2903226,,,,,,,
,,,,,,,,4.960229173,1.6577,space,0.3239,0,46,46,42,1,43,image/43.jpg,0,0,,王子鸣,2,2024-05-31_01h12.35.507,face trait task chi,2021.2.3,Win32,161.2903226,,,,,,,
,,,,,,,,5.014385008,1.2695,space,0.3959,0,47,47,38,1,39,image/39.jpg,0,0,,王子鸣,2,2024-05-31_01h12.35.507,face trait task chi,2021.2.3,Win32,161.2903226,,,,,,,
,,,,,,,,1.977478154,2.469,space,0.2366,0,48,48,15,1,16,image/16.jpg,0,0,,王子鸣,2,2024-05-31_01h12.35.507,face trait task chi,2021.2.3,Win32,161.2903226,,,,,,,
,,,,,,,,5.014385008,2.5124,space,0.1664,0,49,49,3,1,4,image/4.jpg,0,0,,王子鸣,2,2024-05-31_01h12.35.507,face trait task chi,2021.2.3,Win32,161.2903226,,,,,,,
,,,,,,,,1.519234448,2.6879,space,0.2364,0,50,50,32,1,33,image/33.jpg,0,0,,王子鸣,2,2024-05-31_01h12.35.507,face trait task chi,2021.2.3,Win32,161.2903226,,,,,,,
,,,,,,,,2.048297909,1.8164,space,0.3482,0,51,51,10,1,11,image/11.jpg,0,0,,王子鸣,2,2024-05-31_01h12.35.507,face trait task chi,2021.2.3,Win32,161.2903226,,,,,,,
,,,,,,,,5.006053429,3.2878,space,1.3656,0,52,52,27,1,28,image/28.jpg,0,0,,王子鸣,2,2024-05-31_01h12.35.507,face trait task chi,2021.2.3,Win32,161.2903226,,,,,,,
,,,,,,,,,,,,,,,,,,,,,,王子鸣,2,2024-05-31_01h12.35.507,face trait task chi,2021.2.3,Win32,161.2903226,0,1,1,1,1,1,competent.png
,,,,,friendly,space,6.5802,3.997917124,2.4292,space,1.0495,0,0,0,19,1,20,image/20.jpg,0,0,,王子鸣,2,2024-05-31_01h12.35.507,face trait task chi,2021.2.3,Win32,161.2903226,,,,,,,
,,,,,,,,3.968756026,2.8374,space,0.6846,0,1,1,39,1,40,image/40.jpg,0,0,,王子鸣,2,2024-05-31_01h12.35.507,face trait task chi,2021.2.3,Win32,161.2903226,,,,,,,
,,,,,,,,2.98561484,1.962,space,0.2673,0,2,2,22,1,23,image/23.jpg,0,0,,王子鸣,2,2024-05-31_01h12.35.507,face trait task chi,2021.2.3,Win32,161.2903226,,,,,,,
,,,,,,,,4.981058311,2.3424,space,0.1031,0,3,3,43,1,44,image/44.jpg,0,0,,王子鸣,2,2024-05-31_01h12.35.507,face trait task chi,2021.2.3,Win32,161.2903226,,,,,,,
,,,,,,,,3.010609958,1.8472,space,0.0929,0,4,4,36,1,37,image/37.jpg,0,0,,王子鸣,2,2024-05-31_01h12.35.507,face trait task chi,2021.2.3,Win32,161.2903226,,,,,,,
,,,,,,,,3.985419565,2.7176,space,0.0845,0,5,5,23,1,24,image/24.jpg,0,0,,王子鸣,2,2024-05-31_01h12.35.507,face trait task chi,2021.2.3,Win32,161.2903226,,,,,,,
,,,,,,,,6.001692174,1.744,space,0.2666,0,6,6,4,1,5,image/5.jpg,0,0,,王子鸣,2,2024-05-31_01h12.35.507,face trait task chi,2021.2.3,Win32,161.2903226,,,,,,,
,,,,,,,,4.976892331,2.7724,space,0.1215,0,7,7,28,1,29,image/29.jpg,0,0,,王子鸣,2,2024-05-31_01h12.35.507,face trait task chi,2021.2.3,Win32,161.2903226,,,,,,,
,,,,,,,,3.931263349,1.7242,space,0.9335,0,8,8,40,1,41,image/41.jpg,0,0,,王子鸣,2,2024-05-31_01h12.35.507,face trait task chi,2021.2.3,Win32,161.2903226,,,,,,,
,,,,,,,,1.948317437,1.6455,space,0.2888,0,9,9,9,1,10,image/10.jpg,0,0,,王子鸣,2,2024-05-31_01h12.35.507,face trait task chi,2021.2.3,Win32,161.2903226,,,,,,,
,,,,,,,,2.023302791,0.9074,space,0.9094,0,10,10,31,1,32,image/32.jpg,0,0,,王子鸣,2,2024-05-31_01h12.35.507,face trait task chi,2021.2.3,Win32,161.2903226,,,,,,,
,,,,,,,,4.98938989,2.6955,space,1.2365,0,11,11,0,1,1,image/1.jpg,0,0,,王子鸣,2,2024-05-31_01h12.35.507,face trait task chi,2021.2.3,Win32,161.2903226,,,,,,,
,,,,,,,,5.968365859,1.4115,space,0.1096,0,12,12,11,1,12,image/12.jpg,0,0,,王子鸣,2,2024-05-31_01h12.35.507,face trait task chi,2021.2.3,Win32,161.2903226,,,,,,,
,,,,,,,,4.010414683,1.6167,space,0.2854,0,13,13,38,1,39,image/39.jpg,0,0,,王子鸣,2,2024-05-31_01h12.35.507,face trait task chi,2021.2.3,Win32,161.2903226,,,,,,,
,,,,,,,,3.010609958,1.7502,space,0.1214,0,14,14,35,1,36,image/36.jpg,0,0,,王子鸣,2,2024-05-31_01h12.35.507,face trait task chi,2021.2.3,Win32,161.2903226,,,,,,,
,,,,,,,,1.923322319,1.677,space,0.3214,0,15,15,7,1,8,image/8.jpg,0,0,,王子鸣,2,2024-05-31_01h12.35.507,face trait task chi,2021.2.3,Win32,161.2903226,,,,,,,
,,,,,,,,5.993360977,1.7619,space,0.1273,0,16,16,46,1,47,image/47.jpg,0,0,,王子鸣,2,2024-05-31_01h12.35.507,face trait task chi,2021.2.3,Win32,161.2903226,,,,,,,
,,,,,,,,2.998112399,2.1799,space,0.2613,0,17,17,42,1,43,image/43.jpg,0,0,,王子鸣,2,2024-05-31_01h12.35.507,face trait task chi,2021.2.3,Win32,161.2903226,,,,,,,
,,,,,,,,1.219293031,1.8876,space,0.178,0,18,18,8,1,9,image/9.jpg,0,0,,王子鸣,2,2024-05-31_01h12.35.507,face trait task chi,2021.2.3,Win32,161.2903226,,,,,,,
,,,,,,,,1,2.3175,space,0.9397,0,19,19,50,1,54,image/fill_img.png,1,1,请将滑块完全移动到<左边>，以示您在专心判断。,王子鸣,2,2024-05-31_01h12.35.507,face trait task chi,2021.2.3,Win32,161.2903226,,,,,,,
,,,,,,,,2.014970831,1.6628,space,0.2566,0,20,20,13,1,14,image/14.jpg,0,0,,王子鸣,2,2024-05-31_01h12.35.507,face trait task chi,2021.2.3,Win32,161.2903226,,,,,,,
,,,,,,,,4.885243818,2.3245,space,0.4262,0,21,21,41,1,42,image/42.jpg,0,0,,王子鸣,2,2024-05-31_01h12.35.507,face trait task chi,2021.2.3,Win32,161.2903226,,,,,,,
,,,,,,,,3.977087605,2.8104,space,0.1838,0,22,22,10,1,11,image/11.jpg,0,0,,王子鸣,2,2024-05-31_01h12.35.507,face trait task chi,2021.2.3,Win32,161.2903226,,,,,,,
,,,,,,,,1.998307673,1.6758,space,0.2194,0,23,23,18,1,19,image/19.jpg,0,0,,王子鸣,2,2024-05-31_01h12.35.507,face trait task chi,2021.2.3,Win32,161.2903226,,,,,,,
,,,,,,,,6.010024135,2.5018,space,1.283,0,24,24,6,1,7,image/7.jpg,0,0,,王子鸣,2,2024-05-31_01h12.35.507,face trait task chi,2021.2.3,Win32,161.2903226,,,,,,,
,,,,,,,,5.985029017,2.2482,space,1.0105,0,25,25,20,1,21,image/21.jpg,0,0,,王子鸣,2,2024-05-31_01h12.35.507,face trait task chi,2021.2.3,Win32,161.2903226,,,,,,,
,,,,,,,,7,2.8145,space,0.7508,0,26,26,34,1,35,image/35.jpg,0,0,,王子鸣,2,2024-05-31_01h12.35.507,face trait task chi,2021.2.3,Win32,161.2903226,,,,,,,
,,,,,,,,2.006639252,2.0635,space,0.3152,0,27,27,14,1,15,image/15.jpg,0,0,,王子鸣,2,2024-05-31_01h12.35.507,face trait task chi,2021.2.3,Win32,161.2903226,,,,,,,
,,,,,,,,3.006443978,1.7603,space,0.3898,0,28,28,15,1,16,image/16.jpg,0,0,,王子鸣,2,2024-05-31_01h12.35.507,face trait task chi,2021.2.3,Win32,161.2903226,,,,,,,
,,,,,,,,2.010805232,2.0033,space,0.2196,0,29,29,24,1,25,image/25.jpg,0,0,,王子鸣,2,2024-05-31_01h12.35.507,face trait task chi,2021.2.3,Win32,161.2903226,,,,,,,
,,,,,,,,5.022716968,1.5181,space,0.2662,0,30,30,48,1,49,image/49.jpg,0,0,,王子鸣,2,2024-05-31_01h12.35.507,face trait task chi,2021.2.3,Win32,161.2903226,,,,,,,
,,,,,,,,2.085790587,2.3059,space,0.261,0,31,31,29,1,30,image/30.jpg,0,0,,王子鸣,2,2024-05-31_01h12.35.507,face trait task chi,2021.2.3,Win32,161.2903226,,,,,,,
,,,,,,,,4.99772185,1.7186,space,0.4064,0,32,32,33,1,34,image/34.jpg,0,0,,王子鸣,2,2024-05-31_01h12.35.507,face trait task chi,2021.2.3,Win32,161.2903226,,,,,,,
,,,,,,,,3.960424447,1.5477,space,0.3605,0,33,33,5,1,6,image/6.jpg,0,0,,王子鸣,2,2024-05-31_01h12.35.507,face trait task chi,2021.2.3,Win32,161.2903226,,,,,,,
,,,,,,,,5.985029017,2.5536,space,1.1697,0,34,34,3,1,4,image/4.jpg,0,0,,王子鸣,2,2024-05-31_01h12.35.507,face trait task chi,2021.2.3,Win32,161.2903226,,,,,,,
,,,,,,,,2.006639252,2.4345,space,0.2506,0,35,35,25,1,26,image/26.jpg,0,0,,王子鸣,2,2024-05-31_01h12.35.507,face trait task chi,2021.2.3,Win32,161.2903226,,,,,,,
,,,,,,,,2.023302791,1.8153,space,0.2785,0,36,36,1,1,2,image/2.jpg,0,0,,王子鸣,2,2024-05-31_01h12.35.507,face trait task chi,2021.2.3,Win32,161.2903226,,,,,,,
,,,,,,,,5.006053429,2.0515,space,0.2636,0,37,37,47,1,48,image/48.jpg,0,0,,王子鸣,2,2024-05-31_01h12.35.507,face trait task chi,2021.2.3,Win32,161.2903226,,,,,,,
,,,,,,,,2.03163437,1.5424,space,0.3057,0,38,38,45,1,46,image/46.jpg,0,0,,王子鸣,2,2024-05-31_01h12.35.507,face trait task chi,2021.2.3,Win32,161.2903226,,,,,,,
,,,,,,,,3.027273116,2.0104,space,0.2486,0,39,39,30,1,31,image/31.jpg,0,0,,王子鸣,2,2024-05-31_01h12.35.507,face trait task chi,2021.2.3,Win32,161.2903226,,,,,,,
,,,,,,,,2.014970831,1.9362,space,0.2226,0,40,40,12,1,13,image/13.jpg,0,0,,王子鸣,2,2024-05-31_01h12.35.507,face trait task chi,2021.2.3,Win32,161.2903226,,,,,,,
,,,,,,,,2.03163437,1.8473,space,0.3456,0,41,41,44,1,45,image/45.jpg,0,0,,王子鸣,2,2024-05-31_01h12.35.507,face trait task chi,2021.2.3,Win32,161.2903226,,,,,,,
,,,,,,,,2.952287761,2.5625,space,0.3502,0,42,42,27,1,28,image/28.jpg,0,0,,王子鸣,2,2024-05-31_01h12.35.507,face trait task chi,2021.2.3,Win32,161.2903226,,,,,,,
,,,,,,,,2.952287761,1.1067,space,0.263,0,43,43,17,1,18,image/18.jpg,0,0,,王子鸣,2,2024-05-31_01h12.35.507,face trait task chi,2021.2.3,Win32,161.2903226,,,,,,,
,,,,,,,,1,2.8635,space,1.0329,0,44,44,51,1,53,image/fill_img.png,1,1,请将滑块完全移动到<左边>，以示您在专心判断。,王子鸣,2,2024-05-31_01h12.35.507,face trait task chi,2021.2.3,Win32,161.2903226,,,,,,,
,,,,,,,,4.972726732,2.9674,space,0.2808,0,45,45,26,1,27,image/27.jpg,0,0,,王子鸣,2,2024-05-31_01h12.35.507,face trait task chi,2021.2.3,Win32,161.2903226,,,,,,,
,,,,,,,,2.977282879,1.7318,space,0.2806,0,46,46,32,1,33,image/33.jpg,0,0,,王子鸣,2,2024-05-31_01h12.35.507,face trait task chi,2021.2.3,Win32,161.2903226,,,,,,,
,,,,,,,,2.973117281,1.6266,space,0.6243,0,47,47,21,1,22,image/22.jpg,0,0,,王子鸣,2,2024-05-31_01h12.35.507,face trait task chi,2021.2.3,Win32,161.2903226,,,,,,,
,,,,,,,,4.981058311,2.2751,space,0.4385,0,48,48,37,1,38,image/38.jpg,0,0,,王子鸣,2,2024-05-31_01h12.35.507,face trait task chi,2021.2.3,Win32,161.2903226,,,,,,,
,,,,,,,,7,3.3421,space,1.9171,0,49,49,52,1,58,image/fill_img.png,1,7,请将滑块完全移动到<右边>，以示您在专心判断。,王子鸣,2,2024-05-31_01h12.35.507,face trait task chi,2021.2.3,Win32,161.2903226,,,,,,,
,,,,,,,,5.989194615,2.0753,space,0.2286,0,50,50,2,1,3,image/3.jpg,0,0,,王子鸣,2,2024-05-31_01h12.35.507,face trait task chi,2021.2.3,Win32,161.2903226,,,,,,,
,,,,,,,,5.976697056,2.2589,space,0.2969,0,51,51,49,1,50,image/50.jpg,0,0,,王子鸣,2,2024-05-31_01h12.35.507,face trait task chi,2021.2.3,Win32,161.2903226,,,,,,,
,,,,,,,,1.994141693,1.7024,space,0.207,0,52,52,16,1,17,image/17.jpg,0,0,,王子鸣,2,2024-05-31_01h12.35.507,face trait task chi,2021.2.3,Win32,161.2903226,,,,,,,
,,,,,,,,,,,,,,,,,,,,,,王子鸣,2,2024-05-31_01h12.35.507,face trait task chi,2021.2.3,Win32,161.2903226,0,2,2,3,1,3,friendly.png
,,,,,trustworthy,space,5.7978,2.056629488,2.1629,space,0.37,0,0,0,40,1,41,image/41.jpg,0,0,,王子鸣,2,2024-05-31_01h12.35.507,face trait task chi,2021.2.3,Win32,161.2903226,,,,,,,
,,,,,,,,4.99355587,1.8346,space,0.2313,0,1,1,29,1,30,image/30.jpg,0,0,,王子鸣,2,2024-05-31_01h12.35.507,face trait task chi,2021.2.3,Win32,161.2903226,,,,,,,
,,,,,,,,4.99355587,1.8274,space,0.2546,0,2,2,5,1,6,image/6.jpg,0,0,,王子鸣,2,2024-05-31_01h12.35.507,face trait task chi,2021.2.3,Win32,161.2903226,,,,,,,
,,,,,,,,6.030853654,2.2843,space,0.2427,0,3,3,2,1,3,image/3.jpg,0,0,,王子鸣,2,2024-05-31_01h12.35.507,face trait task chi,2021.2.3,Win32,161.2903226,,,,,,,
,,,,,,,,2.981448859,2.0578,space,0.2868,0,4,4,42,1,43,image/43.jpg,0,0,,王子鸣,2,2024-05-31_01h12.35.507,face trait task chi,2021.2.3,Win32,161.2903226,,,,,,,
,,,,,,,,3.031439096,1.1568,space,0.7336,0,5,5,46,1,47,image/47.jpg,0,0,,王子鸣,2,2024-05-31_01h12.35.507,face trait task chi,2021.2.3,Win32,161.2903226,,,,,,,
,,,,,,,,2.03580035,1.2819,space,0.6362,0,6,6,45,1,46,image/46.jpg,0,0,,王子鸣,2,2024-05-31_01h12.35.507,face trait task chi,2021.2.3,Win32,161.2903226,,,,,,,
,,,,,,,,6.001692174,3.1789,space,0.9064,0,7,7,34,1,35,image/35.jpg,0,0,,王子鸣,2,2024-05-31_01h12.35.507,face trait task chi,2021.2.3,Win32,161.2903226,,,,,,,
,,,,,,,,3.993751144,1.8629,space,0.7354,0,8,8,12,1,13,image/13.jpg,0,0,,王子鸣,2,2024-05-31_01h12.35.507,face trait task chi,2021.2.3,Win32,161.2903226,,,,,,,
,,,,,,,,3.006443978,1.7984,space,0.8208,0,9,9,30,1,31,image/31.jpg,0,0,,王子鸣,2,2024-05-31_01h12.35.507,face trait task chi,2021.2.3,Win32,161.2903226,,,,,,,
,,,,,,,,2.010805232,1.8463,space,0.7615,0,10,10,1,1,2,image/2.jpg,0,0,,王子鸣,2,2024-05-31_01h12.35.507,face trait task chi,2021.2.3,Win32,161.2903226,,,,,,,
,,,,,,,,3.010609958,1.5178,space,0.5236,0,11,11,26,1,27,image/27.jpg,0,0,,王子鸣,2,2024-05-31_01h12.35.507,face trait task chi,2021.2.3,Win32,161.2903226,,,,,,,
,,,,,,,,3.906268231,2.2164,space,0.631,0,12,12,19,1,20,image/20.jpg,0,0,,王子鸣,2,2024-05-31_01h12.35.507,face trait task chi,2021.2.3,Win32,161.2903226,,,,,,,
,,,,,,,,4.985224291,1.5019,space,0.5585,0,13,13,44,1,45,image/45.jpg,0,0,,王子鸣,2,2024-05-31_01h12.35.507,face trait task chi,2021.2.3,Win32,161.2903226,,,,,,,
,,,,,,,,6.014189733,2.0273,space,0.5769,0,14,14,37,1,38,image/38.jpg,0,0,,王子鸣,2,2024-05-31_01h12.35.507,face trait task chi,2021.2.3,Win32,161.2903226,,,,,,,
,,,,,,,,6.018356095,1.5195,space,0.5596,0,15,15,4,1,5,image/5.jpg,0,0,,王子鸣,2,2024-05-31_01h12.35.507,face trait task chi,2021.2.3,Win32,161.2903226,,,,,,,
,,,,,,,,2.96478532,1.8214,space,0.5534,0,16,16,13,1,14,image/14.jpg,0,0,,王子鸣,2,2024-05-31_01h12.35.507,face trait task chi,2021.2.3,Win32,161.2903226,,,,,,,
,,,,,,,,1,2.0806,space,1.4263,0,17,17,51,1,53,image/fill_img.png,1,1,请将滑块完全移动到<左边>，以示您在专心判断。,王子鸣,2,2024-05-31_01h12.35.507,face trait task chi,2021.2.3,Win32,161.2903226,,,,,,,
,,,,,,,,1.994141693,1.6935,space,0.5497,0,18,18,31,1,32,image/32.jpg,0,0,,王子鸣,2,2024-05-31_01h12.35.507,face trait task chi,2021.2.3,Win32,161.2903226,,,,,,,
,,,,,,,,2.977282879,1.8041,space,0.5476,0,19,19,0,1,1,image/1.jpg,0,0,,王子鸣,2,2024-05-31_01h12.35.507,face trait task chi,2021.2.3,Win32,161.2903226,,,,,,,
,,,,,,,,3.064765793,1.9867,space,0.6387,0,20,20,25,1,26,image/26.jpg,0,0,,王子鸣,2,2024-05-31_01h12.35.507,face trait task chi,2021.2.3,Win32,161.2903226,,,,,,,
,,,,,,,,1.502570909,1.9003,space,1.0485,0,21,21,9,1,10,image/10.jpg,0,0,,王子鸣,2,2024-05-31_01h12.35.507,face trait task chi,2021.2.3,Win32,161.2903226,,,,,,,
,,,,,,,,5.068541606,2.0046,space,0.7451,0,22,22,33,1,34,image/34.jpg,0,0,,王子鸣,2,2024-05-31_01h12.35.507,face trait task chi,2021.2.3,Win32,161.2903226,,,,,,,
,,,,,,,,3.014775557,1.5383,space,0.5484,0,23,23,23,1,24,image/24.jpg,0,0,,王子鸣,2,2024-05-31_01h12.35.507,face trait task chi,2021.2.3,Win32,161.2903226,,,,,,,
,,,,,,,,6.022521694,2.3002,space,2.5151,0,24,24,3,1,4,image/4.jpg,0,0,,王子鸣,2,2024-05-31_01h12.35.507,face trait task chi,2021.2.3,Win32,161.2903226,,,,,,,
,,,,,,,,3.002277997,3.7743,space,0.9722,0,25,25,38,1,39,image/39.jpg,0,0,,王子鸣,2,2024-05-31_01h12.35.507,face trait task chi,2021.2.3,Win32,161.2903226,,,,,,,
,,,,,,,,3.531341459,2.0594,space,0.8002,0,26,26,20,1,21,image/21.jpg,0,0,,王子鸣,2,2024-05-31_01h12.35.507,face trait task chi,2021.2.3,Win32,161.2903226,,,,,,,
,,,,,,,,2.98561484,3.1314,space,1.1193,0,27,27,22,1,23,image/23.jpg,0,0,,王子鸣,2,2024-05-31_01h12.35.507,face trait task chi,2021.2.3,Win32,161.2903226,,,,,,,
,,,,,,,,2.4482198,6.8507,space,0.5323,0,28,28,32,1,33,image/33.jpg,0,0,,王子鸣,2,2024-05-31_01h12.35.507,face trait task chi,2021.2.3,Win32,161.2903226,,,,,,,
,,,,,,,,4.268697444,1.7543,space,0.8508,0,29,29,43,1,44,image/44.jpg,0,0,,王子鸣,2,2024-05-31_01h12.35.507,face trait task chi,2021.2.3,Win32,161.2903226,,,,,,,
,,,,,,,,2.314912249,1.9904,space,0.812,0,30,30,21,1,22,image/22.jpg,0,0,,王子鸣,2,2024-05-31_01h12.35.507,face trait task chi,2021.2.3,Win32,161.2903226,,,,,,,
,,,,,,,,5.014385008,2.6406,space,0.6305,0,31,31,6,1,7,image/7.jpg,0,0,,王子鸣,2,2024-05-31_01h12.35.507,face trait task chi,2021.2.3,Win32,161.2903226,,,,,,,
,,,,,,,,2.189936658,1.7298,space,1.5172,0,32,32,18,1,19,image/19.jpg,0,0,,王子鸣,2,2024-05-31_01h12.35.507,face trait task chi,2021.2.3,Win32,161.2903226,,,,,,,
,,,,,,,,2.006639252,1.9439,space,1.5458,0,33,33,8,1,9,image/9.jpg,0,0,,王子鸣,2,2024-05-31_01h12.35.507,face trait task chi,2021.2.3,Win32,161.2903226,,,,,,,
,,,,,,,,4.881077838,8.5328,space,0.5125,0,34,34,47,1,48,image/48.jpg,0,0,,王子鸣,2,2024-05-31_01h12.35.507,face trait task chi,2021.2.3,Win32,161.2903226,,,,,,,
,,,,,,,,3.439692565,2.1726,space,1.539,0,35,35,7,1,8,image/8.jpg,0,0,,王子鸣,2,2024-05-31_01h12.35.507,face trait task chi,2021.2.3,Win32,161.2903226,,,,,,,
,,,,,,,,3.023107517,2.5818,space,1.6667,0,36,36,48,1,49,image/49.jpg,0,0,,王子鸣,2,2024-05-31_01h12.35.507,face trait task chi,2021.2.3,Win32,161.2903226,,,,,,,
,,,,,,,,2.148278382,1.4214,space,0.6392,0,37,37,15,1,16,image/16.jpg,0,0,,王子鸣,2,2024-05-31_01h12.35.507,face trait task chi,2021.2.3,Win32,161.2903226,,,,,,,
,,,,,,,,5.81839515,1.9001,space,0.6058,0,38,38,27,1,28,image/28.jpg,0,0,,王子鸣,2,2024-05-31_01h12.35.507,face trait task chi,2021.2.3,Win32,161.2903226,,,,,,,
,,,,,,,,2.319078229,1.471,space,0.6147,0,39,39,14,1,15,image/15.jpg,0,0,,王子鸣,2,2024-05-31_01h12.35.507,face trait task chi,2021.2.3,Win32,161.2903226,,,,,,,
,,,,,,,,5.701750757,1.6639,space,0.6295,0,40,40,41,1,42,image/42.jpg,0,0,,王子鸣,2,2024-05-31_01h12.35.507,face trait task chi,2021.2.3,Win32,161.2903226,,,,,,,
,,,,,,,,1,3.0866,space,1.2789,0,41,41,50,1,54,image/fill_img.png,1,1,请将滑块完全移动到<左边>，以示您在专心判断。,王子鸣,2,2024-05-31_01h12.35.507,face trait task chi,2021.2.3,Win32,161.2903226,,,,,,,
,,,,,,,,1.831673425,1.3968,space,0.6582,0,42,42,24,1,25,image/25.jpg,0,0,,王子鸣,2,2024-05-31_01h12.35.507,face trait task chi,2021.2.3,Win32,161.2903226,,,,,,,
,,,,,,,,2.231595315,1.4172,space,0.5459,0,43,43,28,1,29,image/29.jpg,0,0,,王子鸣,2,2024-05-31_01h12.35.507,face trait task chi,2021.2.3,Win32,161.2903226,,,,,,,
,,,,,,,,1.652541618,1.494,space,0.594,0,44,44,49,1,50,image/50.jpg,0,0,,王子鸣,2,2024-05-31_01h12.35.507,face trait task chi,2021.2.3,Win32,161.2903226,,,,,,,
,,,,,,,,1.602551382,1.5606,space,0.7727,0,45,45,16,1,17,image/17.jpg,0,0,,王子鸣,2,2024-05-31_01h12.35.507,face trait task chi,2021.2.3,Win32,161.2903226,,,,,,,
,,,,,,,,2.264922012,1.7379,space,0.5391,0,46,46,11,1,12,image/12.jpg,0,0,,王子鸣,2,2024-05-31_01h12.35.507,face trait task chi,2021.2.3,Win32,161.2903226,,,,,,,
,,,,,,,,7,2.9542,space,1.5059,0,47,47,52,1,58,image/fill_img.png,1,7,请将滑块完全移动到<右边>，以示您在专心判断。,王子鸣,2,2024-05-31_01h12.35.507,face trait task chi,2021.2.3,Win32,161.2903226,,,,,,,
,,,,,,,,2.02746839,1.5261,space,0.5855,0,48,48,17,1,18,image/18.jpg,0,0,,王子鸣,2,2024-05-31_01h12.35.507,face trait task chi,2021.2.3,Win32,161.2903226,,,,,,,
,,,,,,,,4.98938989,3.0588,space,0.8747,0,49,49,39,1,40,image/40.jpg,0,0,,王子鸣,2,2024-05-31_01h12.35.507,face trait task chi,2021.2.3,Win32,161.2903226,,,,,,,
,,,,,,,,3.027273116,1.7816,space,1.0851,0,50,50,36,1,37,image/37.jpg,0,0,,王子鸣,2,2024-05-31_01h12.35.507,face trait task chi,2021.2.3,Win32,161.2903226,,,,,,,
,,,,,,,,6.001692174,2.9692,space,0.5701,0,51,51,35,1,36,image/36.jpg,0,0,,王子鸣,2,2024-05-31_01h12.35.507,face trait task chi,2021.2.3,Win32,161.2903226,,,,,,,
,,,,,,,,2.006639252,1.4093,space,0.5717,0,52,52,10,1,11,image/11.jpg,0,0,,王子鸣,2,2024-05-31_01h12.35.507,face trait task chi,2021.2.3,Win32,161.2903226,,,,,,,
,,,,,,,,,,,,,,,,,,,,,,王子鸣,2,2024-05-31_01h12.35.507,face trait task chi,2021.2.3,Win32,161.2903226,0,3,3,2,1,2,trustworthy.png