﻿chooserow,ParID,pre_instru_resp_2.keys,pre_instru_resp_2.rt,pre_instru_resp_3.keys,pre_instru_resp_3.rt,pre_instru_resp_9.keys,pre_instru_resp_9.rt,pre_instru_resp_8.keys,pre_instru_resp_8.rt,pre_instru_resp_4.keys,pre_instru_resp_4.rt,pre_instru_resp_5.keys,pre_instru_resp_5.rt,pre_instru_resp_6.keys,pre_instru_resp_6.rt,key_resp_3.keys,key_resp_3.rt,key_resp_4.keys,key_resp_4.rt,key_resp_5.keys,key_resp_5.rt,key_resp_6.keys,key_resp_6.rt,key_resp_7.keys,key_resp_7.rt,trials_2.thisRepN,trials_2.thisTrialN,trials_2.thisN,trials_2.thisIndex,trials_2.ran,participant,session,date,expName,psychopyVersion,OS,frameRate,pre_instru_resp.keys,pre_instru_resp.rt,clicked,judge_2.x,judge_2.y,judge_2.leftButton,judge_2.midButton,judge_2.rightButton,judge_2.clicked_name,trials.thisRepN,trials.thisTrialN,trials.thisN,trials.thisIndex,trials.ran,prac_answer,prac_dot_sti,dotlefttext,dotrighttext,prac_acc,judge.x,judge.y,judge.leftButton,judge.midButton,judge.rightButton,judge.clicked_name,clicked_guilt,slider_guilt.response,slider_guilt.rt,key_guilt.keys,share_slider.response,share_slider.rt,key_share.keys,slider_apology.response,slider_apology.rt,key_apology.keys,slider_hide.response,slider_hide.rt,slider_forgiveness.response,slider_forgiveness.rt,key_forgiveness.keys,slider_mad.response,slider_mad.rt,trialseq.thisRepN,trialseq.thisTrialN,trialseq.thisN,trialseq.thisIndex,trialseq.ran,type_trial,stipic,DV,picture,answer,number,key_share.rt,key_forgiveness.rt,key_apology.rt,key_guilt.rt,slider_friendly.response,slider_friendly.rt,slider_trustworthy.response,slider_trustworthy.rt,slider_competence.response,slider_competence.rt,slider_critical.response,slider_critical.rt,key_resp.keys,key_resp.rt
"[47,67,141,116,159,74,88,77,129,103,50,158,146,164,138,186,102,55,122,184,144,170,80,201,65,86,21,93,154,27,177,112,192,105,110,0,48,189,131,69,134,179]",sppq,space,41.6512,space,1.1422,space,0.8404,space,1.2141,space,22.1976,space,1.1347,space,0.5395,3,2.1294,1,1.567,3,1.3255,2,1.3565,2,0.8785,0,0,0,0,1,sppq,1,2024-05-31_02h06.47.945,interaction task chi,2021.2.3,Win32,165.0165017,,,,,,,,,,,,,,,,,,,,,,,,,,,,,,,,,,,,,,,,,,,,,,,,,,,,,,,,,,,,,,,,,,,
,,,,,,,,,,,,,,,,,,,,,,,,,,,,,,,sppq,1,2024-05-31_02h06.47.945,interaction task chi,2021.2.3,Win32,165.0165017,space,25.3032,"[""RightButton_2""]",0.272407771,-0.294444568,1,0,0,RightButton_2,0,0,0,2,1,LeftButton_2,9dot2.png,小于,大于,,,,,,,,,,,,,,,,,,,,,,,,,,,,,,,,,,,,,,,,,,,,,,,,,
,,,,,,,,,,,,,,,,,,,,,,,,,,,,,,,sppq,1,2024-05-31_02h06.47.945,interaction task chi,2021.2.3,Win32,165.0165017,,,"[""LeftButton_2""]",-0.240773264,-0.345833373,1,0,0,LeftButton_2,0,1,1,1,1,LeftButton_2,11dot1.png,大于,小于,,,,,,,,,,,,,,,,,,,,,,,,,,,,,,,,,,,,,,,,,,,,,,,,,
,,,,,,,,,,,,,,,,,,,,,,,,,,,,,,,sppq,1,2024-05-31_02h06.47.945,interaction task chi,2021.2.3,Win32,165.0165017,,,"[""RightButton_2""]",0.255223627,-0.315277902,1,0,0,RightButton_2,0,2,2,0,1,RightButton_2,11dot1.png,小于,大于,,,,,,,,,,,,,,,,,,,,,,,,,,,,,,,,,,,,,,,,,,,,,,,,,
,,,,,,,,,,,,,,,,,,,,,,,,,,,,,,,sppq,1,2024-05-31_02h06.47.945,interaction task chi,2021.2.3,Win32,165.0165017,,,,,,,,,,,,,,,,,小于,大于,0.4,-0.277484845,-0.536111157,1,0,0,LeftButton,"[""LeftButton""]",,,,,,,,,,,,,,,,,0,0,0,0,1,0,both_right.png,3,RandomDot13.png,No answer,19,,,,,,,,,,,,,,
,,,,,,,,,,,,,,,,,,,,,,,,,,,,,,,sppq,1,2024-05-31_02h06.47.945,interaction task chi,2021.2.3,Win32,165.0165017,,,,,,,,,,,,,,,,,小于,大于,,-0.277484845,-0.536111157,1,0,0,LeftButton,"[""LeftButton""]",,,,0.631589223,5.3912,space,,,,,,,,,,,0,1,1,1,1,1,both_wrong.png,1,RandomDot17.png,No answer,20,1.1565,,,,,,,,,,,,,
,,,,,,,,,,,,,,,,,,,,,,,,,,,,,,,sppq,1,2024-05-31_02h06.47.945,interaction task chi,2021.2.3,Win32,165.0165017,,,,,,,,,,,,,,,,,小于,大于,,0.250537042,-0.518055601,1,0,0,RightButton,"[""RightButton""]",,,,,,,,,,,,91.37430472,3.5367,space,6.338078386,4.4656,0,2,2,2,1,2,only_sub_right.png,3,RandomDot7.png,No answer,20,,0.9527,,,,,,,,,,,,
,,,,,,,,,,,,,,,,,,,,,,,,,,,,,,,sppq,1,2024-05-31_02h06.47.945,interaction task chi,2021.2.3,Win32,165.0165017,,,,,,,,,,,,,,,,,小于,大于,,0.247412747,-0.525000045,1,0,0,RightButton,"[""RightButton""]",,,,0.4402576,2.4957,space,,,,,,,,,,,0,3,3,3,1,2,only_sub_right.png,1,RandomDot25.png,No answer,19,0.7024,,,,,,,,,,,,,
,,,,,,,,,,,,,,,,,,,,,,,,,,,,,,,sppq,1,2024-05-31_02h06.47.945,interaction task chi,2021.2.3,Win32,165.0165017,,,,,,,,,,,,,,,,,大于,小于,,0.299746182,-0.548611157,1,0,0,RightButton,"[""RightButton""]",,,,0.932252895,1.6241,space,,,,,,,,,,,0,4,4,4,1,3,only_sub_wrong.png,1,RandomDot11.png,No answer,20,1.5322,,,,,,,,,,,,,
,,,,,,,,,,,,,,,,,,,,,,,,,,,,,,,sppq,1,2024-05-31_02h06.47.945,interaction task chi,2021.2.3,Win32,165.0165017,,,,,,,,,,,,,,,,,大于,小于,,-0.330599425,-0.515277823,1,0,0,LeftButton,"[""LeftButton""]",,,,,,,18,3.6941,space,15,4.886,,,,,,0,5,5,5,1,1,both_wrong.png,2,RandomDot16.png,No answer,20,,,1.7194,,,,,,,,,,,
,,,,,,,,,,,,,,,,,,,,,,,,,,,,,,,sppq,1,2024-05-31_02h06.47.945,interaction task chi,2021.2.3,Win32,165.0165017,,,,,,,,,,,,,,,,,大于,小于,,-0.251708628,-0.498611156,1,0,0,LeftButton,"[""LeftButton""]",,,,,,,,,,,,66.68382171,11.9497,space,13.51646333,8.3808,0,6,6,6,1,1,both_wrong.png,3,RandomDot30.png,No answer,20,,3.8607,,,,,,,,,,,,
,,,,,,,,,,,,,,,,,,,,,,,,,,,,,,,sppq,1,2024-05-31_02h06.47.945,interaction task chi,2021.2.3,Win32,165.0165017,,,,,,,,,,,,,,,,,大于,小于,,-0.299355574,-0.54444449,1,0,0,LeftButton,"[""LeftButton""]",,,,,,,53,4.1731,space,43,5.2198,,,,,,0,7,7,7,1,1,both_wrong.png,2,RandomDot13.png,No answer,21,,,0.2057,,,,,,,,,,,
,,,,,,,,,,,,,,,,,,,,,,,,,,,,,,,sppq,1,2024-05-31_02h06.47.945,interaction task chi,2021.2.3,Win32,165.0165017,,,,,,,,,,,,,,,,,小于,大于,,-0.243116556,-0.461111155,1,0,0,LeftButton,"[""LeftButton""]",,,,,,,18,5.6895,space,7,7.055,,,,,,0,8,8,8,1,2,only_sub_right.png,2,RandomDot37.png,No answer,19,,,4.7673,,,,,,,,,,,
,,,,,,,,,,,,,,,,,,,,,,,,,,,,,,,sppq,1,2024-05-31_02h06.47.945,interaction task chi,2021.2.3,Win32,165.0165017,,,,,,,,,,,,,,,,,小于,大于,,0.239601677,-0.475000044,1,0,0,RightButton,"[""RightButton""]",4,3.3674,space,,,,,,,,,,,,,,0,9,9,9,1,2,only_sub_right.png,0,RandomDot21.png,No answer,21,,,,2.5397,,,,,,,,,,
,,,,,,,,,,,,,,,,,,,,,,,,,,,,,,,sppq,1,2024-05-31_02h06.47.945,interaction task chi,2021.2.3,Win32,165.0165017,,,,,,,,,,,,,,,,,大于,小于,,-0.288420162,-0.504166711,1,0,0,LeftButton,"[""LeftButton""]",9,0.9087,space,,,,,,,,,,,,,,0,10,10,10,1,1,both_wrong.png,0,RandomDot12.png,No answer,21,,,,0.5264,,,,,,,,,,
,,,,,,,,,,,,,,,,,,,,,,,,,,,,,,,sppq,1,2024-05-31_02h06.47.945,interaction task chi,2021.2.3,Win32,165.0165017,,,,,,,,,,,,,,,,,大于,小于,,-0.304042159,-0.541666713,1,0,0,LeftButton,"[""LeftButton""]",,,,1.455486226,1.4118,space,,,,,,,,,,,0,11,11,11,1,3,only_sub_wrong.png,1,RandomDot1.png,No answer,19,0.4162,,,,,,,,,,,,,
,,,,,,,,,,,,,,,,,,,,,,,,,,,,,,,sppq,1,2024-05-31_02h06.47.945,interaction task chi,2021.2.3,Win32,165.0165017,,,,,,,,,,,,,,,,,大于,小于,,0.236477287,-0.526388934,1,0,0,RightButton,"[""RightButton""]",65,2.1496,space,,,,,,,,,,,,,,0,12,12,12,1,3,only_sub_wrong.png,0,RandomDot38.png,No answer,21,,,,0.7751,,,,,,,,,,
,,,,,,,,,,,,,,,,,,,,,,,,,,,,,,,sppq,1,2024-05-31_02h06.47.945,interaction task chi,2021.2.3,Win32,165.0165017,,,,,,,,,,,,,,,,,小于,大于,,-0.321226255,-0.538888935,1,0,0,LeftButton,"[""LeftButton""]",,,,1.6897697,2.2523,space,,,,,,,,,,,0,13,13,13,1,3,only_sub_wrong.png,1,RandomDot40.png,No answer,19,0.7826,,,,,,,,,,,,,
,,,,,,,,,,,,,,,,,,,,,,,,,,,,,,,sppq,1,2024-05-31_02h06.47.945,interaction task chi,2021.2.3,Win32,165.0165017,,,,,,,,,,,,,,,,,小于,大于,,-0.260300653,-0.486111155,1,0,0,LeftButton,"[""LeftButton""]",,,,,,,,,,,,77.09642778,2.9984,space,10.83442789,3.9302,0,14,14,14,1,2,only_sub_right.png,3,RandomDot25.png,No answer,21,,0.3163,,,,,,,,,,,,
,,,,,,,,,,,,,,,,,,,,,,,,,,,,,,,sppq,1,2024-05-31_02h06.47.945,interaction task chi,2021.2.3,Win32,165.0165017,,,,,,,,,,,,,,,,,小于,大于,,-0.249365336,-0.501388934,1,0,0,LeftButton,"[""LeftButton""]",,,,,,,,,,,,71.96900687,3.9123,space,47.51517383,5.232,0,15,15,15,1,3,only_sub_wrong.png,3,RandomDot9.png,No answer,19,,0.7057,,,,,,,,,,,,
,,,,,,,,,,,,,,,,,,,,,,,,,,,,,,,sppq,1,2024-05-31_02h06.47.945,interaction task chi,2021.2.3,Win32,165.0165017,,,,,,,,,,,,,,,,,小于,大于,,-0.262643945,-0.527777823,1,0,0,LeftButton,"[""LeftButton""]",3,1.3028,space,,,,,,,,,,,,,,0,16,16,16,1,2,only_sub_right.png,0,RandomDot16.png,No answer,21,,,,0.4376,,,,,,,,,,
,,,,,,,,,,,,,,,,,,,,,,,,,,,,,,,sppq,1,2024-05-31_02h06.47.945,interaction task chi,2021.2.3,Win32,165.0165017,,,,,,,,,,,,,,,,,小于,大于,,-0.26654948,-0.516666712,1,0,0,LeftButton,"[""LeftButton""]",23,5.6189,space,,,,,,,,,,,,,,0,17,17,17,1,1,both_wrong.png,0,RandomDot28.png,No answer,19,,,,4.1109,,,,,,,,,,
,,,,,,,,,,,,,,,,,,,,,,,,,,,,,,,sppq,1,2024-05-31_02h06.47.945,interaction task chi,2021.2.3,Win32,165.0165017,,,,,,,,,,,,,,,,,大于,小于,,-0.248584191,-0.491666711,1,0,0,LeftButton,"[""LeftButton""]",,,,,,,17,3.2591,space,11,4.1885,,,,,,0,18,18,18,1,2,only_sub_right.png,2,RandomDot33.png,No answer,20,,,0.425,,,,,,,,,,,
,,,,,,,,,,,,,,,,,,,,,,,,,,,,,,,sppq,1,2024-05-31_02h06.47.945,interaction task chi,2021.2.3,Win32,165.0165017,,,,,,,,,,,,,,,,,大于,小于,,0.253661432,-0.506944489,1,0,0,RightButton,"[""RightButton""]",,,,,,,,,,,,38.04917488,2.2146,space,74.3355066,3.4079,0,19,19,19,1,3,only_sub_wrong.png,3,RandomDot20.png,No answer,20,,0.3325,,,,,,,,,,,,
,,,,,,,,,,,,,,,,,,,,,,,,,,,,,,,sppq,1,2024-05-31_02h06.47.945,interaction task chi,2021.2.3,Win32,165.0165017,,,,,,,,,,,,,,,,,大于,小于,,-0.246240898,-0.477777822,1,0,0,LeftButton,"[""LeftButton""]",65,2.6026,space,,,,,,,,,,,,,,0,20,20,20,1,3,only_sub_wrong.png,0,RandomDot33.png,No answer,19,,,,0.8415,,,,,,,,,,
,,,,,,,,,,,,,,,,,,,,,,,,,,,,,,,sppq,1,2024-05-31_02h06.47.945,interaction task chi,2021.2.3,Win32,165.0165017,,,,,,,,,,,,,,,,,大于,小于,,0.322398104,-0.537500046,1,0,0,RightButton,"[""RightButton""]",,,,,,,72,2.1738,space,22,4.8529,,,,,,0,21,21,21,1,3,only_sub_wrong.png,2,RandomDot39.png,No answer,20,,,1.1751,,,,,,,,,,,
,,,,,,,,,,,,,,,,,,,,,,,,,,,,,,,sppq,1,2024-05-31_02h06.47.945,interaction task chi,2021.2.3,Win32,165.0165017,,,,,,,,,,,,,,,,,小于,大于,,-0.299355574,-0.497222267,1,0,0,LeftButton,"[""LeftButton""]",,,,,,,9,2.2898,space,9,2.9742,,,,,,0,22,22,22,1,1,both_wrong.png,2,RandomDot8.png,No answer,20,,,1.174,,,,,,,,,,,
,,,,,,,,,,,,,,,,,,,,,,,,,,,,,,,sppq,1,2024-05-31_02h06.47.945,interaction task chi,2021.2.3,Win32,165.0165017,,,,,,,,,,,,,,,,,小于,大于,,0.286467525,-0.54444449,1,0,0,RightButton,"[""RightButton""]",,,,,,,,,,,,,,,,,0,23,23,23,1,5,both_right.png,10,RandomDot42.png,LeftButton,19,,,,,,,,,,,,,,
,,,,,,,,,,,,,,,,,,,,,,,,,,,,,,,sppq,1,2024-05-31_02h06.47.945,interaction task chi,2021.2.3,Win32,165.0165017,,,,,,,,,,,,,,,,,大于,小于,,-0.27279826,-0.495833378,1,0,0,LeftButton,"[""LeftButton""]",,,,1.732721551,5.7556,space,,,,,,,,,,,0,24,24,24,1,1,both_wrong.png,1,RandomDot26.png,No answer,21,1.0829,,,,,,,,,,,,,
,,,,,,,,,,,,,,,,,,,,,,,,,,,,,,,sppq,1,2024-05-31_02h06.47.945,interaction task chi,2021.2.3,Win32,165.0165017,,,,,,,,,,,,,,,,,大于,小于,,-0.278265942,-0.526388934,1,0,0,LeftButton,"[""LeftButton""]",,,,,,,,,,,,65.10615763,1.3049,space,19.1960627,2.4763,0,25,25,25,1,1,both_wrong.png,3,RandomDot13.png,No answer,21,,1.0455,,,,,,,,,,,,
,,,,,,,,,,,,,,,,,,,,,,,,,,,,,,,sppq,1,2024-05-31_02h06.47.945,interaction task chi,2021.2.3,Win32,165.0165017,,,,,,,,,,,,,,,,,小于,大于,,-0.330599425,-0.547222268,1,0,0,LeftButton,"[""LeftButton""]",,,,,,,,,,,,,,,,,0,26,26,26,1,0,both_right.png,1,RandomDot8.png,No answer,21,,,,,,,,,,,,,,
,,,,,,,,,,,,,,,,,,,,,,,,,,,,,,,sppq,1,2024-05-31_02h06.47.945,interaction task chi,2021.2.3,Win32,165.0165017,,,,,,,,,,,,,,,,,小于,大于,,-0.254051921,-0.486111155,1,0,0,LeftButton,"[""LeftButton""]",,,,,,,,,,,,82.14495574,1.934,space,15.17301315,2.8845,0,27,27,27,1,1,both_wrong.png,3,RandomDot12.png,No answer,21,,0.5682,,,,,,,,,,,,
,,,,,,,,,,,,,,,,,,,,,,,,,,,,,,,sppq,1,2024-05-31_02h06.47.945,interaction task chi,2021.2.3,Win32,165.0165017,,,,,,,,,,,,,,,,,小于,大于,,-0.306385451,-0.476388933,1,0,0,LeftButton,"[""LeftButton""]",74,1.5686,space,,,,,,,,,,,,,,0,28,28,28,1,3,only_sub_wrong.png,0,RandomDot25.png,No answer,21,,,,0.2643,,,,,,,,,,
,,,,,,,,,,,,,,,,,,,,,,,,,,,,,,,sppq,1,2024-05-31_02h06.47.945,interaction task chi,2021.2.3,Win32,165.0165017,,,,,,,,,,,,,,,,,大于,小于,,0.280999843,-0.518055601,1,0,0,RightButton,"[""RightButton""]",,,,,,,,,,,,,,,,,0,29,29,29,1,0,both_right.png,2,RandomDot28.png,No answer,21,,,,,,,,,,,,,,
,,,,,,,,,,,,,,,,,,,,,,,,,,,,,,,sppq,1,2024-05-31_02h06.47.945,interaction task chi,2021.2.3,Win32,165.0165017,,,,,,,,,,,,,,,,,小于,大于,,0.245069455,-0.506944489,1,0,0,RightButton,"[""RightButton""]",,,,,,,71,1.9908,space,70,3.663,,,,,,0,30,30,30,1,3,only_sub_wrong.png,2,RandomDot31.png,No answer,19,,,1.269,,,,,,,,,,,
,,,,,,,,,,,,,,,,,,,,,,,,,,,,,,,sppq,1,2024-05-31_02h06.47.945,interaction task chi,2021.2.3,Win32,165.0165017,,,,,,,,,,,,,,,,,大于,小于,,0.247412747,-0.504166711,1,0,0,RightButton,"[""RightButton""]",,,,0.131784418,1.3167,space,,,,,,,,,,,0,31,31,31,1,2,only_sub_right.png,1,RandomDot32.png,No answer,19,0.312,,,,,,,,,,,,,
,,,,,,,,,,,,,,,,,,,,,,,,,,,,,,,sppq,1,2024-05-31_02h06.47.945,interaction task chi,2021.2.3,Win32,165.0165017,,,,,,,,,,,,,,,,,大于,小于,,0.311462644,-0.51944449,1,0,0,RightButton,"[""RightButton""]",,,,,,,,,,,,,,,,,0,32,32,32,1,4,both_right.png,10,RandomDot41.png,LeftButton,5,,,,,,,,,,,,,,
,,,,,,,,,,,,,,,,,,,,,,,,,,,,,,,sppq,1,2024-05-31_02h06.47.945,interaction task chi,2021.2.3,Win32,165.0165017,,,,,,,,,,,,,,,,,小于,大于,,-0.254051921,-0.529166712,1,0,0,LeftButton,"[""LeftButton""]",3,2.0446,space,,,,,,,,,,,,,,0,33,33,33,1,2,only_sub_right.png,0,RandomDot17.png,No answer,20,,,,0.3782,,,,,,,,,,
,,,,,,,,,,,,,,,,,,,,,,,,,,,,,,,sppq,1,2024-05-31_02h06.47.945,interaction task chi,2021.2.3,Win32,165.0165017,,,,,,,,,,,,,,,,,大于,小于,,-0.287639112,-0.526388934,1,0,0,LeftButton,"[""LeftButton""]",,,,0.4402576,1.3957,space,,,,,,,,,,,0,34,34,34,1,2,only_sub_right.png,1,RandomDot6.png,No answer,21,1.0382,,,,,,,,,,,,,
,,,,,,,,,,,,,,,,,,,,,,,,,,,,,,,sppq,1,2024-05-31_02h06.47.945,interaction task chi,2021.2.3,Win32,165.0165017,,,,,,,,,,,,,,,,,大于,小于,,0.29896518,-0.512500045,1,0,0,RightButton,"[""RightButton""]",,,,,,,,,,,,,,,,,0,35,35,35,1,0,both_right.png,0,RandomDot34.png,No answer,19,,,,,,,,,,,,,,
,,,,,,,,,,,,,,,,,,,,,,,,,,,,,,,sppq,1,2024-05-31_02h06.47.945,interaction task chi,2021.2.3,Win32,165.0165017,,,,,,,,,,,,,,,,,大于,小于,,-0.271236065,-0.53194449,1,0,0,LeftButton,"[""LeftButton""]",20,2.7426,space,,,,,,,,,,,,,,0,36,36,36,1,1,both_wrong.png,0,RandomDot24.png,No answer,21,,,,0.527,,,,,,,,,,
,,,,,,,,,,,,,,,,,,,,,,,,,,,,,,,sppq,1,2024-05-31_02h06.47.945,interaction task chi,2021.2.3,Win32,165.0165017,,,,,,,,,,,,,,,,,小于,大于,,-0.255614068,-0.490277822,1,0,0,LeftButton,"[""LeftButton""]",,,,,,,,,,,,35.20937519,1.8818,space,76.22870639,2.558,0,37,37,37,1,3,only_sub_wrong.png,3,RandomDot38.png,No answer,20,,0.3676,,,,,,,,,,,,
,,,,,,,,,,,,,,,,,,,,,,,,,,,,,,,sppq,1,2024-05-31_02h06.47.945,interaction task chi,2021.2.3,Win32,165.0165017,,,,,,,,,,,,,,,,,小于,大于,,-0.264987238,-0.525000045,1,0,0,LeftButton,"[""LeftButton""]",,,,,,,12,1.9575,space,9,2.7681,,,,,,0,38,38,38,1,2,only_sub_right.png,2,RandomDot5.png,No answer,21,,,0.6635,,,,,,,,,,,
,,,,,,,,,,,,,,,,,,,,,,,,,,,,,,,sppq,1,2024-05-31_02h06.47.945,interaction task chi,2021.2.3,Win32,165.0165017,,,,,,,,,,,,,,,,,小于,大于,,0.266159086,-0.533333379,1,0,0,RightButton,"[""RightButton""]",,,,1.490628747,1.6282,space,,,,,,,,,,,0,39,39,39,1,1,both_wrong.png,1,RandomDot13.png,No answer,19,0.23,,,,,,,,,,,,,
,,,,,,,,,,,,,,,,,,,,,,,,,,,,,,,sppq,1,2024-05-31_02h06.47.945,interaction task chi,2021.2.3,Win32,165.0165017,,,,,,,,,,,,,,,,,大于,小于,,-0.256395213,-0.468055599,1,0,0,LeftButton,"[""LeftButton""]",,,,,,,,,,,,82.14495574,7.2188,space,11.54437781,6.2732,0,40,40,40,1,2,only_sub_right.png,3,RandomDot22.png,No answer,20,,2.471,,,,,,,,,,,,
,,,,,,,,,,,,,,,,,,,,,,,,,,,,,,,sppq,1,2024-05-31_02h06.47.945,interaction task chi,2021.2.3,Win32,165.0165017,,,,,,,,,,,,,,,,,小于,大于,,-0.257176311,-0.536111157,1,0,0,LeftButton,"[""LeftButton""]",,,,,,,70,2.3365,space,73,2.9555,,,,,,0,41,41,41,1,3,only_sub_wrong.png,2,RandomDot15.png,No answer,20,,,0.4811,,,,,,,,,,,
,,,,,,,,,,,,,,,,,,,,,,,,,,,,,,,sppq,1,2024-05-31_02h06.47.945,interaction task chi,2021.2.3,Win32,165.0165017,,,,,,,,,,,,,,,,,,,,,,,,,,,,,,,,,,,,,,,,,,,,,,,,,,,,,,,,,,4.695821832,2.2096,4.733307045,3.1651,5.037875847,4.1858,2.634127403,5.5817,space,6.5595