﻿choose_trial,key_resp.keys,key_resp.rt,key_resp_4.keys,key_resp_4.rt,session_trait,key_resp_5.keys,key_resp_5.rt,slider_face_judge.response,slider_face_judge.rt,key_resp_3.keys,key_resp_3.rt,face_loop.thisRepN,face_loop.thisTrialN,face_loop.thisN,face_loop.thisIndex,face_loop.ran,face_serial,image_name,isCheck,answer,check_question,participant,session,date,expName,psychopyVersion,OS,frameRate,session.thisRepN,session.thisTrialN,session.thisN,session.thisIndex,session.ran,session_serial,slider_judge_img
"[0,1,2,3,4,5,6,7,8,9,10,11,12,13,14,15,16,17,18,19,20,21,22,23,24,25,26,27,28,29,30,31,32,33,34,35,36,37,38,39,40,41,42,43,44,45,46,47,48,49,54,51,60]",space,4.21,space,6.759,friendly,space,3.156,6.0375,1.803,space,0.34,0,0,0,48,1,49,image/49.jpg,0,0,,er3,2,2024-05-31_01h44.59.043,face trait task chi,2021.2.3,Win32,165.0165017,,,,,,,
,,,,,,,,3.96875,2.033,space,0.269,0,1,1,46,1,47,image/47.jpg,0,0,,er3,2,2024-05-31_01h44.59.043,face trait task chi,2021.2.3,Win32,165.0165017,,,,,,,
,,,,,,,,1.95,2.513,space,0.384,0,2,2,28,1,29,image/29.jpg,0,0,,er3,2,2024-05-31_01h44.59.043,face trait task chi,2021.2.3,Win32,165.0165017,,,,,,,
,,,,,,,,2.04375,1.911,space,0.42,0,3,3,18,1,19,image/19.jpg,0,0,,er3,2,2024-05-31_01h44.59.043,face trait task chi,2021.2.3,Win32,165.0165017,,,,,,,
,,,,,,,,5.975,4.052,space,1.775,0,4,4,49,1,50,image/50.jpg,0,0,,er3,2,2024-05-31_01h44.59.043,face trait task chi,2021.2.3,Win32,165.0165017,,,,,,,
,,,,,,,,1.99375,2.13,space,1.23,0,5,5,10,1,11,image/11.jpg,0,0,,er3,2,2024-05-31_01h44.59.043,face trait task chi,2021.2.3,Win32,165.0165017,,,,,,,
,,,,,,,,5.975,2.671,space,0.28,0,6,6,3,1,4,image/4.jpg,0,0,,er3,2,2024-05-31_01h44.59.043,face trait task chi,2021.2.3,Win32,165.0165017,,,,,,,
,,,,,,,,5.99375,2.567,space,0.968,0,7,7,35,1,36,image/36.jpg,0,0,,er3,2,2024-05-31_01h44.59.043,face trait task chi,2021.2.3,Win32,165.0165017,,,,,,,
,,,,,,,,4.975,3.612,space,0.775,0,8,8,20,1,21,image/21.jpg,0,0,,er3,2,2024-05-31_01h44.59.043,face trait task chi,2021.2.3,Win32,165.0165017,,,,,,,
,,,,,,,,5.95625,2.233,space,1.243,0,9,9,47,1,48,image/48.jpg,0,0,,er3,2,2024-05-31_01h44.59.043,face trait task chi,2021.2.3,Win32,165.0165017,,,,,,,
,,,,,,,,5.45,6.505,space,0.162,0,10,10,36,1,37,image/37.jpg,0,0,,er3,2,2024-05-31_01h44.59.043,face trait task chi,2021.2.3,Win32,165.0165017,,,,,,,
,,,,,,,,2.6,4.876,space,0.253,0,11,11,40,1,41,image/41.jpg,0,0,,er3,2,2024-05-31_01h44.59.043,face trait task chi,2021.2.3,Win32,165.0165017,,,,,,,
,,,,,,,,2.00625,3.818,space,0.214,0,12,12,30,1,31,image/31.jpg,0,0,,er3,2,2024-05-31_01h44.59.043,face trait task chi,2021.2.3,Win32,165.0165017,,,,,,,
,,,,,,,,1.91875,6.071,space,0.376,0,13,13,14,1,15,image/15.jpg,0,0,,er3,2,2024-05-31_01h44.59.043,face trait task chi,2021.2.3,Win32,165.0165017,,,,,,,
,,,,,,,,1.98125,3.484,space,0.613,0,14,14,0,1,1,image/1.jpg,0,0,,er3,2,2024-05-31_01h44.59.043,face trait task chi,2021.2.3,Win32,165.0165017,,,,,,,
,,,,,,,,1.98125,2.587,space,1.081,0,15,15,6,1,7,image/7.jpg,0,0,,er3,2,2024-05-31_01h44.59.043,face trait task chi,2021.2.3,Win32,165.0165017,,,,,,,
,,,,,,,,2.00625,1.747,space,1.547,0,16,16,23,1,24,image/24.jpg,0,0,,er3,2,2024-05-31_01h44.59.043,face trait task chi,2021.2.3,Win32,165.0165017,,,,,,,
,,,,,,,,4.45,2.121,space,0.401,0,17,17,43,1,44,image/44.jpg,0,0,,er3,2,2024-05-31_01h44.59.043,face trait task chi,2021.2.3,Win32,165.0165017,,,,,,,
,,,,,,,,2.00625,2.642,space,0.252,0,18,18,29,1,30,image/30.jpg,0,0,,er3,2,2024-05-31_01h44.59.043,face trait task chi,2021.2.3,Win32,165.0165017,,,,,,,
,,,,,,,,5.9875,1.838,space,0.265,0,19,19,37,1,38,image/38.jpg,0,0,,er3,2,2024-05-31_01h44.59.043,face trait task chi,2021.2.3,Win32,165.0165017,,,,,,,
,,,,,,,,1,2.299,space,1.165,0,20,20,51,1,52,image/fill_img.png,1,1,请将滑块完全移动到<左边>，以示您在专心判断。,er3,2,2024-05-31_01h44.59.043,face trait task chi,2021.2.3,Win32,165.0165017,,,,,,,
,,,,,,,,7,3.962,space,2.223,0,21,21,52,1,61,image/fill_img.png,1,7,请将滑块完全移动到<右边>，以示您在专心判断。,er3,2,2024-05-31_01h44.59.043,face trait task chi,2021.2.3,Win32,165.0165017,,,,,,,
,,,,,,,,4.9875,3.065,space,0.224,0,22,22,7,1,8,image/8.jpg,0,0,,er3,2,2024-05-31_01h44.59.043,face trait task chi,2021.2.3,Win32,165.0165017,,,,,,,
,,,,,,,,2.0375,3.901,space,0.783,0,23,23,32,1,33,image/33.jpg,0,0,,er3,2,2024-05-31_01h44.59.043,face trait task chi,2021.2.3,Win32,165.0165017,,,,,,,
,,,,,,,,6.01875,1.978,space,0.375,0,24,24,2,1,3,image/3.jpg,0,0,,er3,2,2024-05-31_01h44.59.043,face trait task chi,2021.2.3,Win32,165.0165017,,,,,,,
,,,,,,,,5.0375,2.718,space,0.189,0,25,25,5,1,6,image/6.jpg,0,0,,er3,2,2024-05-31_01h44.59.043,face trait task chi,2021.2.3,Win32,165.0165017,,,,,,,
,,,,,,,,4.775,5.55,space,0.219,0,26,26,39,1,40,image/40.jpg,0,0,,er3,2,2024-05-31_01h44.59.043,face trait task chi,2021.2.3,Win32,165.0165017,,,,,,,
,,,,,,,,6.98125,5.126,space,0.259,0,27,27,34,1,35,image/35.jpg,0,0,,er3,2,2024-05-31_01h44.59.043,face trait task chi,2021.2.3,Win32,165.0165017,,,,,,,
,,,,,,,,2.1,3.31,space,0.335,0,28,28,42,1,43,image/43.jpg,0,0,,er3,2,2024-05-31_01h44.59.043,face trait task chi,2021.2.3,Win32,165.0165017,,,,,,,
,,,,,,,,6.025,2.98,space,0.189,0,29,29,11,1,12,image/12.jpg,0,0,,er3,2,2024-05-31_01h44.59.043,face trait task chi,2021.2.3,Win32,165.0165017,,,,,,,
,,,,,,,,1.98125,1.744,space,0.286,0,30,30,44,1,45,image/45.jpg,0,0,,er3,2,2024-05-31_01h44.59.043,face trait task chi,2021.2.3,Win32,165.0165017,,,,,,,
,,,,,,,,1.9125,1.719,space,0.474,0,31,31,8,1,9,image/9.jpg,0,0,,er3,2,2024-05-31_01h44.59.043,face trait task chi,2021.2.3,Win32,165.0165017,,,,,,,
,,,,,,,,1.5375,1.955,space,1.01,0,32,32,27,1,28,image/28.jpg,0,0,,er3,2,2024-05-31_01h44.59.043,face trait task chi,2021.2.3,Win32,165.0165017,,,,,,,
,,,,,,,,1.69375,1.871,space,0.453,0,33,33,21,1,22,image/22.jpg,0,0,,er3,2,2024-05-31_01h44.59.043,face trait task chi,2021.2.3,Win32,165.0165017,,,,,,,
,,,,,,,,5.75,2.284,space,0.384,0,34,34,33,1,34,image/34.jpg,0,0,,er3,2,2024-05-31_01h44.59.043,face trait task chi,2021.2.3,Win32,165.0165017,,,,,,,
,,,,,,,,2.18125,2.473,space,0.183,0,35,35,41,1,42,image/42.jpg,0,0,,er3,2,2024-05-31_01h44.59.043,face trait task chi,2021.2.3,Win32,165.0165017,,,,,,,
,,,,,,,,1.9625,1.524,space,0.356,0,36,36,12,1,13,image/13.jpg,0,0,,er3,2,2024-05-31_01h44.59.043,face trait task chi,2021.2.3,Win32,165.0165017,,,,,,,
,,,,,,,,1.6125,6.349,space,0.715,0,37,37,13,1,14,image/14.jpg,0,0,,er3,2,2024-05-31_01h44.59.043,face trait task chi,2021.2.3,Win32,165.0165017,,,,,,,
,,,,,,,,1.9875,1.513,space,1.08,0,38,38,25,1,26,image/26.jpg,0,0,,er3,2,2024-05-31_01h44.59.043,face trait task chi,2021.2.3,Win32,165.0165017,,,,,,,
,,,,,,,,1.8875,1.418,space,0.428,0,39,39,9,1,10,image/10.jpg,0,0,,er3,2,2024-05-31_01h44.59.043,face trait task chi,2021.2.3,Win32,165.0165017,,,,,,,
,,,,,,,,1.9625,6.898,space,0.221,0,40,40,15,1,16,image/16.jpg,0,0,,er3,2,2024-05-31_01h44.59.043,face trait task chi,2021.2.3,Win32,165.0165017,,,,,,,
,,,,,,,,2.05,1.277,space,1.366,0,41,41,24,1,25,image/25.jpg,0,0,,er3,2,2024-05-31_01h44.59.043,face trait task chi,2021.2.3,Win32,165.0165017,,,,,,,
,,,,,,,,5.70625,8.862,space,0.308,0,42,42,4,1,5,image/5.jpg,0,0,,er3,2,2024-05-31_01h44.59.043,face trait task chi,2021.2.3,Win32,165.0165017,,,,,,,
,,,,,,,,2,5.128,space,0.159,0,43,43,26,1,27,image/27.jpg,0,0,,er3,2,2024-05-31_01h44.59.043,face trait task chi,2021.2.3,Win32,165.0165017,,,,,,,
,,,,,,,,2.13125,4.463,space,0.126,0,44,44,45,1,46,image/46.jpg,0,0,,er3,2,2024-05-31_01h44.59.043,face trait task chi,2021.2.3,Win32,165.0165017,,,,,,,
,,,,,,,,1.98125,3.894,space,0.271,0,45,45,38,1,39,image/39.jpg,0,0,,er3,2,2024-05-31_01h44.59.043,face trait task chi,2021.2.3,Win32,165.0165017,,,,,,,
,,,,,,,,1.975,2.755,space,0.387,0,46,46,19,1,20,image/20.jpg,0,0,,er3,2,2024-05-31_01h44.59.043,face trait task chi,2021.2.3,Win32,165.0165017,,,,,,,
,,,,,,,,1,3.222,space,1.006,0,47,47,50,1,55,image/fill_img.png,1,1,请将滑块完全移动到<左边>，以示您在专心判断。,er3,2,2024-05-31_01h44.59.043,face trait task chi,2021.2.3,Win32,165.0165017,,,,,,,
,,,,,,,,1.8375,2.78,space,0.404,0,48,48,16,1,17,image/17.jpg,0,0,,er3,2,2024-05-31_01h44.59.043,face trait task chi,2021.2.3,Win32,165.0165017,,,,,,,
,,,,,,,,1.85625,2.704,space,0.747,0,49,49,17,1,18,image/18.jpg,0,0,,er3,2,2024-05-31_01h44.59.043,face trait task chi,2021.2.3,Win32,165.0165017,,,,,,,
,,,,,,,,1.65,1.841,space,0.3,0,50,50,31,1,32,image/32.jpg,0,0,,er3,2,2024-05-31_01h44.59.043,face trait task chi,2021.2.3,Win32,165.0165017,,,,,,,
,,,,,,,,1.65,1.3,space,0.297,0,51,51,1,1,2,image/2.jpg,0,0,,er3,2,2024-05-31_01h44.59.043,face trait task chi,2021.2.3,Win32,165.0165017,,,,,,,
,,,,,,,,1.64375,1.788,space,0.436,0,52,52,22,1,23,image/23.jpg,0,0,,er3,2,2024-05-31_01h44.59.043,face trait task chi,2021.2.3,Win32,165.0165017,,,,,,,
,,,,,,,,,,,,,,,,,,,,,,er3,2,2024-05-31_01h44.59.043,face trait task chi,2021.2.3,Win32,165.0165017,0,0,0,3,1,3,friendly.png
,,,,,competent,space,7.543,5.99375,3.699,space,0.265,0,0,0,45,1,46,image/46.jpg,0,0,,er3,2,2024-05-31_01h44.59.043,face trait task chi,2021.2.3,Win32,165.0165017,,,,,,,
,,,,,,,,2,2.02,space,0.258,0,1,1,16,1,17,image/17.jpg,0,0,,er3,2,2024-05-31_01h44.59.043,face trait task chi,2021.2.3,Win32,165.0165017,,,,,,,
,,,,,,,,1.8125,2.11,space,0.76,0,2,2,1,1,2,image/2.jpg,0,0,,er3,2,2024-05-31_01h44.59.043,face trait task chi,2021.2.3,Win32,165.0165017,,,,,,,
,,,,,,,,6.3625,1.723,space,0.266,0,3,3,49,1,50,image/50.jpg,0,0,,er3,2,2024-05-31_01h44.59.043,face trait task chi,2021.2.3,Win32,165.0165017,,,,,,,
,,,,,,,,1.6625,2.283,space,0.273,0,4,4,18,1,19,image/19.jpg,0,0,,er3,2,2024-05-31_01h44.59.043,face trait task chi,2021.2.3,Win32,165.0165017,,,,,,,
,,,,,,,,2.55625,2.719,space,0.31,0,5,5,8,1,9,image/9.jpg,0,0,,er3,2,2024-05-31_01h44.59.043,face trait task chi,2021.2.3,Win32,165.0165017,,,,,,,
,,,,,,,,2.0125,1.294,space,0.389,0,6,6,29,1,30,image/30.jpg,0,0,,er3,2,2024-05-31_01h44.59.043,face trait task chi,2021.2.3,Win32,165.0165017,,,,,,,
,,,,,,,,7,2.273,space,1.006,0,7,7,52,1,61,image/fill_img.png,1,7,请将滑块完全移动到<右边>，以示您在专心判断。,er3,2,2024-05-31_01h44.59.043,face trait task chi,2021.2.3,Win32,165.0165017,,,,,,,
,,,,,,,,4.7,10.391,space,1.849,0,8,8,7,1,8,image/8.jpg,0,0,,er3,2,2024-05-31_01h44.59.043,face trait task chi,2021.2.3,Win32,165.0165017,,,,,,,
,,,,,,,,2.34375,1.761,space,0.311,0,9,9,25,1,26,image/26.jpg,0,0,,er3,2,2024-05-31_01h44.59.043,face trait task chi,2021.2.3,Win32,165.0165017,,,,,,,
,,,,,,,,6.84375,1.624,space,0.304,0,10,10,34,1,35,image/35.jpg,0,0,,er3,2,2024-05-31_01h44.59.043,face trait task chi,2021.2.3,Win32,165.0165017,,,,,,,
,,,,,,,,1,2.33,space,1.225,0,11,11,50,1,55,image/fill_img.png,1,1,请将滑块完全移动到<左边>，以示您在专心判断。,er3,2,2024-05-31_01h44.59.043,face trait task chi,2021.2.3,Win32,165.0165017,,,,,,,
,,,,,,,,6.025,3.368,space,0.257,0,12,12,11,1,12,image/12.jpg,0,0,,er3,2,2024-05-31_01h44.59.043,face trait task chi,2021.2.3,Win32,165.0165017,,,,,,,
,,,,,,,,1.86875,2.023,space,0.559,0,13,13,0,1,1,image/1.jpg,0,0,,er3,2,2024-05-31_01h44.59.043,face trait task chi,2021.2.3,Win32,165.0165017,,,,,,,
,,,,,,,,4.8125,1.385,space,0.47,0,14,14,47,1,48,image/48.jpg,0,0,,er3,2,2024-05-31_01h44.59.043,face trait task chi,2021.2.3,Win32,165.0165017,,,,,,,
,,,,,,,,1.9875,2.125,space,0.286,0,15,15,23,1,24,image/24.jpg,0,0,,er3,2,2024-05-31_01h44.59.043,face trait task chi,2021.2.3,Win32,165.0165017,,,,,,,
,,,,,,,,1.93125,3.141,space,0.207,0,16,16,21,1,22,image/22.jpg,0,0,,er3,2,2024-05-31_01h44.59.043,face trait task chi,2021.2.3,Win32,165.0165017,,,,,,,
,,,,,,,,4.05625,2.035,space,0.353,0,17,17,17,1,18,image/18.jpg,0,0,,er3,2,2024-05-31_01h44.59.043,face trait task chi,2021.2.3,Win32,165.0165017,,,,,,,
,,,,,,,,1.91875,2.152,space,0.306,0,18,18,9,1,10,image/10.jpg,0,0,,er3,2,2024-05-31_01h44.59.043,face trait task chi,2021.2.3,Win32,165.0165017,,,,,,,
,,,,,,,,4.43125,2.011,space,0.322,0,19,19,20,1,21,image/21.jpg,0,0,,er3,2,2024-05-31_01h44.59.043,face trait task chi,2021.2.3,Win32,165.0165017,,,,,,,
,,,,,,,,5.34375,3.243,space,1.602,0,20,20,6,1,7,image/7.jpg,0,0,,er3,2,2024-05-31_01h44.59.043,face trait task chi,2021.2.3,Win32,165.0165017,,,,,,,
,,,,,,,,5.375,2.495,space,0.305,0,21,21,46,1,47,image/47.jpg,0,0,,er3,2,2024-05-31_01h44.59.043,face trait task chi,2021.2.3,Win32,165.0165017,,,,,,,
,,,,,,,,2.3625,3.16,space,0.255,0,22,22,19,1,20,image/20.jpg,0,0,,er3,2,2024-05-31_01h44.59.043,face trait task chi,2021.2.3,Win32,165.0165017,,,,,,,
,,,,,,,,4.66875,1.821,space,0.376,0,23,23,42,1,43,image/43.jpg,0,0,,er3,2,2024-05-31_01h44.59.043,face trait task chi,2021.2.3,Win32,165.0165017,,,,,,,
,,,,,,,,5.26875,1.494,space,0.377,0,24,24,4,1,5,image/5.jpg,0,0,,er3,2,2024-05-31_01h44.59.043,face trait task chi,2021.2.3,Win32,165.0165017,,,,,,,
,,,,,,,,2.35625,1.852,space,0.255,0,25,25,32,1,33,image/33.jpg,0,0,,er3,2,2024-05-31_01h44.59.043,face trait task chi,2021.2.3,Win32,165.0165017,,,,,,,
,,,,,,,,4.78125,2.012,space,0.329,0,26,26,37,1,38,image/38.jpg,0,0,,er3,2,2024-05-31_01h44.59.043,face trait task chi,2021.2.3,Win32,165.0165017,,,,,,,
,,,,,,,,5.24375,1.339,space,0.225,0,27,27,27,1,28,image/28.jpg,0,0,,er3,2,2024-05-31_01h44.59.043,face trait task chi,2021.2.3,Win32,165.0165017,,,,,,,
,,,,,,,,2.79375,1.799,space,0.377,0,28,28,38,1,39,image/39.jpg,0,0,,er3,2,2024-05-31_01h44.59.043,face trait task chi,2021.2.3,Win32,165.0165017,,,,,,,
,,,,,,,,1.975,1.421,space,0.341,0,29,29,31,1,32,image/32.jpg,0,0,,er3,2,2024-05-31_01h44.59.043,face trait task chi,2021.2.3,Win32,165.0165017,,,,,,,
,,,,,,,,2.41875,1.672,space,0.286,0,30,30,12,1,13,image/13.jpg,0,0,,er3,2,2024-05-31_01h44.59.043,face trait task chi,2021.2.3,Win32,165.0165017,,,,,,,
,,,,,,,,2.0625,1.84,space,1.19,0,31,31,15,1,16,image/16.jpg,0,0,,er3,2,2024-05-31_01h44.59.043,face trait task chi,2021.2.3,Win32,165.0165017,,,,,,,
,,,,,,,,5.175,2.066,space,0.69,0,32,32,39,1,40,image/40.jpg,0,0,,er3,2,2024-05-31_01h44.59.043,face trait task chi,2021.2.3,Win32,165.0165017,,,,,,,
,,,,,,,,1.9,1.632,space,0.411,0,33,33,28,1,29,image/29.jpg,0,0,,er3,2,2024-05-31_01h44.59.043,face trait task chi,2021.2.3,Win32,165.0165017,,,,,,,
,,,,,,,,5.58125,2.162,space,0.415,0,34,34,43,1,44,image/44.jpg,0,0,,er3,2,2024-05-31_01h44.59.043,face trait task chi,2021.2.3,Win32,165.0165017,,,,,,,
,,,,,,,,5.0625,3.136,space,1.749,0,35,35,41,1,42,image/42.jpg,0,0,,er3,2,2024-05-31_01h44.59.043,face trait task chi,2021.2.3,Win32,165.0165017,,,,,,,
,,,,,,,,2.13125,1.458,space,1.563,0,36,36,2,1,3,image/3.jpg,0,0,,er3,2,2024-05-31_01h44.59.043,face trait task chi,2021.2.3,Win32,165.0165017,,,,,,,
,,,,,,,,5.1125,1.543,space,0.39,0,37,37,3,1,4,image/4.jpg,0,0,,er3,2,2024-05-31_01h44.59.043,face trait task chi,2021.2.3,Win32,165.0165017,,,,,,,
,,,,,,,,1.9375,2.047,space,0.239,0,38,38,14,1,15,image/15.jpg,0,0,,er3,2,2024-05-31_01h44.59.043,face trait task chi,2021.2.3,Win32,165.0165017,,,,,,,
,,,,,,,,2.4,4.669,space,0.559,0,39,39,13,1,14,image/14.jpg,0,0,,er3,2,2024-05-31_01h44.59.043,face trait task chi,2021.2.3,Win32,165.0165017,,,,,,,
,,,,,,,,2.18125,2.304,space,1.235,0,40,40,10,1,11,image/11.jpg,0,0,,er3,2,2024-05-31_01h44.59.043,face trait task chi,2021.2.3,Win32,165.0165017,,,,,,,
,,,,,,,,5.40625,1.79,space,0.934,0,41,41,36,1,37,image/37.jpg,0,0,,er3,2,2024-05-31_01h44.59.043,face trait task chi,2021.2.3,Win32,165.0165017,,,,,,,
,,,,,,,,4.95,4.648,space,0.253,0,42,42,5,1,6,image/6.jpg,0,0,,er3,2,2024-05-31_01h44.59.043,face trait task chi,2021.2.3,Win32,165.0165017,,,,,,,
,,,,,,,,1,4.013,space,1.178,0,43,43,51,1,52,image/fill_img.png,1,1,请将滑块完全移动到<左边>，以示您在专心判断。,er3,2,2024-05-31_01h44.59.043,face trait task chi,2021.2.3,Win32,165.0165017,,,,,,,
,,,,,,,,5.3375,2.415,space,0.263,0,44,44,48,1,49,image/49.jpg,0,0,,er3,2,2024-05-31_01h44.59.043,face trait task chi,2021.2.3,Win32,165.0165017,,,,,,,
,,,,,,,,2.76875,1.801,space,0.739,0,45,45,33,1,34,image/34.jpg,0,0,,er3,2,2024-05-31_01h44.59.043,face trait task chi,2021.2.3,Win32,165.0165017,,,,,,,
,,,,,,,,1.9,1.504,space,1.217,0,46,46,24,1,25,image/25.jpg,0,0,,er3,2,2024-05-31_01h44.59.043,face trait task chi,2021.2.3,Win32,165.0165017,,,,,,,
,,,,,,,,2.9375,1.798,space,0.745,0,47,47,44,1,45,image/45.jpg,0,0,,er3,2,2024-05-31_01h44.59.043,face trait task chi,2021.2.3,Win32,165.0165017,,,,,,,
,,,,,,,,5.525,1.579,space,0.448,0,48,48,26,1,27,image/27.jpg,0,0,,er3,2,2024-05-31_01h44.59.043,face trait task chi,2021.2.3,Win32,165.0165017,,,,,,,
,,,,,,,,6.6625,2.862,space,1.236,0,49,49,35,1,36,image/36.jpg,0,0,,er3,2,2024-05-31_01h44.59.043,face trait task chi,2021.2.3,Win32,165.0165017,,,,,,,
,,,,,,,,5.39375,3.32,space,0.884,0,50,50,40,1,41,image/41.jpg,0,0,,er3,2,2024-05-31_01h44.59.043,face trait task chi,2021.2.3,Win32,165.0165017,,,,,,,
,,,,,,,,2.96875,1.349,space,0.782,0,51,51,30,1,31,image/31.jpg,0,0,,er3,2,2024-05-31_01h44.59.043,face trait task chi,2021.2.3,Win32,165.0165017,,,,,,,
,,,,,,,,2.61875,1.137,space,0.386,0,52,52,22,1,23,image/23.jpg,0,0,,er3,2,2024-05-31_01h44.59.043,face trait task chi,2021.2.3,Win32,165.0165017,,,,,,,
,,,,,,,,,,,,,,,,,,,,,,er3,2,2024-05-31_01h44.59.043,face trait task chi,2021.2.3,Win32,165.0165017,0,1,1,1,1,1,competent.png
,,,,,critical,space,4.153,2.975,1.976,space,0.265,0,0,0,28,1,29,image/29.jpg,0,0,,er3,2,2024-05-31_01h44.59.043,face trait task chi,2021.2.3,Win32,165.0165017,,,,,,,
,,,,,,,,4.875,1.392,space,0.787,0,1,1,30,1,31,image/31.jpg,0,0,,er3,2,2024-05-31_01h44.59.043,face trait task chi,2021.2.3,Win32,165.0165017,,,,,,,
,,,,,,,,2.625,2.69,space,0.317,0,2,2,6,1,7,image/7.jpg,0,0,,er3,2,2024-05-31_01h44.59.043,face trait task chi,2021.2.3,Win32,165.0165017,,,,,,,
,,,,,,,,2.3,3.021,space,0.21,0,3,3,44,1,45,image/45.jpg,0,0,,er3,2,2024-05-31_01h44.59.043,face trait task chi,2021.2.3,Win32,165.0165017,,,,,,,
,,,,,,,,2.30625,1.423,space,0.243,0,4,4,48,1,49,image/49.jpg,0,0,,er3,2,2024-05-31_01h44.59.043,face trait task chi,2021.2.3,Win32,165.0165017,,,,,,,
,,,,,,,,1.9625,2.035,space,0.153,0,5,5,33,1,34,image/34.jpg,0,0,,er3,2,2024-05-31_01h44.59.043,face trait task chi,2021.2.3,Win32,165.0165017,,,,,,,
,,,,,,,,5.5,1.443,space,0.303,0,6,6,37,1,38,image/38.jpg,0,0,,er3,2,2024-05-31_01h44.59.043,face trait task chi,2021.2.3,Win32,165.0165017,,,,,,,
,,,,,,,,4.95,5.528,space,1.02,0,7,7,39,1,40,image/40.jpg,0,0,,er3,2,2024-05-31_01h44.59.043,face trait task chi,2021.2.3,Win32,165.0165017,,,,,,,
,,,,,,,,5.2375,3.233,space,0.202,0,8,8,25,1,26,image/26.jpg,0,0,,er3,2,2024-05-31_01h44.59.043,face trait task chi,2021.2.3,Win32,165.0165017,,,,,,,
,,,,,,,,3.00625,1.866,space,0.073,0,9,9,11,1,12,image/12.jpg,0,0,,er3,2,2024-05-31_01h44.59.043,face trait task chi,2021.2.3,Win32,165.0165017,,,,,,,
,,,,,,,,2.4375,1.192,space,1.714,0,10,10,4,1,5,image/5.jpg,0,0,,er3,2,2024-05-31_01h44.59.043,face trait task chi,2021.2.3,Win32,165.0165017,,,,,,,
,,,,,,,,1.99375,3.291,space,1.047,0,11,11,0,1,1,image/1.jpg,0,0,,er3,2,2024-05-31_01h44.59.043,face trait task chi,2021.2.3,Win32,165.0165017,,,,,,,
,,,,,,,,1.775,1.379,space,0.291,0,12,12,7,1,8,image/8.jpg,0,0,,er3,2,2024-05-31_01h44.59.043,face trait task chi,2021.2.3,Win32,165.0165017,,,,,,,
,,,,,,,,4.4875,3.9,space,2.745,0,13,13,32,1,33,image/33.jpg,0,0,,er3,2,2024-05-31_01h44.59.043,face trait task chi,2021.2.3,Win32,165.0165017,,,,,,,
,,,,,,,,5.675,1.762,space,0.171,0,14,14,45,1,46,image/46.jpg,0,0,,er3,2,2024-05-31_01h44.59.043,face trait task chi,2021.2.3,Win32,165.0165017,,,,,,,
,,,,,,,,3.06875,1.821,space,0.195,0,15,15,49,1,50,image/50.jpg,0,0,,er3,2,2024-05-31_01h44.59.043,face trait task chi,2021.2.3,Win32,165.0165017,,,,,,,
,,,,,,,,2.54375,1.786,space,0.832,0,16,16,23,1,24,image/24.jpg,0,0,,er3,2,2024-05-31_01h44.59.043,face trait task chi,2021.2.3,Win32,165.0165017,,,,,,,
,,,,,,,,5.48125,2.615,space,0.269,0,17,17,8,1,9,image/9.jpg,0,0,,er3,2,2024-05-31_01h44.59.043,face trait task chi,2021.2.3,Win32,165.0165017,,,,,,,
,,,,,,,,2.3375,1.87,space,0.195,0,18,18,24,1,25,image/25.jpg,0,0,,er3,2,2024-05-31_01h44.59.043,face trait task chi,2021.2.3,Win32,165.0165017,,,,,,,
,,,,,,,,4.525,3.621,space,1.031,0,19,19,10,1,11,image/11.jpg,0,0,,er3,2,2024-05-31_01h44.59.043,face trait task chi,2021.2.3,Win32,165.0165017,,,,,,,
,,,,,,,,1.5625,1.741,space,0.134,0,20,20,3,1,4,image/4.jpg,0,0,,er3,2,2024-05-31_01h44.59.043,face trait task chi,2021.2.3,Win32,165.0165017,,,,,,,
,,,,,,,,2.85625,2.169,space,0.207,0,21,21,21,1,22,image/22.jpg,0,0,,er3,2,2024-05-31_01h44.59.043,face trait task chi,2021.2.3,Win32,165.0165017,,,,,,,
,,,,,,,,1.93125,1.837,space,0.173,0,22,22,2,1,3,image/3.jpg,0,0,,er3,2,2024-05-31_01h44.59.043,face trait task chi,2021.2.3,Win32,165.0165017,,,,,,,
,,,,,,,,5.23125,1.521,space,0.179,0,23,23,5,1,6,image/6.jpg,0,0,,er3,2,2024-05-31_01h44.59.043,face trait task chi,2021.2.3,Win32,165.0165017,,,,,,,
,,,,,,,,1.975,2.953,space,1.289,0,24,24,16,1,17,image/17.jpg,0,0,,er3,2,2024-05-31_01h44.59.043,face trait task chi,2021.2.3,Win32,165.0165017,,,,,,,
,,,,,,,,5.5625,1.785,space,1.013,0,25,25,1,1,2,image/2.jpg,0,0,,er3,2,2024-05-31_01h44.59.043,face trait task chi,2021.2.3,Win32,165.0165017,,,,,,,
,,,,,,,,1.81875,1.568,space,0.14,0,26,26,13,1,14,image/14.jpg,0,0,,er3,2,2024-05-31_01h44.59.043,face trait task chi,2021.2.3,Win32,165.0165017,,,,,,,
,,,,,,,,4.675,3.101,space,1.588,0,27,27,42,1,43,image/43.jpg,0,0,,er3,2,2024-05-31_01h44.59.043,face trait task chi,2021.2.3,Win32,165.0165017,,,,,,,
,,,,,,,,1.4875,2.259,space,0.36,0,28,28,34,1,35,image/35.jpg,0,0,,er3,2,2024-05-31_01h44.59.043,face trait task chi,2021.2.3,Win32,165.0165017,,,,,,,
,,,,,,,,1.4875,1.507,space,0.456,0,29,29,15,1,16,image/16.jpg,0,0,,er3,2,2024-05-31_01h44.59.043,face trait task chi,2021.2.3,Win32,165.0165017,,,,,,,
,,,,,,,,2.23125,2.117,space,0.337,0,30,30,47,1,48,image/48.jpg,0,0,,er3,2,2024-05-31_01h44.59.043,face trait task chi,2021.2.3,Win32,165.0165017,,,,,,,
,,,,,,,,7,2.751,space,0.98,0,31,31,52,1,61,image/fill_img.png,1,7,请将滑块完全移动到<右边>，以示您在专心判断。,er3,2,2024-05-31_01h44.59.043,face trait task chi,2021.2.3,Win32,165.0165017,,,,,,,
,,,,,,,,1.84375,1.883,space,0.317,0,32,32,26,1,27,image/27.jpg,0,0,,er3,2,2024-05-31_01h44.59.043,face trait task chi,2021.2.3,Win32,165.0165017,,,,,,,
,,,,,,,,3.09375,3.111,space,0.353,0,33,33,19,1,20,image/20.jpg,0,0,,er3,2,2024-05-31_01h44.59.043,face trait task chi,2021.2.3,Win32,165.0165017,,,,,,,
,,,,,,,,2.6625,2.057,space,0.177,0,34,34,18,1,19,image/19.jpg,0,0,,er3,2,2024-05-31_01h44.59.043,face trait task chi,2021.2.3,Win32,165.0165017,,,,,,,
,,,,,,,,3.9125,2.504,space,0.126,0,35,35,41,1,42,image/42.jpg,0,0,,er3,2,2024-05-31_01h44.59.043,face trait task chi,2021.2.3,Win32,165.0165017,,,,,,,
,,,,,,,,5.48125,1.874,space,0.196,0,36,36,35,1,36,image/36.jpg,0,0,,er3,2,2024-05-31_01h44.59.043,face trait task chi,2021.2.3,Win32,165.0165017,,,,,,,
,,,,,,,,2.875,2.518,space,2.021,0,37,37,40,1,41,image/41.jpg,0,0,,er3,2,2024-05-31_01h44.59.043,face trait task chi,2021.2.3,Win32,165.0165017,,,,,,,
,,,,,,,,5.9625,1.907,space,0.144,0,38,38,12,1,13,image/13.jpg,0,0,,er3,2,2024-05-31_01h44.59.043,face trait task chi,2021.2.3,Win32,165.0165017,,,,,,,
,,,,,,,,6.28125,2.233,space,1.055,0,39,39,27,1,28,image/28.jpg,0,0,,er3,2,2024-05-31_01h44.59.043,face trait task chi,2021.2.3,Win32,165.0165017,,,,,,,
,,,,,,,,1,3.611,space,2.717,0,40,40,50,1,55,image/fill_img.png,1,1,请将滑块完全移动到<左边>，以示您在专心判断。,er3,2,2024-05-31_01h44.59.043,face trait task chi,2021.2.3,Win32,165.0165017,,,,,,,
,,,,,,,,1,2.393,space,1.053,0,41,41,51,1,52,image/fill_img.png,1,1,请将滑块完全移动到<左边>，以示您在专心判断。,er3,2,2024-05-31_01h44.59.043,face trait task chi,2021.2.3,Win32,165.0165017,,,,,,,
,,,,,,,,2.8125,2.345,space,0.184,0,42,42,43,1,44,image/44.jpg,0,0,,er3,2,2024-05-31_01h44.59.043,face trait task chi,2021.2.3,Win32,165.0165017,,,,,,,
,,,,,,,,2.65,1.619,space,0.322,0,43,43,46,1,47,image/47.jpg,0,0,,er3,2,2024-05-31_01h44.59.043,face trait task chi,2021.2.3,Win32,165.0165017,,,,,,,
,,,,,,,,6.225,2.225,space,0.181,0,44,44,36,1,37,image/37.jpg,0,0,,er3,2,2024-05-31_01h44.59.043,face trait task chi,2021.2.3,Win32,165.0165017,,,,,,,
,,,,,,,,5.3625,1.679,space,0.262,0,45,45,29,1,30,image/30.jpg,0,0,,er3,2,2024-05-31_01h44.59.043,face trait task chi,2021.2.3,Win32,165.0165017,,,,,,,
,,,,,,,,2.25,1.998,space,0.498,0,46,46,38,1,39,image/39.jpg,0,0,,er3,2,2024-05-31_01h44.59.043,face trait task chi,2021.2.3,Win32,165.0165017,,,,,,,
,,,,,,,,1.2125,1.618,space,0.203,0,47,47,20,1,21,image/21.jpg,0,0,,er3,2,2024-05-31_01h44.59.043,face trait task chi,2021.2.3,Win32,165.0165017,,,,,,,
,,,,,,,,4.1125,3.246,space,2.201,0,48,48,9,1,10,image/10.jpg,0,0,,er3,2,2024-05-31_01h44.59.043,face trait task chi,2021.2.3,Win32,165.0165017,,,,,,,
,,,,,,,,2.65,1.45,space,0.394,0,49,49,31,1,32,image/32.jpg,0,0,,er3,2,2024-05-31_01h44.59.043,face trait task chi,2021.2.3,Win32,165.0165017,,,,,,,
,,,,,,,,2.88125,4.465,space,1.462,0,50,50,17,1,18,image/18.jpg,0,0,,er3,2,2024-05-31_01h44.59.043,face trait task chi,2021.2.3,Win32,165.0165017,,,,,,,
,,,,,,,,2.58125,1.405,space,0.263,0,51,51,22,1,23,image/23.jpg,0,0,,er3,2,2024-05-31_01h44.59.043,face trait task chi,2021.2.3,Win32,165.0165017,,,,,,,
,,,,,,,,4.5625,2.739,space,1.268,0,52,52,14,1,15,image/15.jpg,0,0,,er3,2,2024-05-31_01h44.59.043,face trait task chi,2021.2.3,Win32,165.0165017,,,,,,,
,,,,,,,,,,,,,,,,,,,,,,er3,2,2024-05-31_01h44.59.043,face trait task chi,2021.2.3,Win32,165.0165017,0,2,2,0,1,0,critical.png
,,,,,trustworthy,space,1.139,1,3.273,space,1.521,0,0,0,51,1,52,image/fill_img.png,1,1,请将滑块完全移动到<左边>，以示您在专心判断。,er3,2,2024-05-31_01h44.59.043,face trait task chi,2021.2.3,Win32,165.0165017,,,,,,,
,,,,,,,,5.63125,1.688,space,0.152,0,1,1,35,1,36,image/36.jpg,0,0,,er3,2,2024-05-31_01h44.59.043,face trait task chi,2021.2.3,Win32,165.0165017,,,,,,,
,,,,,,,,5.63125,1.192,space,0.585,0,2,2,49,1,50,image/50.jpg,0,0,,er3,2,2024-05-31_01h44.59.043,face trait task chi,2021.2.3,Win32,165.0165017,,,,,,,
,,,,,,,,4.01875,2.744,space,0.6,0,3,3,5,1,6,image/6.jpg,0,0,,er3,2,2024-05-31_01h44.59.043,face trait task chi,2021.2.3,Win32,165.0165017,,,,,,,
,,,,,,,,3.475,3.869,space,0.21,0,4,4,39,1,40,image/40.jpg,0,0,,er3,2,2024-05-31_01h44.59.043,face trait task chi,2021.2.3,Win32,165.0165017,,,,,,,
,,,,,,,,6.03125,4.466,space,0.339,0,5,5,16,1,17,image/17.jpg,0,0,,er3,2,2024-05-31_01h44.59.043,face trait task chi,2021.2.3,Win32,165.0165017,,,,,,,
,,,,,,,,3.63125,1.543,space,0.171,0,6,6,14,1,15,image/15.jpg,0,0,,er3,2,2024-05-31_01h44.59.043,face trait task chi,2021.2.3,Win32,165.0165017,,,,,,,
,,,,,,,,2.18125,1.417,space,0.264,0,7,7,13,1,14,image/14.jpg,0,0,,er3,2,2024-05-31_01h44.59.043,face trait task chi,2021.2.3,Win32,165.0165017,,,,,,,
,,,,,,,,2.2875,2.028,space,0.159,0,8,8,32,1,33,image/33.jpg,0,0,,er3,2,2024-05-31_01h44.59.043,face trait task chi,2021.2.3,Win32,165.0165017,,,,,,,
,,,,,,,,4.425,3.193,space,0.478,0,9,9,31,1,32,image/32.jpg,0,0,,er3,2,2024-05-31_01h44.59.043,face trait task chi,2021.2.3,Win32,165.0165017,,,,,,,
,,,,,,,,2.79375,1.288,space,0.214,0,10,10,23,1,24,image/24.jpg,0,0,,er3,2,2024-05-31_01h44.59.043,face trait task chi,2021.2.3,Win32,165.0165017,,,,,,,
,,,,,,,,5.1625,1.865,space,0.305,0,11,11,26,1,27,image/27.jpg,0,0,,er3,2,2024-05-31_01h44.59.043,face trait task chi,2021.2.3,Win32,165.0165017,,,,,,,
,,,,,,,,3.45625,3.284,space,0.651,0,12,12,41,1,42,image/42.jpg,0,0,,er3,2,2024-05-31_01h44.59.043,face trait task chi,2021.2.3,Win32,165.0165017,,,,,,,
,,,,,,,,3.0375,2.369,space,1.989,0,13,13,42,1,43,image/43.jpg,0,0,,er3,2,2024-05-31_01h44.59.043,face trait task chi,2021.2.3,Win32,165.0165017,,,,,,,
,,,,,,,,5.69375,2.615,space,0.686,0,14,14,46,1,47,image/47.jpg,0,0,,er3,2,2024-05-31_01h44.59.043,face trait task chi,2021.2.3,Win32,165.0165017,,,,,,,
,,,,,,,,5.69375,2.66,space,1.027,0,15,15,38,1,39,image/39.jpg,0,0,,er3,2,2024-05-31_01h44.59.043,face trait task chi,2021.2.3,Win32,165.0165017,,,,,,,
,,,,,,,,5.6125,5.075,space,0.693,0,16,16,3,1,4,image/4.jpg,0,0,,er3,2,2024-05-31_01h44.59.043,face trait task chi,2021.2.3,Win32,165.0165017,,,,,,,
,,,,,,,,2.43125,2.907,space,0.254,0,17,17,10,1,11,image/11.jpg,0,0,,er3,2,2024-05-31_01h44.59.043,face trait task chi,2021.2.3,Win32,165.0165017,,,,,,,
,,,,,,,,5.31875,3.07,space,0.166,0,18,18,47,1,48,image/48.jpg,0,0,,er3,2,2024-05-31_01h44.59.043,face trait task chi,2021.2.3,Win32,165.0165017,,,,,,,
,,,,,,,,2.9,1.369,space,0.226,0,19,19,36,1,37,image/37.jpg,0,0,,er3,2,2024-05-31_01h44.59.043,face trait task chi,2021.2.3,Win32,165.0165017,,,,,,,
,,,,,,,,5.40625,1.269,space,0.278,0,20,20,11,1,12,image/12.jpg,0,0,,er3,2,2024-05-31_01h44.59.043,face trait task chi,2021.2.3,Win32,165.0165017,,,,,,,
,,,,,,,,5.28125,2.564,space,0.165,0,21,21,6,1,7,image/7.jpg,0,0,,er3,2,2024-05-31_01h44.59.043,face trait task chi,2021.2.3,Win32,165.0165017,,,,,,,
,,,,,,,,2.075,1.311,space,0.196,0,22,22,28,1,29,image/29.jpg,0,0,,er3,2,2024-05-31_01h44.59.043,face trait task chi,2021.2.3,Win32,165.0165017,,,,,,,
,,,,,,,,5.175,1.561,space,0.207,0,23,23,2,1,3,image/3.jpg,0,0,,er3,2,2024-05-31_01h44.59.043,face trait task chi,2021.2.3,Win32,165.0165017,,,,,,,
,,,,,,,,2.4625,1.254,space,0.255,0,24,24,40,1,41,image/41.jpg,0,0,,er3,2,2024-05-31_01h44.59.043,face trait task chi,2021.2.3,Win32,165.0165017,,,,,,,
,,,,,,,,7,2.193,space,1.183,0,25,25,52,1,61,image/fill_img.png,1,7,请将滑块完全移动到<右边>，以示您在专心判断。,er3,2,2024-05-31_01h44.59.043,face trait task chi,2021.2.3,Win32,165.0165017,,,,,,,
,,,,,,,,3.3625,3.169,space,0.204,0,26,26,22,1,23,image/23.jpg,0,0,,er3,2,2024-05-31_01h44.59.043,face trait task chi,2021.2.3,Win32,165.0165017,,,,,,,
,,,,,,,,2.3625,2.193,space,0.122,0,27,27,45,1,46,image/46.jpg,0,0,,er3,2,2024-05-31_01h44.59.043,face trait task chi,2021.2.3,Win32,165.0165017,,,,,,,
,,,,,,,,3.29375,2.447,space,0.896,0,28,28,37,1,38,image/38.jpg,0,0,,er3,2,2024-05-31_01h44.59.043,face trait task chi,2021.2.3,Win32,165.0165017,,,,,,,
,,,,,,,,5.6375,1.488,space,0.287,0,29,29,48,1,49,image/49.jpg,0,0,,er3,2,2024-05-31_01h44.59.043,face trait task chi,2021.2.3,Win32,165.0165017,,,,,,,
,,,,,,,,2.6875,1.712,space,0.315,0,30,30,30,1,31,image/31.jpg,0,0,,er3,2,2024-05-31_01h44.59.043,face trait task chi,2021.2.3,Win32,165.0165017,,,,,,,
,,,,,,,,6.0875,4.578,space,2.851,0,31,31,0,1,1,image/1.jpg,0,0,,er3,2,2024-05-31_01h44.59.043,face trait task chi,2021.2.3,Win32,165.0165017,,,,,,,
,,,,,,,,6.65625,1.461,space,0.226,0,32,32,34,1,35,image/35.jpg,0,0,,er3,2,2024-05-31_01h44.59.043,face trait task chi,2021.2.3,Win32,165.0165017,,,,,,,
,,,,,,,,2.4,1.91,space,0.261,0,33,33,24,1,25,image/25.jpg,0,0,,er3,2,2024-05-31_01h44.59.043,face trait task chi,2021.2.3,Win32,165.0165017,,,,,,,
,,,,,,,,2.375,7.155,space,0.083,0,34,34,18,1,19,image/19.jpg,0,0,,er3,2,2024-05-31_01h44.59.043,face trait task chi,2021.2.3,Win32,165.0165017,,,,,,,
,,,,,,,,6.46875,2.421,space,0.514,0,35,35,7,1,8,image/8.jpg,0,0,,er3,2,2024-05-31_01h44.59.043,face trait task chi,2021.2.3,Win32,165.0165017,,,,,,,
,,,,,,,,1,2.745,space,1.335,0,36,36,50,1,55,image/fill_img.png,1,1,请将滑块完全移动到<左边>，以示您在专心判断。,er3,2,2024-05-31_01h44.59.043,face trait task chi,2021.2.3,Win32,165.0165017,,,,,,,
,,,,,,,,4.24375,3.247,space,0.225,0,37,37,29,1,30,image/30.jpg,0,0,,er3,2,2024-05-31_01h44.59.043,face trait task chi,2021.2.3,Win32,165.0165017,,,,,,,
,,,,,,,,5.15,1.522,space,0.549,0,38,38,27,1,28,image/28.jpg,0,0,,er3,2,2024-05-31_01h44.59.043,face trait task chi,2021.2.3,Win32,165.0165017,,,,,,,
,,,,,,,,2.375,1.236,space,0.293,0,39,39,17,1,18,image/18.jpg,0,0,,er3,2,2024-05-31_01h44.59.043,face trait task chi,2021.2.3,Win32,165.0165017,,,,,,,
,,,,,,,,1.7875,1.464,space,0.407,0,40,40,25,1,26,image/26.jpg,0,0,,er3,2,2024-05-31_01h44.59.043,face trait task chi,2021.2.3,Win32,165.0165017,,,,,,,
,,,,,,,,5.38125,2.708,space,0.284,0,41,41,33,1,34,image/34.jpg,0,0,,er3,2,2024-05-31_01h44.59.043,face trait task chi,2021.2.3,Win32,165.0165017,,,,,,,
,,,,,,,,1.9875,1.901,space,0.341,0,42,42,8,1,9,image/9.jpg,0,0,,er3,2,2024-05-31_01h44.59.043,face trait task chi,2021.2.3,Win32,165.0165017,,,,,,,
,,,,,,,,2.2625,2.65,space,0.31,0,43,43,9,1,10,image/10.jpg,0,0,,er3,2,2024-05-31_01h44.59.043,face trait task chi,2021.2.3,Win32,165.0165017,,,,,,,
,,,,,,,,5.35,3.154,space,0.417,0,44,44,20,1,21,image/21.jpg,0,0,,er3,2,2024-05-31_01h44.59.043,face trait task chi,2021.2.3,Win32,165.0165017,,,,,,,
,,,,,,,,5.2625,1.83,space,0.268,0,45,45,12,1,13,image/13.jpg,0,0,,er3,2,2024-05-31_01h44.59.043,face trait task chi,2021.2.3,Win32,165.0165017,,,,,,,
,,,,,,,,3.1875,1.945,space,0.404,0,46,46,21,1,22,image/22.jpg,0,0,,er3,2,2024-05-31_01h44.59.043,face trait task chi,2021.2.3,Win32,165.0165017,,,,,,,
,,,,,,,,2.69375,1.634,space,0.275,0,47,47,1,1,2,image/2.jpg,0,0,,er3,2,2024-05-31_01h44.59.043,face trait task chi,2021.2.3,Win32,165.0165017,,,,,,,
,,,,,,,,2.1,2.895,space,0.739,0,48,48,19,1,20,image/20.jpg,0,0,,er3,2,2024-05-31_01h44.59.043,face trait task chi,2021.2.3,Win32,165.0165017,,,,,,,
,,,,,,,,5.3875,1.656,space,0.353,0,49,49,43,1,44,image/44.jpg,0,0,,er3,2,2024-05-31_01h44.59.043,face trait task chi,2021.2.3,Win32,165.0165017,,,,,,,
,,,,,,,,2.2375,1.633,space,0.301,0,50,50,15,1,16,image/16.jpg,0,0,,er3,2,2024-05-31_01h44.59.043,face trait task chi,2021.2.3,Win32,165.0165017,,,,,,,
,,,,,,,,5.2625,2.37,space,1.594,0,51,51,44,1,45,image/45.jpg,0,0,,er3,2,2024-05-31_01h44.59.043,face trait task chi,2021.2.3,Win32,165.0165017,,,,,,,
,,,,,,,,5.65,1.523,space,0.388,0,52,52,4,1,5,image/5.jpg,0,0,,er3,2,2024-05-31_01h44.59.043,face trait task chi,2021.2.3,Win32,165.0165017,,,,,,,
,,,,,,,,,,,,,,,,,,,,,,er3,2,2024-05-31_01h44.59.043,face trait task chi,2021.2.3,Win32,165.0165017,0,3,3,2,1,2,trustworthy.png