﻿chooserow,ParID,pre_instru_resp_2.keys,pre_instru_resp_2.rt,pre_instru_resp_3.keys,pre_instru_resp_3.rt,pre_instru_resp_9.keys,pre_instru_resp_9.rt,pre_instru_resp_8.keys,pre_instru_resp_8.rt,pre_instru_resp_4.keys,pre_instru_resp_4.rt,pre_instru_resp_5.keys,pre_instru_resp_5.rt,pre_instru_resp_6.keys,pre_instru_resp_6.rt,key_resp_3.keys,key_resp_3.rt,key_resp_4.keys,key_resp_4.rt,key_resp_5.keys,key_resp_5.rt,key_resp_6.keys,key_resp_6.rt,key_resp_7.keys,key_resp_7.rt,trials_2.thisRepN,trials_2.thisTrialN,trials_2.thisN,trials_2.thisIndex,trials_2.ran,participant,session,date,expName,psychopyVersion,OS,frameRate,pre_instru_resp.keys,pre_instru_resp.rt,clicked,judge_2.x,judge_2.y,judge_2.leftButton,judge_2.midButton,judge_2.rightButton,judge_2.clicked_name,trials.thisRepN,trials.thisTrialN,trials.thisN,trials.thisIndex,trials.ran,prac_answer,prac_dot_sti,dotlefttext,dotrighttext,prac_acc,judge.x,judge.y,judge.leftButton,judge.midButton,judge.rightButton,judge.clicked_name,clicked_guilt,slider_guilt.response,slider_guilt.rt,key_guilt.keys,share_slider.response,share_slider.rt,key_share.keys,key_share.rt,slider_apology.response,slider_apology.rt,key_apology.keys,slider_hide.response,slider_hide.rt,slider_forgiveness.response,slider_forgiveness.rt,key_forgiveness.keys,slider_mad.response,slider_mad.rt,trialseq.thisRepN,trialseq.thisTrialN,trialseq.thisN,trialseq.thisIndex,trialseq.ran,type_trial,stipic,DV,picture,answer,number,key_guilt.rt,key_forgiveness.rt,key_apology.rt,incompleteTrials,slider_friendly.response,slider_friendly.rt,slider_trustworthy.response,slider_trustworthy.rt,slider_competence.response,slider_competence.rt,slider_critical.response,slider_critical.rt,key_resp.keys,trials_redo.thisRepN,trials_redo.thisTrialN,trials_redo.thisN,trials_redo.thisIndex,trials_redo.ran,key_resp.rt
"[165,48,88,134,197,141,202,124,144,121,82,184,71,163,47,75,90,99,117,179,56,77,89,63,150,69,148,106,188,101,156,118,50,171,137,6,17,122,173,110,30,191]",好运跟着来呗,space,1.7373,space,1.494,space,1.4792,space,0.5511,space,5.3822,space,16.4078,space,2.7751,3,4.726,3,5.1002,3,7.6782,1,7.9542,2,2.1725,0,0,0,0,1,好运跟着来呗,1,2024-05-31_00h56.40.663,interaction task chi,2021.2.3,Win32,123.4567901,,,,,,,,,,,,,,,,,,,,,,,,,,,,,,,,,,,,,,,,,,,,,,,,,,,,,,,,,,,,,,,,,,,,,,,,,
,,,,space,2.1588,space,42.6437,space,0.6164,space,23.59,space,1.7314,space,0.9926,3,1.7445,1,3.7579,3,5.9663,1,6.2915,2,1.6161,1,0,1,0,1,好运跟着来呗,1,2024-05-31_00h56.40.663,interaction task chi,2021.2.3,Win32,123.4567901,,,,,,,,,,,,,,,,,,,,,,,,,,,,,,,,,,,,,,,,,,,,,,,,,,,,,,,,,,,,,,,,,,,,,,,,,
,,,,space,0.1236,space,0.1404,space,0.1334,space,0.1579,space,1.0974,space,0.4594,3,1.2175,1,3.0507,3,3.1183,3,3.9173,2,1.5942,2,0,2,0,1,好运跟着来呗,1,2024-05-31_00h56.40.663,interaction task chi,2021.2.3,Win32,123.4567901,,,,,,,,,,,,,,,,,,,,,,,,,,,,,,,,,,,,,,,,,,,,,,,,,,,,,,,,,,,,,,,,,,,,,,,,,
,,,,space,0.0264,space,0.1282,space,0.1664,space,0.21,space,0.4426,space,0.1931,3,1.4509,1,2.2011,3,0.809,2,3.9584,2,4.0177,3,0,3,0,1,好运跟着来呗,1,2024-05-31_00h56.40.663,interaction task chi,2021.2.3,Win32,123.4567901,,,,,,,,,,,,,,,,,,,,,,,,,,,,,,,,,,,,,,,,,,,,,,,,,,,,,,,,,,,,,,,,,,,,,,,,,
,,,,,,,,,,,,,,,,,,,,,,,,,,,,,,,好运跟着来呗,1,2024-05-31_00h56.40.663,interaction task chi,2021.2.3,Win32,123.4567901,space,2.365,"[""LeftButton_2""]",-0.267330552,-0.33333341,1,0,0,LeftButton_2,0,0,0,0,1,RightButton_2,11dot2.png,小于,大于,,,,,,,,,,,,,,,,,,,,,,,,,,,,,,,,,,,,,,,,,,,,,,,,,,,,,,,
,,,,,,,,,,,,,,,,,,,,,,,,,,,,,,,好运跟着来呗,1,2024-05-31_00h56.40.663,interaction task chi,2021.2.3,Win32,123.4567901,,,"[""RightButton_2""]",0.299746191,-0.339581419,1,0,0,RightButton_2,0,1,1,2,1,RightButton_2,11dot1.png,小于,大于,,,,,,,,,,,,,,,,,,,,,,,,,,,,,,,,,,,,,,,,,,,,,,,,,,,,,,,
,,,,,,,,,,,,,,,,,,,,,,,,,,,,,,,好运跟着来呗,1,2024-05-31_00h56.40.663,interaction task chi,2021.2.3,Win32,123.4567901,,,"[""RightButton_2""]",0.252099295,-0.297094658,1,0,0,RightButton_2,0,2,2,1,1,LeftButton_2,9dot2.png,小于,大于,,,,,,,,,,,,,,,,,,,,,,,,,,,,,,,,,,,,,,,,,,,,,,,,,,,,,,,
,,,,,,,,,,,,,,,,,,,,,,,,,,,,,,,好运跟着来呗,1,2024-05-31_00h56.40.663,interaction task chi,2021.2.3,Win32,123.4567901,,,,,,,,,,,,,,,,,小于,大于,0.2,0.320835822,-0.504529873,1,0,0,RightButton,"[""RightButton""]",,,,1.990433372,4.8229,space,0.793,,,,,,,,,,,0,0,0,0,1,3,only_sub_wrong.png,1,RandomDot6.png,No answer,21,,,,,,,,,,,,,,,,,,,
,,,,,,,,,,,,,,,,,,,,,,,,,,,,,,,好运跟着来呗,1,2024-05-31_00h56.40.663,interaction task chi,2021.2.3,Win32,123.4567901,,,,,,,,,,,,,,,,,大于,小于,,-0.268892794,-0.530771672,1,0,0,LeftButton,"[""LeftButton""]",61,2.9374,space,,,,,,,,,,,,,,,0,1,1,1,1,1,both_wrong.png,0,RandomDot24.png,No answer,21,0.7447,,,,,,,,,,,,,,,,,,
,,,,,,,,,,,,,,,,,,,,,,,,,,,,,,,好运跟着来呗,1,2024-05-31_00h56.40.663,interaction task chi,2021.2.3,Win32,123.4567901,,,,,,,,,,,,,,,,,大于,小于,,-0.342315906,-0.494533035,1,0,0,LeftButton,"[""LeftButton""]",,,,,,,,,,,,,56.50787284,2.4538,space,42.70328862,7.877,0,2,2,2,1,1,both_wrong.png,3,RandomDot30.png,No answer,20,,4.6424,,,,,,,,,,,,,,,,,
,,,,,,,,,,,,,,,,,,,,,,,,,,,,,,,好运跟着来呗,1,2024-05-31_00h56.40.663,interaction task chi,2021.2.3,Win32,123.4567901,,,,,,,,,,,,,,,,,大于,小于,,0.280999852,-0.484536082,1,0,0,RightButton,"[""RightButton""]",,,,,,,,,,,,,95.39735427,3.4377,space,12.09656349,5.6629,0,3,3,3,1,2,only_sub_right.png,3,RandomDot22.png,No answer,20,,0.4598,,,,,,,,,,,,,,,,,
,,,,,,,,,,,,,,,,,,,,,,,,,,,,,,,好运跟着来呗,1,2024-05-31_00h56.40.663,interaction task chi,2021.2.3,Win32,123.4567901,,,,,,,,,,,,,,,,,小于,大于,,0.297402899,-0.53202132,1,0,0,RightButton,"[""RightButton""]",,,,,,,,,,,,,,,,,,0,4,4,4,1,4,both_right.png,10,RandomDot41.png,RightButton,5,,,,,,,,,,,,,,,,,,,
,,,,,,,,,,,,,,,,,,,,,,,,,,,,,,,好运跟着来呗,1,2024-05-31_00h56.40.663,interaction task chi,2021.2.3,Win32,123.4567901,,,,,,,,,,,,,,,,,小于,大于,,-0.279047013,-0.53202132,1,0,0,LeftButton,"[""LeftButton""]",,,,,,,,,,,,,92.00537613,7.0613,space,19.35382695,8.8067,0,5,5,5,1,2,only_sub_right.png,3,RandomDot7.png,No answer,20,,1.3529,,,,,,,,,,,,,,,,,
,,,,,,,,,,,,,,,,,,,,,,,,,,,,,,,好运跟着来呗,1,2024-05-31_00h56.40.663,interaction task chi,2021.2.3,Win32,123.4567901,,,,,,,,,,,,,,,,,小于,大于,,-0.261081796,-0.482036902,1,0,0,LeftButton,"[""LeftButton""]",,,,,,,,,,,,,,,,,,0,6,6,6,1,5,both_right.png,10,RandomDot42.png,LeftButton,21,,,,,,,,,,,,,,,,,,,
,,,,,,,,,,,,,,,,,,,,,,,,,,,,,,,好运跟着来呗,1,2024-05-31_00h56.40.663,interaction task chi,2021.2.3,Win32,123.4567901,,,,,,,,,,,,,,,,,大于,小于,,-0.26420621,-0.520774834,1,0,0,LeftButton,"[""LeftButton""]",,,,,,,,98,7.5626,space,52,4.0437,,,,,,0,7,7,7,1,2,only_sub_right.png,2,RandomDot20.png,No answer,20,,,6.7079,,,,,,,,,,,,,,,,
,,,,,,,,,,,,,,,,,,,,,,,,,,,,,,,好运跟着来呗,1,2024-05-31_00h56.40.663,interaction task chi,2021.2.3,Win32,123.4567901,,,,,,,,,,,,,,,,,大于,小于,,-0.363405537,-0.539518977,1,0,0,LeftButton,"[""LeftButton""]",89,2.5709,space,,,,,,,,,,,,,,,0,8,8,8,1,3,only_sub_wrong.png,0,RandomDot33.png,No answer,19,1.4367,,,,,,,,,,,,,,,,,,
,,,,,,,,,,,,,,,,,,,,,,,,,,,,,,,好运跟着来呗,1,2024-05-31_00h56.40.663,interaction task chi,2021.2.3,Win32,123.4567901,,,,,,,,,,,,,,,,,大于,小于,,0.227104129,-0.473289597,1,0,0,RightButton,"[""RightButton""]",,,,,,,,21,4.0813,space,55,6.2655,,,,,,0,9,9,9,1,2,only_sub_right.png,2,RandomDot18.png,No answer,19,,,0.9875,,,,,,,,,,,,,,,,
,,,,,,,,,,,,,,,,,,,,,,,,,,,,,,,好运跟着来呗,1,2024-05-31_00h56.40.663,interaction task chi,2021.2.3,Win32,123.4567901,,,,,,,,,,,,,,,,,小于,大于,,0.345830988,-0.517026006,1,0,0,RightButton,"[""RightButton""]",,,,,,,,94,2.6954,space,88,3.9231,,,,,,0,10,10,10,1,1,both_wrong.png,2,RandomDot7.png,No answer,21,,,0.2685,,,,,,,,,,,,,,,,
,,,,,,,,,,,,,,,,,,,,,,,,,,,,,,,好运跟着来呗,1,2024-05-31_00h56.40.663,interaction task chi,2021.2.3,Win32,123.4567901,,,,,,,,,,,,,,,,,大于,小于,,0.259910221,-0.50577952,1,0,0,RightButton,"[""RightButton""]",,,,,,,,,,,,,30.71302569,3.2505,space,93.34638302,4.8008,0,11,11,11,1,3,only_sub_wrong.png,3,RandomDot20.png,No answer,20,,1.3366,,,,,,,,,,,,,,,,,
,,,,,,,,,,,,,,,,,,,,,,,,,,,,,,,好运跟着来呗,1,2024-05-31_00h56.40.663,interaction task chi,2021.2.3,Win32,123.4567901,,,,,,,,,,,,,,,,,小于,大于,,-0.280609256,-0.522024367,1,0,0,LeftButton,"[""LeftButton""]",,,,4.965833851,5.6276,space,1.7843,,,,,,,,,,,0,12,12,12,1,1,both_wrong.png,1,RandomDot14.png,No answer,20,,,,,,,,,,,,,,,,,,,
,,,,,,,,,,,,,,,,,,,,,,,,,,,,,,,好运跟着来呗,1,2024-05-31_00h56.40.663,interaction task chi,2021.2.3,Win32,123.4567901,,,,,,,,,,,,,,,,,小于,大于,,0.31849253,-0.492033739,1,0,0,RightButton,"[""RightButton""]",,,,3.989652232,2.442,space,0.9016,,,,,,,,,,,0,13,13,13,1,3,only_sub_wrong.png,1,RandomDot6.png,No answer,20,,,,,,,,,,,,,,,,,,,
,,,,,,,,,,,,,,,,,,,,,,,,,,,,,,,好运跟着来呗,1,2024-05-31_00h56.40.663,interaction task chi,2021.2.3,Win32,123.4567901,,,,,,,,,,,,,,,,,小于,大于,,0.280218803,-0.509528349,1,0,0,RightButton,"[""RightButton""]",,,,,,,,,,,,,,,,,,0,14,14,14,1,0,both_right.png,3,RandomDot13.png,No answer,19,,,,,,,,,,,,,,,,,,,
,,,,,,,,,,,,,,,,,,,,,,,,,,,,,,,好运跟着来呗,1,2024-05-31_00h56.40.663,interaction task chi,2021.2.3,Win32,123.4567901,,,,,,,,,,,,,,,,,大于,小于,,-0.253270798,-0.547016634,1,0,0,LeftButton,"[""LeftButton""]",,,,,,,,81,3.666,space,77,4.9842,,,,,,0,15,15,15,1,1,both_wrong.png,2,RandomDot10.png,No answer,20,,,1.7192,,,,,,,,,,,,,,,,
,,,,,,,,,,,,,,,,,,,,,,,,,,,,,,,好运跟着来呗,1,2024-05-31_00h56.40.663,interaction task chi,2021.2.3,Win32,123.4567901,,,,,,,,,,,,,,,,,小于,大于,,0.258347979,-0.513277177,0,0,0,,[],,,,,,,,,,,,,,,,,,0,16,16,16,1,1,both_wrong.png,3,RandomDot29.png,No answer,19,,,,90,,,,,,,,,,,,,,,
,,,,,,,,,,,,,,,,,,,,,,,,,,,,,,,好运跟着来呗,1,2024-05-31_00h56.40.663,interaction task chi,2021.2.3,Win32,123.4567901,,,,,,,,,,,,,,,,,大于,小于,,-0.320445226,-0.497032216,1,0,0,LeftButton,"[""LeftButton""]",52,3.4337,space,,,,,,,,,,,,,,,0,17,17,17,1,2,only_sub_right.png,0,RandomDot21.png,No answer,19,4.7395,,,,,,,,,,,,,,,,,,
,,,,,,,,,,,,,,,,,,,,,,,,,,,,,,,好运跟着来呗,1,2024-05-31_00h56.40.663,interaction task chi,2021.2.3,Win32,123.4567901,,,,,,,,,,,,,,,,,小于,大于,,0.339582161,-0.513277177,1,0,0,RightButton,"[""RightButton""]",,,,3.001757155,2.9079,space,2.2602,,,,,,,,,,,0,18,18,18,1,2,only_sub_right.png,1,RandomDot27.png,No answer,21,,,,,,,,,,,,,,,,,,,
,,,,,,,,,,,,,,,,,,,,,,,,,,,,,,,好运跟着来呗,1,2024-05-31_00h56.40.663,interaction task chi,2021.2.3,Win32,123.4567901,,,,,,,,,,,,,,,,,小于,大于,,0.268502341,-0.518275539,1,0,0,RightButton,"[""RightButton""]",,,,,,,,71,7.9663,space,69,8.5245,,,,,,0,19,19,19,1,3,only_sub_wrong.png,2,RandomDot15.png,No answer,20,,,0.6758,,,,,,,,,,,,,,,,
,,,,,,,,,,,,,,,,,,,,,,,,,,,,,,,好运跟着来呗,1,2024-05-31_00h56.40.663,interaction task chi,2021.2.3,Win32,123.4567901,,,,,,,,,,,,,,,,,小于,大于,,0.319273579,-0.522024367,1,0,0,RightButton,"[""RightButton""]",77,2.4324,space,,,,,,,,,,,,,,,0,20,20,20,1,1,both_wrong.png,0,RandomDot39.png,No answer,21,2.1505,,,,,,,,,,,,,,,,,,
,,,,,,,,,,,,,,,,,,,,,,,,,,,,,,,好运跟着来呗,1,2024-05-31_00h56.40.663,interaction task chi,2021.2.3,Win32,123.4567901,,,,,,,,,,,,,,,,,大于,小于,,-0.285295841,-0.495782568,1,0,0,LeftButton,"[""LeftButton""]",,,,,,,,83,3.1024,space,83,2.221,,,,,,0,21,21,21,1,1,both_wrong.png,2,RandomDot13.png,No answer,21,,,1.7102,,,,,,,,,,,,,,,,
,,,,,,,,,,,,,,,,,,,,,,,,,,,,,,,好运跟着来呗,1,2024-05-31_00h56.40.663,interaction task chi,2021.2.3,Win32,123.4567901,,,,,,,,,,,,,,,,,大于,小于,,0.323960164,-0.54076851,1,0,0,RightButton,"[""RightButton""]",,,,,,,,,,,,,30.63413996,2.1819,space,58.55883687,3.3894,0,22,22,22,1,1,both_wrong.png,3,RandomDot6.png,No answer,21,,1.1765,,,,,,,,,,,,,,,,,
,,,,,,,,,,,,,,,,,,,,,,,,,,,,,,,好运跟着来呗,1,2024-05-31_00h56.40.663,interaction task chi,2021.2.3,Win32,123.4567901,,,,,,,,,,,,,,,,,大于,小于,,0.321616872,-0.525773196,1,0,0,RightButton,"[""RightButton""]",,,,3.029089988,1.9447,space,1.2311,,,,,,,,,,,0,23,23,23,1,1,both_wrong.png,1,RandomDot27.png,No answer,19,,,,,,,,,,,,,,,,,,,
,,,,,,,,,,,,,,,,,,,,,,,,,,,,,,,好运跟着来呗,1,2024-05-31_00h56.40.663,interaction task chi,2021.2.3,Win32,123.4567901,,,,,,,,,,,,,,,,,小于,大于,,-0.323569568,-0.522024367,1,0,0,LeftButton,"[""LeftButton""]",88,2.0577,space,,,,,,,,,,,,,,,0,24,24,24,1,3,only_sub_wrong.png,0,RandomDot16.png,No answer,21,1.4187,,,,,,,,,,,,,,,,,,
,,,,,,,,,,,,,,,,,,,,,,,,,,,,,,,好运跟着来呗,1,2024-05-31_00h56.40.663,interaction task chi,2021.2.3,Win32,123.4567901,,,,,,,,,,,,,,,,,小于,大于,,-0.253270798,-0.468291235,1,0,0,LeftButton,"[""LeftButton""]",,,,4.044318614,2.4954,space,1.9396,,,,,,,,,,,0,25,25,25,1,1,both_wrong.png,1,RandomDot13.png,No answer,19,,,,,,,,,,,,,,,,,,,
,,,,,,,,,,,,,,,,,,,,,,,,,,,,,,,好运跟着来呗,1,2024-05-31_00h56.40.663,interaction task chi,2021.2.3,Win32,123.4567901,,,,,,,,,,,,,,,,,大于,小于,,-0.247022042,-0.547016634,1,0,0,LeftButton,"[""LeftButton""]",93,2.4034,space,,,,,,,,,,,,,,,0,26,26,26,1,3,only_sub_wrong.png,0,RandomDot12.png,No answer,20,1.8343,,,,,,,,,,,,,,,,,,
,,,,,,,,,,,,,,,,,,,,,,,,,,,,,,,好运跟着来呗,1,2024-05-31_00h56.40.663,interaction task chi,2021.2.3,Win32,123.4567901,,,,,,,,,,,,,,,,,小于,大于,,0.27865656,-0.533270853,1,0,0,RightButton,"[""RightButton""]",23,1.7536,space,,,,,,,,,,,,,,,0,27,27,27,1,2,only_sub_right.png,0,RandomDot39.png,No answer,19,1.3267,,,,,,,,,,,,,,,,,,
,,,,,,,,,,,,,,,,,,,,,,,,,,,,,,,好运跟着来呗,1,2024-05-31_00h56.40.663,interaction task chi,2021.2.3,Win32,123.4567901,,,,,,,,,,,,,,,,,小于,大于,,-0.275922671,-0.513277177,1,0,0,LeftButton,"[""LeftButton""]",,,,,,,,,,,,,19.03829124,2.1674,space,80.01510598,3.7693,0,28,28,28,1,3,only_sub_wrong.png,3,RandomDot22.png,No answer,21,,1.4853,,,,,,,,,,,,,,,,,
,,,,,,,,,,,,,,,,,,,,,,,,,,,,,,,好运跟着来呗,1,2024-05-31_00h56.40.663,interaction task chi,2021.2.3,Win32,123.4567901,,,,,,,,,,,,,,,,,大于,小于,,0.327084649,-0.533270853,1,0,0,RightButton,"[""RightButton""]",14,3.4784,space,,,,,,,,,,,,,,,0,29,29,29,1,2,only_sub_right.png,0,RandomDot18.png,No answer,21,2.8566,,,,,,,,,,,,,,,,,,
,,,,,,,,,,,,,,,,,,,,,,,,,,,,,,,好运跟着来呗,1,2024-05-31_00h56.40.663,interaction task chi,2021.2.3,Win32,123.4567901,,,,,,,,,,,,,,,,,大于,小于,,0.320054772,-0.5345205,1,0,0,RightButton,"[""RightButton""]",,,,3.173564916,0.5504,space,0.0595,,,,,,,,,,,0,30,30,30,1,3,only_sub_wrong.png,1,RandomDot4.png,No answer,20,,,,,,,,,,,,,,,,,,,
,,,,,,,,,,,,,,,,,,,,,,,,,,,,,,,好运跟着来呗,1,2024-05-31_00h56.40.663,interaction task chi,2021.2.3,Win32,123.4567901,,,,,,,,,,,,,,,,,小于,大于,,0.306776068,-0.510777882,1,0,0,RightButton,"[""RightButton""]",,,,0.990823764,2.6211,space,0.035,,,,,,,,,,,0,31,31,31,1,2,only_sub_right.png,1,RandomDot34.png,No answer,19,,,,,,,,,,,,,,,,,,,
,,,,,,,,,,,,,,,,,,,,,,,,,,,,,,,好运跟着来呗,1,2024-05-31_00h56.40.663,interaction task chi,2021.2.3,Win32,123.4567901,,,,,,,,,,,,,,,,,大于,小于,,-0.247022042,-0.547016634,1,0,0,LeftButton,"[""LeftButton""]",48,2.6616,space,,,,,,,,,,,,,,,0,32,32,32,1,1,both_wrong.png,0,RandomDot12.png,No answer,21,0.7932,,,,,,,,,,,,,,,,,,
,,,,,,,,,,,,,,,,,,,,,,,,,,,,,,,好运跟着来呗,1,2024-05-31_00h56.40.663,interaction task chi,2021.2.3,Win32,123.4567901,,,,,,,,,,,,,,,,,大于,小于,,-0.279828135,-0.545766986,1,0,0,LeftButton,"[""LeftButton""]",,,,,,,,79,3.4339,space,51,4.5317,,,,,,0,33,33,33,1,3,only_sub_wrong.png,2,RandomDot23.png,No answer,20,,,0.3199,,,,,,,,,,,,,,,,
,,,,,,,,,,,,,,,,,,,,,,,,,,,,,,,好运跟着来呗,1,2024-05-31_00h56.40.663,interaction task chi,2021.2.3,Win32,123.4567901,,,,,,,,,,,,,,,,,大于,小于,,-0.250927506,-0.510777882,1,0,0,LeftButton,"[""LeftButton""]",,,,,,,,,,,,,91.45318323,2.1243,space,28.34652595,3.4491,0,34,34,34,1,2,only_sub_right.png,3,RandomDot23.png,No answer,20,,0.2756,,,,,,,,,,,,,,,,,
,,,,,,,,,,,,,,,,,,,,,,,,,,,,,,,好运跟着来呗,1,2024-05-31_00h56.40.663,interaction task chi,2021.2.3,Win32,123.4567901,,,,,,,,,,,,,,,,,小于,大于,,-0.302479937,-0.475788892,1,0,0,LeftButton,"[""LeftButton""]",,,,,,,,,,,,,,,,,,0,35,35,35,1,0,both_right.png,0,RandomDot22.png,No answer,19,,,,,,,,,,,,,,,,,,,
,,,,,,,,,,,,,,,,,,,,,,,,,,,,,,,好运跟着来呗,1,2024-05-31_00h56.40.663,interaction task chi,2021.2.3,Win32,123.4567901,,,,,,,,,,,,,,,,,大于,小于,,-0.281390306,-0.537019681,1,0,0,LeftButton,"[""LeftButton""]",,,,,,,,,,,,,,,,,,0,36,36,36,1,0,both_right.png,1,RandomDot7.png,No answer,21,,,,,,,,,,,,,,,,,,,
,,,,,,,,,,,,,,,,,,,,,,,,,,,,,,,好运跟着来呗,1,2024-05-31_00h56.40.663,interaction task chi,2021.2.3,Win32,123.4567901,,,,,,,,,,,,,,,,,大于,小于,,-0.300917766,-0.508278701,1,0,0,LeftButton,"[""LeftButton""]",,,,,,,,27,2.3918,space,30,4.542,,,,,,0,37,37,37,1,2,only_sub_right.png,2,RandomDot33.png,No answer,20,,,0.2182,,,,,,,,,,,,,,,,
,,,,,,,,,,,,,,,,,,,,,,,,,,,,,,,好运跟着来呗,1,2024-05-31_00h56.40.663,interaction task chi,2021.2.3,Win32,123.4567901,,,,,,,,,,,,,,,,,大于,小于,,0.282562095,-0.544517338,1,0,0,RightButton,"[""RightButton""]",,,,,,,,90,1.8301,space,58,3.5298,,,,,,0,38,38,38,1,3,only_sub_wrong.png,2,RandomDot20.png,No answer,19,,,0.2308,,,,,,,,,,,,,,,,
,,,,,,,,,,,,,,,,,,,,,,,,,,,,,,,好运跟着来呗,1,2024-05-31_00h56.40.663,interaction task chi,2021.2.3,Win32,123.4567901,,,,,,,,,,,,,,,,,大于,小于,,-0.292325718,-0.508278701,1,0,0,LeftButton,"[""LeftButton""]",,,,3.6030845,0.9077,space,1.8426,,,,,,,,,,,0,39,39,39,1,2,only_sub_right.png,1,RandomDot6.png,No answer,21,,,,,,,,,,,,,,,,,,,
,,,,,,,,,,,,,,,,,,,,,,,,,,,,,,,好运跟着来呗,1,2024-05-31_00h56.40.663,interaction task chi,2021.2.3,Win32,123.4567901,,,,,,,,,,,,,,,,,小于,大于,,-0.236086702,-0.513277177,1,0,0,LeftButton,"[""LeftButton""]",,,,,,,,,,,,,,,,,,0,40,40,40,1,0,both_right.png,2,RandomDot24.png,No answer,21,,,,,,,,,,,,,,,,,,,
,,,,,,,,,,,,,,,,,,,,,,,,,,,,,,,好运跟着来呗,1,2024-05-31_00h56.40.663,interaction task chi,2021.2.3,Win32,123.4567901,,,,,,,,,,,,,,,,,小于,大于,,0.294278557,-0.477038425,1,0,0,RightButton,"[""RightButton""]",,,,,,,,,,,,,32.21181126,2.7364,space,79.22627754,4.5197,0,41,41,41,1,3,only_sub_wrong.png,3,RandomDot36.png,No answer,21,,1.6427,,,,,,,,,,,,,,,,,
,,,,,,,,,,,,,,,,,,,,,,,,,,,,,,,好运跟着来呗,1,2024-05-31_00h56.40.663,interaction task chi,2021.2.3,Win32,123.4567901,,,,,,,,,,,,,,,,,小于,大于,,-0.287639133,-0.490784206,1,0,0,LeftButton,"[""LeftButton""]",,,,,,,,,,,,,37.65476066,2.4865,space,63.52848632,1.5961,,,,,,1,both_wrong.png,3,RandomDot29.png,No answer,19,,0.3348,,,,,,,,,,,,0,0,0,0,1,
,,,,,,,,,,,,,,,,,,,,,,,,,,,,,,,好运跟着来呗,1,2024-05-31_00h56.40.663,interaction task chi,2021.2.3,Win32,123.4567901,,,,,,,,,,,,,,,,,,,,,,,,,,,,,,,,,,,,,,,,,,,,,,,,,,,,,,,,,,,4.995704822,6.8395,4.95821918,9.6082,5.047247043,12.4103,2.943381589,14.4034,space,,,,,,16.2548