﻿choose_trial,key_resp.keys,key_resp.rt,key_resp_4.keys,key_resp_4.rt,session_trait,key_resp_5.keys,key_resp_5.rt,slider_face_judge.response,slider_face_judge.rt,key_resp_3.keys,key_resp_3.rt,face_loop.thisRepN,face_loop.thisTrialN,face_loop.thisN,face_loop.thisIndex,face_loop.ran,face_serial,image_name,isCheck,answer,check_question,participant,session,date,expName,psychopyVersion,OS,frameRate,session.thisRepN,session.thisTrialN,session.thisN,session.thisIndex,session.ran,session_serial,slider_judge_img
"[0,1,2,3,4,5,6,7,8,9,10,11,12,13,14,15,16,17,18,19,20,21,22,23,24,25,26,27,28,29,30,31,32,33,34,35,36,37,38,39,40,41,42,43,44,45,46,47,48,49,52,53,55]",space,1.5136,space,3.189,trustworthy,space,1.7243,5.643429323,2.1513,space,0.7165,0,0,0,44,1,45,image/45.jpg,0,0,,sppq,2,2024-05-31_02h20.02.520,face trait task chi,2021.2.3,Win32,165.0165017,,,,,,,
,,,,,,,,2.531536733,2.1129,space,0.316,0,1,1,12,1,13,image/13.jpg,0,0,,sppq,2,2024-05-31_02h20.02.520,face trait task chi,2021.2.3,Win32,165.0165017,,,,,,,
,,,,,,,,5.626765402,1.2853,space,0.369,0,2,2,39,1,40,image/40.jpg,0,0,,sppq,2,2024-05-31_02h20.02.520,face trait task chi,2021.2.3,Win32,165.0165017,,,,,,,
,,,,,,,,5.860053426,3.5497,space,0.6568,0,3,3,7,1,8,image/8.jpg,0,0,,sppq,2,2024-05-31_02h20.02.520,face trait task chi,2021.2.3,Win32,165.0165017,,,,,,,
,,,,,,,,5.914209261,1.8404,space,0.7212,0,4,4,48,1,49,image/49.jpg,0,0,,sppq,2,2024-05-31_02h20.02.520,face trait task chi,2021.2.3,Win32,165.0165017,,,,,,,
,,,,,,,,2.077458626,1.9762,space,0.432,0,5,5,18,1,19,image/19.jpg,0,0,,sppq,2,2024-05-31_02h20.02.520,face trait task chi,2021.2.3,Win32,165.0165017,,,,,,,
,,,,,,,,1.998307673,1.904,space,0.7528,0,6,6,45,1,46,image/46.jpg,0,0,,sppq,2,2024-05-31_02h20.02.520,face trait task chi,2021.2.3,Win32,165.0165017,,,,,,,
,,,,,,,,5.485126654,2.3816,space,1.2074,0,7,7,41,1,42,image/42.jpg,0,0,,sppq,2,2024-05-31_02h20.02.520,face trait task chi,2021.2.3,Win32,165.0165017,,,,,,,
,,,,,,,,5.855887827,1.3878,space,0.3348,0,8,8,38,1,39,image/39.jpg,0,0,,sppq,2,2024-05-31_02h20.02.520,face trait task chi,2021.2.3,Win32,165.0165017,,,,,,,
,,,,,,,,4.110395156,3.8169,space,2.2391,0,9,9,6,1,7,image/7.jpg,0,0,,sppq,2,2024-05-31_02h20.02.520,face trait task chi,2021.2.3,Win32,165.0165017,,,,,,,
,,,,,,,,3.318882954,2.6175,space,0.3419,0,10,10,10,1,11,image/11.jpg,0,0,,sppq,2,2024-05-31_02h20.02.520,face trait task chi,2021.2.3,Win32,165.0165017,,,,,,,
,,,,,,,,5.301828866,2.079,space,0.1404,0,11,11,5,1,6,image/6.jpg,0,0,,sppq,2,2024-05-31_02h20.02.520,face trait task chi,2021.2.3,Win32,165.0165017,,,,,,,
,,,,,,,,6.20165312,1.1922,space,0.8303,0,12,12,4,1,5,image/5.jpg,0,0,,sppq,2,2024-05-31_02h20.02.520,face trait task chi,2021.2.3,Win32,165.0165017,,,,,,,
,,,,,,,,2.02746839,1.4985,space,0.242,0,13,13,32,1,33,image/33.jpg,0,0,,sppq,2,2024-05-31_02h20.02.520,face trait task chi,2021.2.3,Win32,165.0165017,,,,,,,
,,,,,,,,6.085009489,1.9467,space,0.4607,0,14,14,11,1,12,image/12.jpg,0,0,,sppq,2,2024-05-31_02h20.02.520,face trait task chi,2021.2.3,Win32,165.0165017,,,,,,,
,,,,,,,,2.052463508,1.7425,space,1.145,0,15,15,47,1,48,image/48.jpg,0,0,,sppq,2,2024-05-31_02h20.02.520,face trait task chi,2021.2.3,Win32,165.0165017,,,,,,,
,,,,,,,,1.62338071,2.5813,space,0.2429,0,16,16,13,1,14,image/14.jpg,0,0,,sppq,2,2024-05-31_02h20.02.520,face trait task chi,2021.2.3,Win32,165.0165017,,,,,,,
,,,,,,,,1.673370947,1.4685,space,0.262,0,17,17,23,1,24,image/24.jpg,0,0,,sppq,2,2024-05-31_02h20.02.520,face trait task chi,2021.2.3,Win32,165.0165017,,,,,,,
,,,,,,,,1,3.3416,space,2.8483,0,18,18,50,1,53,image/fill_img.png,1,1,请将滑块完全移动到<左边>，以示您在专心判断。,sppq,2,2024-05-31_02h20.02.520,face trait task chi,2021.2.3,Win32,165.0165017,,,,,,,
,,,,,,,,4.85191674,3.5463,space,0.2842,0,19,19,37,1,38,image/38.jpg,0,0,,sppq,2,2024-05-31_02h20.02.520,face trait task chi,2021.2.3,Win32,165.0165017,,,,,,,
,,,,,,,,1.977478154,1.8409,space,0.3848,0,20,20,20,1,21,image/21.jpg,0,0,,sppq,2,2024-05-31_02h20.02.520,face trait task chi,2021.2.3,Win32,165.0165017,,,,,,,
,,,,,,,,5.239341071,4.249,space,1.0748,0,21,21,22,1,23,image/23.jpg,0,0,,sppq,2,2024-05-31_02h20.02.520,face trait task chi,2021.2.3,Win32,165.0165017,,,,,,,
,,,,,,,,1,2.3248,space,1.9142,0,22,22,51,1,54,image/fill_img.png,1,1,请将滑块完全移动到<左边>，以示您在专心判断。,sppq,2,2024-05-31_02h20.02.520,face trait task chi,2021.2.3,Win32,165.0165017,,,,,,,
,,,,,,,,5.622599804,4.6618,space,0.2789,0,23,23,27,1,28,image/28.jpg,0,0,,sppq,2,2024-05-31_02h20.02.520,face trait task chi,2021.2.3,Win32,165.0165017,,,,,,,
,,,,,,,,2.644014765,3.062,space,0.2563,0,24,24,40,1,41,image/41.jpg,0,0,,sppq,2,2024-05-31_02h20.02.520,face trait task chi,2021.2.3,Win32,165.0165017,,,,,,,
,,,,,,,,2.039965949,2.5531,space,0.2163,0,25,25,31,1,32,image/32.jpg,0,0,,sppq,2,2024-05-31_02h20.02.520,face trait task chi,2021.2.3,Win32,165.0165017,,,,,,,
,,,,,,,,1.881663661,1.2995,space,0.443,0,26,26,2,1,3,image/3.jpg,0,0,,sppq,2,2024-05-31_02h20.02.520,face trait task chi,2021.2.3,Win32,165.0165017,,,,,,,
,,,,,,,,4.45199485,1.4907,space,1.171,0,27,27,25,1,26,image/26.jpg,0,0,,sppq,2,2024-05-31_02h20.02.520,face trait task chi,2021.2.3,Win32,165.0165017,,,,,,,
,,,,,,,,4.751936267,1.74,space,0.8176,0,28,28,42,1,43,image/43.jpg,0,0,,sppq,2,2024-05-31_02h20.02.520,face trait task chi,2021.2.3,Win32,165.0165017,,,,,,,
,,,,,,,,5.410141299,1.5471,space,0.5221,0,29,29,33,1,34,image/34.jpg,0,0,,sppq,2,2024-05-31_02h20.02.520,face trait task chi,2021.2.3,Win32,165.0165017,,,,,,,
,,,,,,,,1.977478154,4.5888,space,0.168,0,30,30,17,1,18,image/18.jpg,0,0,,sppq,2,2024-05-31_02h20.02.520,face trait task chi,2021.2.3,Win32,165.0165017,,,,,,,
,,,,,,,,4.139555873,3.1494,space,0.2426,0,31,31,36,1,37,image/37.jpg,0,0,,sppq,2,2024-05-31_02h20.02.520,face trait task chi,2021.2.3,Win32,165.0165017,,,,,,,
,,,,,,,,2.419058701,2.2315,space,0.3094,0,32,32,26,1,27,image/27.jpg,0,0,,sppq,2,2024-05-31_02h20.02.520,face trait task chi,2021.2.3,Win32,165.0165017,,,,,,,
,,,,,,,,1.931653898,2.0479,space,0.4176,0,33,33,21,1,22,image/22.jpg,0,0,,sppq,2,2024-05-31_02h20.02.520,face trait task chi,2021.2.3,Win32,165.0165017,,,,,,,
,,,,,,,,6.451604301,2.8938,space,1.2567,0,34,34,34,1,35,image/35.jpg,0,0,,sppq,2,2024-05-31_02h20.02.520,face trait task chi,2021.2.3,Win32,165.0165017,,,,,,,
,,,,,,,,1.989975713,2.7445,space,0.9699,0,35,35,30,1,31,image/31.jpg,0,0,,sppq,2,2024-05-31_02h20.02.520,face trait task chi,2021.2.3,Win32,165.0165017,,,,,,,
,,,,,,,,6.809867915,1.9487,space,0.218,0,36,36,35,1,36,image/36.jpg,0,0,,sppq,2,2024-05-31_02h20.02.520,face trait task chi,2021.2.3,Win32,165.0165017,,,,,,,
,,,,,,,,3.314716974,1.7305,space,0.2793,0,37,37,16,1,17,image/17.jpg,0,0,,sppq,2,2024-05-31_02h20.02.520,face trait task chi,2021.2.3,Win32,165.0165017,,,,,,,
,,,,,,,,5.67259004,1.7619,space,0.2805,0,38,38,3,1,4,image/4.jpg,0,0,,sppq,2,2024-05-31_02h20.02.520,face trait task chi,2021.2.3,Win32,165.0165017,,,,,,,
,,,,,,,,2.364902485,1.5098,space,0.2137,0,39,39,46,1,47,image/47.jpg,0,0,,sppq,2,2024-05-31_02h20.02.520,face trait task chi,2021.2.3,Win32,165.0165017,,,,,,,
,,,,,,,,1.594219803,1.5472,space,0.1974,0,40,40,24,1,25,image/25.jpg,0,0,,sppq,2,2024-05-31_02h20.02.520,face trait task chi,2021.2.3,Win32,165.0165017,,,,,,,
,,,,,,,,1.327605082,1.4203,space,0.1092,0,41,41,15,1,16,image/16.jpg,0,0,,sppq,2,2024-05-31_02h20.02.520,face trait task chi,2021.2.3,Win32,165.0165017,,,,,,,
,,,,,,,,2.473214918,2.9226,space,0.4908,0,42,42,28,1,29,image/29.jpg,0,0,,sppq,2,2024-05-31_02h20.02.520,face trait task chi,2021.2.3,Win32,165.0165017,,,,,,,
,,,,,,,,5.843390268,2.3927,space,0.2426,0,43,43,0,1,1,image/1.jpg,0,0,,sppq,2,2024-05-31_02h20.02.520,face trait task chi,2021.2.3,Win32,165.0165017,,,,,,,
,,,,,,,,3.498014762,3.3111,space,0.2191,0,44,44,1,1,2,image/2.jpg,0,0,,sppq,2,2024-05-31_02h20.02.520,face trait task chi,2021.2.3,Win32,165.0165017,,,,,,,
,,,,,,,,5.047712086,2.2729,space,0.3463,0,45,45,43,1,44,image/44.jpg,0,0,,sppq,2,2024-05-31_02h20.02.520,face trait task chi,2021.2.3,Win32,165.0165017,,,,,,,
,,,,,,,,5.026882567,2.7918,space,0.279,0,46,46,8,1,9,image/9.jpg,0,0,,sppq,2,2024-05-31_02h20.02.520,face trait task chi,2021.2.3,Win32,165.0165017,,,,,,,
,,,,,,,,1.427585555,2.3868,space,0.3448,0,47,47,9,1,10,image/10.jpg,0,0,,sppq,2,2024-05-31_02h20.02.520,face trait task chi,2021.2.3,Win32,165.0165017,,,,,,,
,,,,,,,,4.99772185,2.3892,space,0.166,0,48,48,29,1,30,image/30.jpg,0,0,,sppq,2,2024-05-31_02h20.02.520,face trait task chi,2021.2.3,Win32,165.0165017,,,,,,,
,,,,,,,,1.964980595,1.4793,space,0.2186,0,49,49,19,1,20,image/20.jpg,0,0,,sppq,2,2024-05-31_02h20.02.520,face trait task chi,2021.2.3,Win32,165.0165017,,,,,,,
,,,,,,,,5.093536724,2.1691,space,0.2621,0,50,50,49,1,50,image/50.jpg,0,0,,sppq,2,2024-05-31_02h20.02.520,face trait task chi,2021.2.3,Win32,165.0165017,,,,,,,
,,,,,,,,1.873332082,1.6346,space,0.7279,0,51,51,14,1,15,image/15.jpg,0,0,,sppq,2,2024-05-31_02h20.02.520,face trait task chi,2021.2.3,Win32,165.0165017,,,,,,,
,,,,,,,,7,3.0632,space,1.5342,0,52,52,52,1,56,image/fill_img.png,1,7,请将滑块完全移动到<右边>，以示您在专心判断。,sppq,2,2024-05-31_02h20.02.520,face trait task chi,2021.2.3,Win32,165.0165017,,,,,,,
,,,,,,,,,,,,,,,,,,,,,,sppq,2,2024-05-31_02h20.02.520,face trait task chi,2021.2.3,Win32,165.0165017,0,0,0,2,1,2,trustworthy.png
,,,,,competent,space,0.9476,3.218902482,3.0717,space,0.2114,0,0,0,2,1,3,image/3.jpg,0,0,,sppq,2,2024-05-31_02h20.02.520,face trait task chi,2021.2.3,Win32,165.0165017,,,,,,,
,,,,,,,,5.510121772,1.8699,space,0.2514,0,1,1,45,1,46,image/46.jpg,0,0,,sppq,2,2024-05-31_02h20.02.520,face trait task chi,2021.2.3,Win32,165.0165017,,,,,,,
,,,,,,,,2.444053819,1.6967,space,0.301,0,2,2,18,1,19,image/19.jpg,0,0,,sppq,2,2024-05-31_02h20.02.520,face trait task chi,2021.2.3,Win32,165.0165017,,,,,,,
,,,,,,,,5.822560749,1.4213,space,0.159,0,3,3,12,1,13,image/13.jpg,0,0,,sppq,2,2024-05-31_02h20.02.520,face trait task chi,2021.2.3,Win32,165.0165017,,,,,,,
,,,,,,,,4.389507054,1.8726,space,0.0902,0,4,4,6,1,7,image/7.jpg,0,0,,sppq,2,2024-05-31_02h20.02.520,face trait task chi,2021.2.3,Win32,165.0165017,,,,,,,
,,,,,,,,2.060795468,6.7221,space,0.2452,0,5,5,30,1,31,image/31.jpg,0,0,,sppq,2,2024-05-31_02h20.02.520,face trait task chi,2021.2.3,Win32,165.0165017,,,,,,,
,,,,,,,,1.973312555,1.903,space,0.1801,0,6,6,20,1,21,image/21.jpg,0,0,,sppq,2,2024-05-31_02h20.02.520,face trait task chi,2021.2.3,Win32,165.0165017,,,,,,,
,,,,,,,,5.051877685,3.8184,space,0.1184,0,7,7,23,1,24,image/24.jpg,0,0,,sppq,2,2024-05-31_02h20.02.520,face trait task chi,2021.2.3,Win32,165.0165017,,,,,,,
,,,,,,,,5.997526576,1.5618,space,0.3228,0,8,8,4,1,5,image/5.jpg,0,0,,sppq,2,2024-05-31_02h20.02.520,face trait task chi,2021.2.3,Win32,165.0165017,,,,,,,
,,,,,,,,1.960814996,1.3467,space,0.2113,0,9,9,24,1,25,image/25.jpg,0,0,,sppq,2,2024-05-31_02h20.02.520,face trait task chi,2021.2.3,Win32,165.0165017,,,,,,,
,,,,,,,,2.339907367,1.7502,space,0.2729,0,10,10,46,1,47,image/47.jpg,0,0,,sppq,2,2024-05-31_02h20.02.520,face trait task chi,2021.2.3,Win32,165.0165017,,,,,,,
,,,,,,,,5.022716968,3.1112,space,0.1763,0,11,11,31,1,32,image/32.jpg,0,0,,sppq,2,2024-05-31_02h20.02.520,face trait task chi,2021.2.3,Win32,165.0165017,,,,,,,
,,,,,,,,3.002277997,2.1565,space,0.1821,0,12,12,21,1,22,image/22.jpg,0,0,,sppq,2,2024-05-31_02h20.02.520,face trait task chi,2021.2.3,Win32,165.0165017,,,,,,,
,,,,,,,,4.956063193,2.9924,space,0.2181,0,13,13,32,1,33,image/33.jpg,0,0,,sppq,2,2024-05-31_02h20.02.520,face trait task chi,2021.2.3,Win32,165.0165017,,,,,,,
,,,,,,,,6.001692174,2.5636,space,0.1758,0,14,14,40,1,41,image/41.jpg,0,0,,sppq,2,2024-05-31_02h20.02.520,face trait task chi,2021.2.3,Win32,165.0165017,,,,,,,
,,,,,,,,2.998112399,2.1371,space,0.0935,0,15,15,1,1,2,image/2.jpg,0,0,,sppq,2,2024-05-31_02h20.02.520,face trait task chi,2021.2.3,Win32,165.0165017,,,,,,,
,,,,,,,,1.956649016,1.1818,space,0.2081,0,16,16,16,1,17,image/17.jpg,0,0,,sppq,2,2024-05-31_02h20.02.520,face trait task chi,2021.2.3,Win32,165.0165017,,,,,,,
,,,,,,,,3.968756026,3.0497,space,0.1631,0,17,17,0,1,1,image/1.jpg,0,0,,sppq,2,2024-05-31_02h20.02.520,face trait task chi,2021.2.3,Win32,165.0165017,,,,,,,
,,,,,,,,1.973312555,3.9347,space,0.2712,0,18,18,41,1,42,image/42.jpg,0,0,,sppq,2,2024-05-31_02h20.02.520,face trait task chi,2021.2.3,Win32,165.0165017,,,,,,,
,,,,,,,,6.026687293,2.6156,space,0.3031,0,19,19,36,1,37,image/37.jpg,0,0,,sppq,2,2024-05-31_02h20.02.520,face trait task chi,2021.2.3,Win32,165.0165017,,,,,,,
,,,,,,,,5.968365859,2.4414,space,0.3035,0,20,20,37,1,38,image/38.jpg,0,0,,sppq,2,2024-05-31_02h20.02.520,face trait task chi,2021.2.3,Win32,165.0165017,,,,,,,
,,,,,,,,6.622404529,2.5442,space,0.2061,0,21,21,34,1,35,image/35.jpg,0,0,,sppq,2,2024-05-31_02h20.02.520,face trait task chi,2021.2.3,Win32,165.0165017,,,,,,,
,,,,,,,,5.060209645,2.7398,space,0.6379,0,22,22,3,1,4,image/4.jpg,0,0,,sppq,2,2024-05-31_02h20.02.520,face trait task chi,2021.2.3,Win32,165.0165017,,,,,,,
,,,,,,,,5.38931178,1.7623,space,0.2777,0,23,23,43,1,44,image/44.jpg,0,0,,sppq,2,2024-05-31_02h20.02.520,face trait task chi,2021.2.3,Win32,165.0165017,,,,,,,
,,,,,,,,1.385927088,1.8783,space,0.2047,0,24,24,28,1,29,image/29.jpg,0,0,,sppq,2,2024-05-31_02h20.02.520,face trait task chi,2021.2.3,Win32,165.0165017,,,,,,,
,,,,,,,,4.45199485,1.8777,space,0.1842,0,25,25,10,1,11,image/11.jpg,0,0,,sppq,2,2024-05-31_02h20.02.520,face trait task chi,2021.2.3,Win32,165.0165017,,,,,,,
,,,,,,,,4.985224291,1.7243,space,0.1826,0,26,26,11,1,12,image/12.jpg,0,0,,sppq,2,2024-05-31_02h20.02.520,face trait task chi,2021.2.3,Win32,165.0165017,,,,,,,
,,,,,,,,1.981644134,2.3008,space,0.2382,0,27,27,19,1,20,image/20.jpg,0,0,,sppq,2,2024-05-31_02h20.02.520,face trait task chi,2021.2.3,Win32,165.0165017,,,,,,,
,,,,,,,,4.985224291,1.7459,space,0.2182,0,28,28,5,1,6,image/6.jpg,0,0,,sppq,2,2024-05-31_02h20.02.520,face trait task chi,2021.2.3,Win32,165.0165017,,,,,,,
,,,,,,,,2.002473272,1.8711,space,0.2415,0,29,29,14,1,15,image/15.jpg,0,0,,sppq,2,2024-05-31_02h20.02.520,face trait task chi,2021.2.3,Win32,165.0165017,,,,,,,
,,,,,,,,6.251643356,1.7135,space,0.2561,0,30,30,35,1,36,image/36.jpg,0,0,,sppq,2,2024-05-31_02h20.02.520,face trait task chi,2021.2.3,Win32,165.0165017,,,,,,,
,,,,,,,,3.806287758,2.2864,space,0.2128,0,31,31,47,1,48,image/48.jpg,0,0,,sppq,2,2024-05-31_02h20.02.520,face trait task chi,2021.2.3,Win32,165.0165017,,,,,,,
,,,,,,,,4.17704855,2.215,space,0.2609,0,32,32,27,1,28,image/28.jpg,0,0,,sppq,2,2024-05-31_02h20.02.520,face trait task chi,2021.2.3,Win32,165.0165017,,,,,,,
,,,,,,,,6.980668143,2.0495,space,0.6257,0,33,33,52,1,56,image/fill_img.png,1,7,请将滑块完全移动到<右边>，以示您在专心判断。,sppq,2,2024-05-31_02h20.02.520,face trait task chi,2021.2.3,Win32,165.0165017,,,,,,,
,,,,,,,,5.430970819,2.1311,space,0.3231,0,34,34,29,1,30,image/30.jpg,0,0,,sppq,2,2024-05-31_02h20.02.520,face trait task chi,2021.2.3,Win32,165.0165017,,,,,,,
,,,,,,,,2.414892721,1.2792,space,0.1096,0,35,35,13,1,14,image/14.jpg,0,0,,sppq,2,2024-05-31_02h20.02.520,face trait task chi,2021.2.3,Win32,165.0165017,,,,,,,
,,,,,,,,2.010805232,1.1935,space,0.0973,0,36,36,17,1,18,image/18.jpg,0,0,,sppq,2,2024-05-31_02h20.02.520,face trait task chi,2021.2.3,Win32,165.0165017,,,,,,,
,,,,,,,,4.156219412,2.731,space,0.2614,0,37,37,25,1,26,image/26.jpg,0,0,,sppq,2,2024-05-31_02h20.02.520,face trait task chi,2021.2.3,Win32,165.0165017,,,,,,,
,,,,,,,,5.014385008,3.4188,space,0.1595,0,38,38,38,1,39,image/39.jpg,0,0,,sppq,2,2024-05-31_02h20.02.520,face trait task chi,2021.2.3,Win32,165.0165017,,,,,,,
,,,,,,,,4.614463118,1.4723,space,0.1156,0,39,39,26,1,27,image/27.jpg,0,0,,sppq,2,2024-05-31_02h20.02.520,face trait task chi,2021.2.3,Win32,165.0165017,,,,,,,
,,,,,,,,5.989194615,1.9196,space,0.4023,0,40,40,48,1,49,image/49.jpg,0,0,,sppq,2,2024-05-31_02h20.02.520,face trait task chi,2021.2.3,Win32,165.0165017,,,,,,,
,,,,,,,,1,2.6568,space,1.0006,0,41,41,51,1,54,image/fill_img.png,1,1,请将滑块完全移动到<左边>，以示您在专心判断。,sppq,2,2024-05-31_02h20.02.520,face trait task chi,2021.2.3,Win32,165.0165017,,,,,,,
,,,,,,,,4.689448472,2.2781,space,0.6635,0,42,42,22,1,23,image/23.jpg,0,0,,sppq,2,2024-05-31_02h20.02.520,face trait task chi,2021.2.3,Win32,165.0165017,,,,,,,
,,,,,,,,3.50634634,3.2237,space,0.2611,0,43,43,8,1,9,image/9.jpg,0,0,,sppq,2,2024-05-31_02h20.02.520,face trait task chi,2021.2.3,Win32,165.0165017,,,,,,,
,,,,,,,,5.056043665,1.7207,space,0.0785,0,44,44,39,1,40,image/40.jpg,0,0,,sppq,2,2024-05-31_02h20.02.520,face trait task chi,2021.2.3,Win32,165.0165017,,,,,,,
,,,,,,,,1.660873387,1.4778,space,0.3054,0,45,45,15,1,16,image/16.jpg,0,0,,sppq,2,2024-05-31_02h20.02.520,face trait task chi,2021.2.3,Win32,165.0165017,,,,,,,
,,,,,,,,2.610688068,3.1453,space,0.299,0,46,46,33,1,34,image/34.jpg,0,0,,sppq,2,2024-05-31_02h20.02.520,face trait task chi,2021.2.3,Win32,165.0165017,,,,,,,
,,,,,,,,1.006834526,2.3959,space,1.0568,0,47,47,50,1,53,image/fill_img.png,1,1,请将滑块完全移动到<左边>，以示您在专心判断。,sppq,2,2024-05-31_02h20.02.520,face trait task chi,2021.2.3,Win32,165.0165017,,,,,,,
,,,,,,,,5.864219025,1.5885,space,0.7103,0,48,48,49,1,50,image/50.jpg,0,0,,sppq,2,2024-05-31_02h20.02.520,face trait task chi,2021.2.3,Win32,165.0165017,,,,,,,
,,,,,,,,5.414306898,2.6852,space,0.212,0,49,49,7,1,8,image/8.jpg,0,0,,sppq,2,2024-05-31_02h20.02.520,face trait task chi,2021.2.3,Win32,165.0165017,,,,,,,
,,,,,,,,2.444053819,1.6143,space,1.1054,0,50,50,44,1,45,image/45.jpg,0,0,,sppq,2,2024-05-31_02h20.02.520,face trait task chi,2021.2.3,Win32,165.0165017,,,,,,,
,,,,,,,,1.869166102,2.456,space,1.4307,0,51,51,9,1,10,image/10.jpg,0,0,,sppq,2,2024-05-31_02h20.02.520,face trait task chi,2021.2.3,Win32,165.0165017,,,,,,,
,,,,,,,,2.394063583,1.8513,space,0.7907,0,52,52,42,1,43,image/43.jpg,0,0,,sppq,2,2024-05-31_02h20.02.520,face trait task chi,2021.2.3,Win32,165.0165017,,,,,,,
,,,,,,,,,,,,,,,,,,,,,,sppq,2,2024-05-31_02h20.02.520,face trait task chi,2021.2.3,Win32,165.0165017,0,1,1,1,1,1,competent.png
,,,,,critical,space,1.3653,5.735077835,2.0956,space,0.3219,0,0,0,20,1,21,image/21.jpg,0,0,,sppq,2,2024-05-31_02h20.02.520,face trait task chi,2021.2.3,Win32,165.0165017,,,,,,,
,,,,,,,,5.068541606,2.1428,space,1.1703,0,1,1,41,1,42,image/42.jpg,0,0,,sppq,2,2024-05-31_02h20.02.520,face trait task chi,2021.2.3,Win32,165.0165017,,,,,,,
,,,,,,,,5.297663268,1.6311,space,0.2143,0,2,2,42,1,43,image/43.jpg,0,0,,sppq,2,2024-05-31_02h20.02.520,face trait task chi,2021.2.3,Win32,165.0165017,,,,,,,
,,,,,,,,5.893380504,1.4957,space,0.965,0,3,3,36,1,37,image/37.jpg,0,0,,sppq,2,2024-05-31_02h20.02.520,face trait task chi,2021.2.3,Win32,165.0165017,,,,,,,
,,,,,,,,1.011000316,4.8534,space,1.4435,0,4,4,51,1,54,image/fill_img.png,1,1,请将滑块完全移动到<左边>，以示您在专心判断。,sppq,2,2024-05-31_02h20.02.520,face trait task chi,2021.2.3,Win32,165.0165017,,,,,,,
,,,,,,,,2.189936658,2.8189,space,1.0731,0,5,5,4,1,5,image/5.jpg,0,0,,sppq,2,2024-05-31_02h20.02.520,face trait task chi,2021.2.3,Win32,165.0165017,,,,,,,
,,,,,,,,6.001692174,2.0592,space,1.0059,0,6,6,8,1,9,image/9.jpg,0,0,,sppq,2,2024-05-31_02h20.02.520,face trait task chi,2021.2.3,Win32,165.0165017,,,,,,,
,,,,,,,,6.001692174,2.409,space,0.6238,0,7,7,40,1,41,image/41.jpg,0,0,,sppq,2,2024-05-31_02h20.02.520,face trait task chi,2021.2.3,Win32,165.0165017,,,,,,,
,,,,,,,,3.593829254,2.5269,space,0.9091,0,8,8,22,1,23,image/23.jpg,0,0,,sppq,2,2024-05-31_02h20.02.520,face trait task chi,2021.2.3,Win32,165.0165017,,,,,,,
,,,,,,,,2.464882957,1.458,space,0.4489,0,9,9,9,1,10,image/10.jpg,0,0,,sppq,2,2024-05-31_02h20.02.520,face trait task chi,2021.2.3,Win32,165.0165017,,,,,,,
,,,,,,,,4.697780432,1.6144,space,0.3646,0,10,10,39,1,40,image/40.jpg,0,0,,sppq,2,2024-05-31_02h20.02.520,face trait task chi,2021.2.3,Win32,165.0165017,,,,,,,
,,,,,,,,5.135195,1.8663,space,0.2235,0,11,11,30,1,31,image/31.jpg,0,0,,sppq,2,2024-05-31_02h20.02.520,face trait task chi,2021.2.3,Win32,165.0165017,,,,,,,
,,,,,,,,6.997331301,2.0228,space,0.3964,0,12,12,52,1,56,image/fill_img.png,1,7,请将滑块完全移动到<右边>，以示您在专心判断。,sppq,2,2024-05-31_02h20.02.520,face trait task chi,2021.2.3,Win32,165.0165017,,,,,,,
,,,,,,,,6.514092096,1.7787,space,0.2317,0,13,13,35,1,36,image/36.jpg,0,0,,sppq,2,2024-05-31_02h20.02.520,face trait task chi,2021.2.3,Win32,165.0165017,,,,,,,
,,,,,,,,1.019332085,2.4568,space,0.5712,0,14,14,50,1,53,image/fill_img.png,1,1,请将滑块完全移动到<左边>，以示您在专心判断。,sppq,2,2024-05-31_02h20.02.520,face trait task chi,2021.2.3,Win32,165.0165017,,,,,,,
,,,,,,,,5.285165709,1.5285,space,1.3761,0,15,15,47,1,48,image/48.jpg,0,0,,sppq,2,2024-05-31_02h20.02.520,face trait task chi,2021.2.3,Win32,165.0165017,,,,,,,
,,,,,,,,2.656512324,2.3054,space,0.172,0,16,16,44,1,45,image/45.jpg,0,0,,sppq,2,2024-05-31_02h20.02.520,face trait task chi,2021.2.3,Win32,165.0165017,,,,,,,
,,,,,,,,2.144112402,1.5897,space,0.3807,0,17,17,21,1,22,image/22.jpg,0,0,,sppq,2,2024-05-31_02h20.02.520,face trait task chi,2021.2.3,Win32,165.0165017,,,,,,,
,,,,,,,,1.869166102,1.4692,space,1.3171,0,18,18,24,1,25,image/25.jpg,0,0,,sppq,2,2024-05-31_02h20.02.520,face trait task chi,2021.2.3,Win32,165.0165017,,,,,,,
,,,,,,,,2.010805232,2.0567,space,1.0667,0,19,19,19,1,20,image/20.jpg,0,0,,sppq,2,2024-05-31_02h20.02.520,face trait task chi,2021.2.3,Win32,165.0165017,,,,,,,
,,,,,,,,4.289526582,1.643,space,0.3654,0,20,20,38,1,39,image/39.jpg,0,0,,sppq,2,2024-05-31_02h20.02.520,face trait task chi,2021.2.3,Win32,165.0165017,,,,,,,
,,,,,,,,2.748161217,1.8988,space,1.0136,0,21,21,16,1,17,image/17.jpg,0,0,,sppq,2,2024-05-31_02h20.02.520,face trait task chi,2021.2.3,Win32,165.0165017,,,,,,,
,,,,,,,,1.319273503,1.8215,space,0.9672,0,22,22,34,1,35,image/35.jpg,0,0,,sppq,2,2024-05-31_02h20.02.520,face trait task chi,2021.2.3,Win32,165.0165017,,,,,,,
,,,,,,,,5.664258079,1.528,space,1.201,0,23,23,25,1,26,image/26.jpg,0,0,,sppq,2,2024-05-31_02h20.02.520,face trait task chi,2021.2.3,Win32,165.0165017,,,,,,,
,,,,,,,,5.668424441,3.848,space,0.704,0,24,24,32,1,33,image/33.jpg,0,0,,sppq,2,2024-05-31_02h20.02.520,face trait task chi,2021.2.3,Win32,165.0165017,,,,,,,
,,,,,,,,2.856473269,1.4102,space,0.6664,0,25,25,46,1,47,image/47.jpg,0,0,,sppq,2,2024-05-31_02h20.02.520,face trait task chi,2021.2.3,Win32,165.0165017,,,,,,,
,,,,,,,,1.923322319,1.461,space,0.8077,0,26,26,1,1,2,image/2.jpg,0,0,,sppq,2,2024-05-31_02h20.02.520,face trait task chi,2021.2.3,Win32,165.0165017,,,,,,,
,,,,,,,,4.981058311,1.6714,space,0.6306,0,27,27,5,1,6,image/6.jpg,0,0,,sppq,2,2024-05-31_02h20.02.520,face trait task chi,2021.2.3,Win32,165.0165017,,,,,,,
,,,,,,,,2.110785705,1.2249,space,0.8088,0,28,28,11,1,12,image/12.jpg,0,0,,sppq,2,2024-05-31_02h20.02.520,face trait task chi,2021.2.3,Win32,165.0165017,,,,,,,
,,,,,,,,1.698366065,1.6588,space,0.9209,0,29,29,48,1,49,image/49.jpg,0,0,,sppq,2,2024-05-31_02h20.02.520,face trait task chi,2021.2.3,Win32,165.0165017,,,,,,,
,,,,,,,,1.698366065,1.8153,space,0.7282,0,30,30,2,1,3,image/3.jpg,0,0,,sppq,2,2024-05-31_02h20.02.520,face trait task chi,2021.2.3,Win32,165.0165017,,,,,,,
,,,,,,,,2.556531851,3.1998,space,1.7569,0,31,31,14,1,15,image/15.jpg,0,0,,sppq,2,2024-05-31_02h20.02.520,face trait task chi,2021.2.3,Win32,165.0165017,,,,,,,
,,,,,,,,2.556531851,5.255,space,0.8614,0,32,32,18,1,19,image/19.jpg,0,0,,sppq,2,2024-05-31_02h20.02.520,face trait task chi,2021.2.3,Win32,165.0165017,,,,,,,
,,,,,,,,2.727331698,5.3761,space,0.9087,0,33,33,15,1,16,image/16.jpg,0,0,,sppq,2,2024-05-31_02h20.02.520,face trait task chi,2021.2.3,Win32,165.0165017,,,,,,,
,,,,,,,,3.339712092,5.2461,space,0.217,0,34,34,13,1,14,image/14.jpg,0,0,,sppq,2,2024-05-31_02h20.02.520,face trait task chi,2021.2.3,Win32,165.0165017,,,,,,,
,,,,,,,,5.914209261,1.3356,space,0.1427,0,35,35,26,1,27,image/27.jpg,0,0,,sppq,2,2024-05-31_02h20.02.520,face trait task chi,2021.2.3,Win32,165.0165017,,,,,,,
,,,,,,,,2.993946419,1.6002,space,0.2129,0,36,36,23,1,24,image/24.jpg,0,0,,sppq,2,2024-05-31_02h20.02.520,face trait task chi,2021.2.3,Win32,165.0165017,,,,,,,
,,,,,,,,2.527370753,1.9343,space,0.171,0,37,37,3,1,4,image/4.jpg,0,0,,sppq,2,2024-05-31_02h20.02.520,face trait task chi,2021.2.3,Win32,165.0165017,,,,,,,
,,,,,,,,5.193517196,3.1812,space,1.9647,0,38,38,28,1,29,image/29.jpg,0,0,,sppq,2,2024-05-31_02h20.02.520,face trait task chi,2021.2.3,Win32,165.0165017,,,,,,,
,,,,,,,,2.752326816,1.5007,space,0.2737,0,39,39,33,1,34,image/34.jpg,0,0,,sppq,2,2024-05-31_02h20.02.520,face trait task chi,2021.2.3,Win32,165.0165017,,,,,,,
,,,,,,,,2.598190508,1.5432,space,0.4139,0,40,40,7,1,8,image/8.jpg,0,0,,sppq,2,2024-05-31_02h20.02.520,face trait task chi,2021.2.3,Win32,165.0165017,,,,,,,
,,,,,,,,5.626765402,3.1768,space,0.122,0,41,41,17,1,18,image/18.jpg,0,0,,sppq,2,2024-05-31_02h20.02.520,face trait task chi,2021.2.3,Win32,165.0165017,,,,,,,
,,,,,,,,6.301633592,1.2331,space,0.105,0,42,42,12,1,13,image/13.jpg,0,0,,sppq,2,2024-05-31_02h20.02.520,face trait task chi,2021.2.3,Win32,165.0165017,,,,,,,
,,,,,,,,4.435331692,1.425,space,0.2611,0,43,43,0,1,1,image/1.jpg,0,0,,sppq,2,2024-05-31_02h20.02.520,face trait task chi,2021.2.3,Win32,165.0165017,,,,,,,
,,,,,,,,5.472629095,1.2226,space,0.1464,0,44,44,27,1,28,image/28.jpg,0,0,,sppq,2,2024-05-31_02h20.02.520,face trait task chi,2021.2.3,Win32,165.0165017,,,,,,,
,,,,,,,,4.964394772,1.5522,space,0.2175,0,45,45,31,1,32,image/32.jpg,0,0,,sppq,2,2024-05-31_02h20.02.520,face trait task chi,2021.2.3,Win32,165.0165017,,,,,,,
,,,,,,,,5.564277607,1.3556,space,0.2722,0,46,46,29,1,30,image/30.jpg,0,0,,sppq,2,2024-05-31_02h20.02.520,face trait task chi,2021.2.3,Win32,165.0165017,,,,,,,
,,,,,,,,5.106034283,3.0298,space,0.187,0,47,47,45,1,46,image/46.jpg,0,0,,sppq,2,2024-05-31_02h20.02.520,face trait task chi,2021.2.3,Win32,165.0165017,,,,,,,
,,,,,,,,5.376814221,2.0783,space,0.5813,0,48,48,37,1,38,image/38.jpg,0,0,,sppq,2,2024-05-31_02h20.02.520,face trait task chi,2021.2.3,Win32,165.0165017,,,,,,,
,,,,,,,,5.014385008,2.0713,space,0.3034,0,49,49,6,1,7,image/7.jpg,0,0,,sppq,2,2024-05-31_02h20.02.520,face trait task chi,2021.2.3,Win32,165.0165017,,,,,,,
,,,,,,,,4.58113642,1.5098,space,0.2749,0,50,50,10,1,11,image/11.jpg,0,0,,sppq,2,2024-05-31_02h20.02.520,face trait task chi,2021.2.3,Win32,165.0165017,,,,,,,
,,,,,,,,2.860639249,1.9365,space,0.3147,0,51,51,49,1,50,image/50.jpg,0,0,,sppq,2,2024-05-31_02h20.02.520,face trait task chi,2021.2.3,Win32,165.0165017,,,,,,,
,,,,,,,,2.914795084,2.0799,space,0.3638,0,52,52,43,1,44,image/44.jpg,0,0,,sppq,2,2024-05-31_02h20.02.520,face trait task chi,2021.2.3,Win32,165.0165017,,,,,,,
,,,,,,,,,,,,,,,,,,,,,,sppq,2,2024-05-31_02h20.02.520,face trait task chi,2021.2.3,Win32,165.0165017,0,2,2,0,1,0,critical.png
,,,,,friendly,space,1.7988,3.685478148,2.6727,space,0.2428,0,0,0,6,1,7,image/7.jpg,0,0,,sppq,2,2024-05-31_02h20.02.520,face trait task chi,2021.2.3,Win32,165.0165017,,,,,,,
,,,,,,,,5.239341071,1.4547,space,0.3814,0,1,1,33,1,34,image/34.jpg,0,0,,sppq,2,2024-05-31_02h20.02.520,face trait task chi,2021.2.3,Win32,165.0165017,,,,,,,
,,,,,,,,2.648180745,1.3883,space,0.1397,0,2,2,10,1,11,image/11.jpg,0,0,,sppq,2,2024-05-31_02h20.02.520,face trait task chi,2021.2.3,Win32,165.0165017,,,,,,,
,,,,,,,,2.71066854,2.9625,space,0.4185,0,3,3,14,1,15,image/15.jpg,0,0,,sppq,2,2024-05-31_02h20.02.520,face trait task chi,2021.2.3,Win32,165.0165017,,,,,,,
,,,,,,,,2.006639252,1.4737,space,0.3715,0,4,4,27,1,28,image/28.jpg,0,0,,sppq,2,2024-05-31_02h20.02.520,face trait task chi,2021.2.3,Win32,165.0165017,,,,,,,
,,,,,,,,1.981644134,1.5274,space,0.2087,0,5,5,18,1,19,image/19.jpg,0,0,,sppq,2,2024-05-31_02h20.02.520,face trait task chi,2021.2.3,Win32,165.0165017,,,,,,,
,,,,,,,,5.710082717,2.0163,space,0.2909,0,6,6,3,1,4,image/4.jpg,0,0,,sppq,2,2024-05-31_02h20.02.520,face trait task chi,2021.2.3,Win32,165.0165017,,,,,,,
,,,,,,,,2.70233658,1.2703,space,0.2001,0,7,7,1,1,2,image/2.jpg,0,0,,sppq,2,2024-05-31_02h20.02.520,face trait task chi,2021.2.3,Win32,165.0165017,,,,,,,
,,,,,,,,2.789819493,1.6609,space,0.2911,0,8,8,29,1,30,image/30.jpg,0,0,,sppq,2,2024-05-31_02h20.02.520,face trait task chi,2021.2.3,Win32,165.0165017,,,,,,,
,,,,,,,,2.494044056,1.2892,space,0.2744,0,9,9,36,1,37,image/37.jpg,0,0,,sppq,2,2024-05-31_02h20.02.520,face trait task chi,2021.2.3,Win32,165.0165017,,,,,,,
,,,,,,,,3.235566021,2.3583,space,1.1355,0,10,10,22,1,23,image/23.jpg,0,0,,sppq,2,2024-05-31_02h20.02.520,face trait task chi,2021.2.3,Win32,165.0165017,,,,,,,
,,,,,,,,6.839028632,1.5869,space,0.2428,0,11,11,2,1,3,image/3.jpg,0,0,,sppq,2,2024-05-31_02h20.02.520,face trait task chi,2021.2.3,Win32,165.0165017,,,,,,,
,,,,,,,,5.276833748,1.4241,space,1.0423,0,12,12,20,1,21,image/21.jpg,0,0,,sppq,2,2024-05-31_02h20.02.520,face trait task chi,2021.2.3,Win32,165.0165017,,,,,,,
,,,,,,,,4.168716971,2.7996,space,1.0245,0,13,13,17,1,18,image/18.jpg,0,0,,sppq,2,2024-05-31_02h20.02.520,face trait task chi,2021.2.3,Win32,165.0165017,,,,,,,
,,,,,,,,3.37720477,1.4179,space,1.1279,0,14,14,38,1,39,image/39.jpg,0,0,,sppq,2,2024-05-31_02h20.02.520,face trait task chi,2021.2.3,Win32,165.0165017,,,,,,,
,,,,,,,,3.027273116,2.1484,space,0.271,0,15,15,19,1,20,image/20.jpg,0,0,,sppq,2,2024-05-31_02h20.02.520,face trait task chi,2021.2.3,Win32,165.0165017,,,,,,,
,,,,,,,,4.081234058,4.4969,space,1.3306,0,16,16,37,1,38,image/38.jpg,0,0,,sppq,2,2024-05-31_02h20.02.520,face trait task chi,2021.2.3,Win32,165.0165017,,,,,,,
,,,,,,,,4.589467999,1.6148,space,0.2752,0,17,17,46,1,47,image/47.jpg,0,0,,sppq,2,2024-05-31_02h20.02.520,face trait task chi,2021.2.3,Win32,165.0165017,,,,,,,
,,,,,,,,2.156609961,3.2717,space,0.2244,0,18,18,28,1,29,image/29.jpg,0,0,,sppq,2,2024-05-31_02h20.02.520,face trait task chi,2021.2.3,Win32,165.0165017,,,,,,,
,,,,,,,,1.648375828,1.2623,space,0.2855,0,19,19,13,1,14,image/14.jpg,0,0,,sppq,2,2024-05-31_02h20.02.520,face trait task chi,2021.2.3,Win32,165.0165017,,,,,,,
,,,,,,,,1.390092877,1.323,space,0.2188,0,20,20,16,1,17,image/17.jpg,0,0,,sppq,2,2024-05-31_02h20.02.520,face trait task chi,2021.2.3,Win32,165.0165017,,,,,,,
,,,,,,,,1,2.3948,space,1.4387,0,21,21,51,1,54,image/fill_img.png,1,1,请将滑块完全移动到<左边>，以示您在专心判断。,sppq,2,2024-05-31_02h20.02.520,face trait task chi,2021.2.3,Win32,165.0165017,,,,,,,
,,,,,,,,2.135780823,4.6018,space,2.6316,0,22,22,41,1,42,image/42.jpg,0,0,,sppq,2,2024-05-31_02h20.02.520,face trait task chi,2021.2.3,Win32,165.0165017,,,,,,,
,,,,,,,,1.823341655,1.277,space,0.3098,0,23,23,21,1,22,image/22.jpg,0,0,,sppq,2,2024-05-31_02h20.02.520,face trait task chi,2021.2.3,Win32,165.0165017,,,,,,,
,,,,,,,,1.848336774,3.3536,space,0.3279,0,24,24,8,1,9,image/9.jpg,0,0,,sppq,2,2024-05-31_02h20.02.520,face trait task chi,2021.2.3,Win32,165.0165017,,,,,,,
,,,,,,,,2.881468387,3.0172,space,0.3423,0,25,25,7,1,8,image/8.jpg,0,0,,sppq,2,2024-05-31_02h20.02.520,face trait task chi,2021.2.3,Win32,165.0165017,,,,,,,
,,,,,,,,5.368483023,1.5929,space,0.7229,0,26,26,48,1,49,image/49.jpg,0,0,,sppq,2,2024-05-31_02h20.02.520,face trait task chi,2021.2.3,Win32,165.0165017,,,,,,,
,,,,,,,,5.868385386,1.3993,space,0.4004,0,27,27,49,1,50,image/50.jpg,0,0,,sppq,2,2024-05-31_02h20.02.520,face trait task chi,2021.2.3,Win32,165.0165017,,,,,,,
,,,,,,,,2.398229563,1.4668,space,0.2577,0,28,28,23,1,24,image/24.jpg,0,0,,sppq,2,2024-05-31_02h20.02.520,face trait task chi,2021.2.3,Win32,165.0165017,,,,,,,
,,,,,,,,1.902492799,1.6733,space,0.2359,0,29,29,31,1,32,image/32.jpg,0,0,,sppq,2,2024-05-31_02h20.02.520,face trait task chi,2021.2.3,Win32,165.0165017,,,,,,,
,,,,,,,,2.539868312,1.4611,space,0.2424,0,30,30,40,1,41,image/41.jpg,0,0,,sppq,2,2024-05-31_02h20.02.520,face trait task chi,2021.2.3,Win32,165.0165017,,,,,,,
,,,,,,,,2.993946419,2.7378,space,0.292,0,31,31,5,1,6,image/6.jpg,0,0,,sppq,2,2024-05-31_02h20.02.520,face trait task chi,2021.2.3,Win32,165.0165017,,,,,,,
,,,,,,,,2.56486343,1.3266,space,0.2686,0,32,32,25,1,26,image/26.jpg,0,0,,sppq,2,2024-05-31_02h20.02.520,face trait task chi,2021.2.3,Win32,165.0165017,,,,,,,
,,,,,,,,2.43155626,1.9629,space,0.3517,0,33,33,32,1,33,image/33.jpg,0,0,,sppq,2,2024-05-31_02h20.02.520,face trait task chi,2021.2.3,Win32,165.0165017,,,,,,,
,,,,,,,,2.039965949,1.6212,space,0.2723,0,34,34,30,1,31,image/31.jpg,0,0,,sppq,2,2024-05-31_02h20.02.520,face trait task chi,2021.2.3,Win32,165.0165017,,,,,,,
,,,,,,,,5.110199882,4.1571,space,1.8816,0,35,35,0,1,1,image/1.jpg,0,0,,sppq,2,2024-05-31_02h20.02.520,face trait task chi,2021.2.3,Win32,165.0165017,,,,,,,
,,,,,,,,3.660483029,1.9004,space,0.2627,0,36,36,47,1,48,image/48.jpg,0,0,,sppq,2,2024-05-31_02h20.02.520,face trait task chi,2021.2.3,Win32,165.0165017,,,,,,,
,,,,,,,,5.697585158,1.6295,space,0.2605,0,37,37,43,1,44,image/44.jpg,0,0,,sppq,2,2024-05-31_02h20.02.520,face trait task chi,2021.2.3,Win32,165.0165017,,,,,,,
,,,,,,,,2.96478532,4.3486,space,2.1444,0,38,38,35,1,36,image/36.jpg,0,0,,sppq,2,2024-05-31_02h20.02.520,face trait task chi,2021.2.3,Win32,165.0165017,,,,,,,
,,,,,,,,2.84814169,2.4108,space,0.9583,0,39,39,39,1,40,image/40.jpg,0,0,,sppq,2,2024-05-31_02h20.02.520,face trait task chi,2021.2.3,Win32,165.0165017,,,,,,,
,,,,,,,,1.969146575,1.7161,space,0.2918,0,40,40,9,1,10,image/10.jpg,0,0,,sppq,2,2024-05-31_02h20.02.520,face trait task chi,2021.2.3,Win32,165.0165017,,,,,,,
,,,,,,,,1,2.3519,space,1.1385,0,41,41,50,1,53,image/fill_img.png,1,1,请将滑块完全移动到<左边>，以示您在专心判断。,sppq,2,2024-05-31_02h20.02.520,face trait task chi,2021.2.3,Win32,165.0165017,,,,,,,
,,,,,,,,1.390092877,1.6117,space,0.1978,0,42,42,45,1,46,image/46.jpg,0,0,,sppq,2,2024-05-31_02h20.02.520,face trait task chi,2021.2.3,Win32,165.0165017,,,,,,,
,,,,,,,,7,2.8924,space,1.1575,0,43,43,52,1,56,image/fill_img.png,1,7,请将滑块完全移动到<右边>，以示您在专心判断。,sppq,2,2024-05-31_02h20.02.520,face trait task chi,2021.2.3,Win32,165.0165017,,,,,,,
,,,,,,,,3.373039171,1.9707,space,0.6319,0,44,44,15,1,16,image/16.jpg,0,0,,sppq,2,2024-05-31_02h20.02.520,face trait task chi,2021.2.3,Win32,165.0165017,,,,,,,
,,,,,,,,2.135780823,1.3806,space,0.7795,0,45,45,24,1,25,image/25.jpg,0,0,,sppq,2,2024-05-31_02h20.02.520,face trait task chi,2021.2.3,Win32,165.0165017,,,,,,,
,,,,,,,,6.905682789,1.494,space,0.7411,0,46,46,34,1,35,image/35.jpg,0,0,,sppq,2,2024-05-31_02h20.02.520,face trait task chi,2021.2.3,Win32,165.0165017,,,,,,,
,,,,,,,,6.21831704,1.5156,space,0.2074,0,47,47,11,1,12,image/12.jpg,0,0,,sppq,2,2024-05-31_02h20.02.520,face trait task chi,2021.2.3,Win32,165.0165017,,,,,,,
,,,,,,,,2.681507442,1.5411,space,0.1759,0,48,48,44,1,45,image/45.jpg,0,0,,sppq,2,2024-05-31_02h20.02.520,face trait task chi,2021.2.3,Win32,165.0165017,,,,,,,
,,,,,,,,2.181605079,1.6178,space,0.2983,0,49,49,26,1,27,image/27.jpg,0,0,,sppq,2,2024-05-31_02h20.02.520,face trait task chi,2021.2.3,Win32,165.0165017,,,,,,,
,,,,,,,,5.52678493,1.8851,space,0.5504,0,50,50,4,1,5,image/5.jpg,0,0,,sppq,2,2024-05-31_02h20.02.520,face trait task chi,2021.2.3,Win32,165.0165017,,,,,,,
,,,,,,,,2.385732004,1.5614,space,0.5098,0,51,51,42,1,43,image/43.jpg,0,0,,sppq,2,2024-05-31_02h20.02.520,face trait task chi,2021.2.3,Win32,165.0165017,,,,,,,
,,,,,,,,1.919156338,4.5582,space,0.2923,0,52,52,12,1,13,image/13.jpg,0,0,,sppq,2,2024-05-31_02h20.02.520,face trait task chi,2021.2.3,Win32,165.0165017,,,,,,,
,,,,,,,,,,,,,,,,,,,,,,sppq,2,2024-05-31_02h20.02.520,face trait task chi,2021.2.3,Win32,165.0165017,0,3,3,3,1,3,friendly.png