﻿chooserow,ParID,pre_instru_resp_2.keys,pre_instru_resp_2.rt,pre_instru_resp_3.keys,pre_instru_resp_3.rt,pre_instru_resp_9.keys,pre_instru_resp_9.rt,pre_instru_resp_8.keys,pre_instru_resp_8.rt,pre_instru_resp_4.keys,pre_instru_resp_4.rt,pre_instru_resp_5.keys,pre_instru_resp_5.rt,pre_instru_resp_6.keys,pre_instru_resp_6.rt,key_resp_3.keys,key_resp_3.rt,key_resp_4.keys,key_resp_4.rt,key_resp_5.keys,key_resp_5.rt,key_resp_6.keys,key_resp_6.rt,key_resp_7.keys,key_resp_7.rt,trials_2.thisRepN,trials_2.thisTrialN,trials_2.thisN,trials_2.thisIndex,trials_2.ran,participant,session,date,expName,psychopyVersion,OS,frameRate,pre_instru_resp.keys,pre_instru_resp.rt,clicked,judge_2.x,judge_2.y,judge_2.leftButton,judge_2.midButton,judge_2.rightButton,judge_2.clicked_name,trials.thisRepN,trials.thisTrialN,trials.thisN,trials.thisIndex,trials.ran,prac_answer,prac_dot_sti,dotlefttext,dotrighttext,prac_acc,judge.x,judge.y,judge.leftButton,judge.midButton,judge.rightButton,judge.clicked_name,clicked_guilt,slider_guilt.response,slider_guilt.rt,key_guilt.keys,share_slider.response,share_slider.rt,key_share.keys,slider_apology.response,slider_apology.rt,key_apology.keys,slider_hide.response,slider_hide.rt,slider_forgiveness.response,slider_forgiveness.rt,key_forgiveness.keys,key_forgiveness.rt,slider_mad.response,slider_mad.rt,trialseq.thisRepN,trialseq.thisTrialN,trialseq.thisN,trialseq.thisIndex,trialseq.ran,type_trial,stipic,DV,picture,answer,number,key_guilt.rt,key_apology.rt,key_share.rt,slider_friendly.response,slider_friendly.rt,slider_trustworthy.response,slider_trustworthy.rt,slider_competence.response,slider_competence.rt,slider_critical.response,slider_critical.rt,key_resp.keys,key_resp.rt
"[135,89,155,73,137,186,65,98,141,10,44,81,129,54,87,127,23,149,160,199,166,29,64,99,153,62,113,50,56,184,174,180,170,111,131,179,107,118,163,74,197,85]",一 一,space,1.6418,space,4.4682,space,25.2682,space,28.5032,space,37.3607,space,6.7481,space,2.7045,3,4.6308,1,4.5821,3,4.2873,2,5.6355,2,4.4015,0,0,0,0,1,一 一,1,2024-05-31_00h54.48.586,interaction task chi,2021.2.3,Win32,59.88023952,,,,,,,,,,,,,,,,,,,,,,,,,,,,,,,,,,,,,,,,,,,,,,,,,,,,,,,,,,,,,,,,,,,
,,,,,,,,,,,,,,,,,,,,,,,,,,,,,,,一 一,1,2024-05-31_00h54.48.586,interaction task chi,2021.2.3,Win32,59.88023952,space,4.2091,"[""LeftButton_2""]",-0.301041651,-0.355555556,1,0,0,LeftButton_2,0,0,0,0,1,RightButton_2,11dot1.png,小于,大于,,,,,,,,,,,,,,,,,,,,,,,,,,,,,,,,,,,,,,,,,,,,,,,,,
,,,,,,,,,,,,,,,,,,,,,,,,,,,,,,,一 一,1,2024-05-31_00h54.48.586,interaction task chi,2021.2.3,Win32,59.88023952,,,"[""LeftButton_2""]",-0.278125,-0.294444444,1,0,0,LeftButton_2,0,1,1,2,1,LeftButton_2,9dot1.png,小于,大于,,,,,,,,,,,,,,,,,,,,,,,,,,,,,,,,,,,,,,,,,,,,,,,,,
,,,,,,,,,,,,,,,,,,,,,,,,,,,,,,,一 一,1,2024-05-31_00h54.48.586,interaction task chi,2021.2.3,Win32,59.88023952,,,"[""LeftButton_2""]",-0.280208302,-0.298148176,1,0,0,LeftButton_2,0,2,2,1,1,RightButton_2,11dot1.png,小于,大于,,,,,,,,,,,,,,,,,,,,,,,,,,,,,,,,,,,,,,,,,,,,,,,,,
,,,,,,,,,,,,,,,,,,,,,,,,,,,,,,,一 一,1,2024-05-31_00h54.48.586,interaction task chi,2021.2.3,Win32,59.88023952,,,,,,,,,,,,,,,,,大于,小于,0.2,-0.2875,-0.496296353,1,0,0,LeftButton,"[""LeftButton""]",,,,,,,,,,,,30.11363636,3.7313,space,1.9319,19.06565657,6.6573,0,0,0,0,1,2,only_sub_right.png,3,RandomDot26.png,No answer,20,,,,,,,,,,,,,
,,,,,,,,,,,,,,,,,,,,,,,,,,,,,,,一 一,1,2024-05-31_00h54.48.586,interaction task chi,2021.2.3,Win32,59.88023952,,,,,,,,,,,,,,,,,大于,小于,,0.257291698,-0.490740797,1,0,0,RightButton,"[""RightButton""]",,,,,,,,,,,,64.62542409,4.4957,space,0.804,33.58585859,6.5077,0,1,1,1,1,1,both_wrong.png,3,RandomDot6.png,No answer,21,,,,,,,,,,,,,
,,,,,,,,,,,,,,,,,,,,,,,,,,,,,,,一 一,1,2024-05-31_00h54.48.586,interaction task chi,2021.2.3,Win32,59.88023952,,,,,,,,,,,,,,,,,小于,大于,,0.291666698,-0.516666667,1,0,0,RightButton,"[""RightButton""]",69,7.4454,space,,,,,,,,,,,,,,,0,2,2,2,1,3,only_sub_wrong.png,0,RandomDot2.png,No answer,20,4.0458,,,,,,,,,,,,
,,,,,,,,,,,,,,,,,,,,,,,,,,,,,,,一 一,1,2024-05-31_00h54.48.586,interaction task chi,2021.2.3,Win32,59.88023952,,,,,,,,,,,,,,,,,大于,小于,,-0.272916651,-0.527777778,1,0,0,LeftButton,"[""LeftButton""]",,,,,,,38,3.6664,space,62,8.1424,,,,,,,0,3,3,3,1,1,both_wrong.png,2,RandomDot24.png,No answer,19,,1.5452,,,,,,,,,,,
,,,,,,,,,,,,,,,,,,,,,,,,,,,,,,,一 一,1,2024-05-31_00h54.48.586,interaction task chi,2021.2.3,Win32,59.88023952,,,,,,,,,,,,,,,,,大于,小于,,0.265625,-0.511111111,1,0,0,RightButton,"[""RightButton""]",,,,,,,,,,,,62.20539363,3.8278,space,0.6232,29.16666667,5.362,0,4,4,4,1,2,only_sub_right.png,3,RandomDot23.png,No answer,20,,,,,,,,,,,,,
,,,,,,,,,,,,,,,,,,,,,,,,,,,,,,,一 一,1,2024-05-31_00h54.48.586,interaction task chi,2021.2.3,Win32,59.88023952,,,,,,,,,,,,,,,,,小于,大于,,0.319791698,-0.505555556,1,0,0,RightButton,"[""RightButton""]",,,,,,,,,,,,33.05976752,2.1504,space,0.337,63.78367646,4.9795,0,5,5,5,1,3,only_sub_wrong.png,3,RandomDot9.png,No answer,19,,,,,,,,,,,,,
,,,,,,,,,,,,,,,,,,,,,,,,,,,,,,,一 一,1,2024-05-31_00h54.48.586,interaction task chi,2021.2.3,Win32,59.88023952,,,,,,,,,,,,,,,,,大于,小于,,0.292708397,-0.461111111,1,0,0,RightButton,"[""RightButton""]",,,,3.151041985,10.1395,space,,,,,,,,,,,,0,6,6,6,1,1,both_wrong.png,1,RandomDot26.png,No answer,21,,,1.0716,,,,,,,,,,
,,,,,,,,,,,,,,,,,,,,,,,,,,,,,,,一 一,1,2024-05-31_00h54.48.586,interaction task chi,2021.2.3,Win32,59.88023952,,,,,,,,,,,,,,,,,大于,小于,,0.340625,-0.5,1,0,0,RightButton,"[""RightButton""]",23,1.8974,space,,,,,,,,,,,,,,,0,7,7,7,1,2,only_sub_right.png,0,RandomDot16.png,No answer,20,0.4645,,,,,,,,,,,,
,,,,,,,,,,,,,,,,,,,,,,,,,,,,,,,一 一,1,2024-05-31_00h54.48.586,interaction task chi,2021.2.3,Win32,59.88023952,,,,,,,,,,,,,,,,,小于,大于,,-0.26875,-0.45,1,0,0,LeftButton,"[""LeftButton""]",,,,,,,,,,,,74.09512106,3.0546,space,0.4163,32.74411096,3.9564,0,8,8,8,1,2,only_sub_right.png,3,RandomDot7.png,No answer,20,,,,,,,,,,,,,
,,,,,,,,,,,,,,,,,,,,,,,,,,,,,,,一 一,1,2024-05-31_00h54.48.586,interaction task chi,2021.2.3,Win32,59.88023952,,,,,,,,,,,,,,,,,小于,大于,,-0.345833302,-0.501851908,1,0,0,LeftButton,"[""LeftButton""]",,,,,,,,,,,,,,,,,,0,9,9,9,1,0,both_right.png,0,RandomDot19.png,No answer,21,,,,,,,,,,,,,
,,,,,,,,,,,,,,,,,,,,,,,,,,,,,,,一 一,1,2024-05-31_00h54.48.586,interaction task chi,2021.2.3,Win32,59.88023952,,,,,,,,,,,,,,,,,小于,大于,,-0.332291651,-0.488888889,1,0,0,LeftButton,"[""LeftButton""]",,,,,,,,,,,,,,,,,,0,10,10,10,1,0,both_right.png,3,RandomDot26.png,No answer,20,,,,,,,,,,,,,
,,,,,,,,,,,,,,,,,,,,,,,,,,,,,,,一 一,1,2024-05-31_00h54.48.586,interaction task chi,2021.2.3,Win32,59.88023952,,,,,,,,,,,,,,,,,小于,大于,,-0.332291651,-0.488888889,1,0,0,LeftButton,"[""LeftButton""]",,,,,,,35,3.3068,space,61,4.3216,,,,,,,0,11,11,11,1,1,both_wrong.png,2,RandomDot21.png,No answer,20,,0.5369,,,,,,,,,,,
,,,,,,,,,,,,,,,,,,,,,,,,,,,,,,,一 一,1,2024-05-31_00h54.48.586,interaction task chi,2021.2.3,Win32,59.88023952,,,,,,,,,,,,,,,,,小于,大于,,-0.253125,-0.481481595,1,0,0,LeftButton,"[""LeftButton""]",,,,,,,15,2.1844,space,50,5.9816,,,,,,,0,12,12,12,1,2,only_sub_right.png,2,RandomDot37.png,No answer,19,,0.6688,,,,,,,,,,,
,,,,,,,,,,,,,,,,,,,,,,,,,,,,,,,一 一,1,2024-05-31_00h54.48.586,interaction task chi,2021.2.3,Win32,59.88023952,,,,,,,,,,,,,,,,,小于,大于,,-0.308333302,-0.509259372,1,0,0,LeftButton,"[""LeftButton""]",54,1.9555,space,,,,,,,,,,,,,,,0,13,13,13,1,1,both_wrong.png,0,RandomDot23.png,No answer,20,0.5117,,,,,,,,,,,,
,,,,,,,,,,,,,,,,,,,,,,,,,,,,,,,一 一,1,2024-05-31_00h54.48.586,interaction task chi,2021.2.3,Win32,59.88023952,,,,,,,,,,,,,,,,,大于,小于,,0.232291698,-0.505555556,1,0,0,RightButton,"[""RightButton""]",,,,,,,,,,,,36.74242424,3.1855,space,0.4338,60.6271108,4.4529,0,14,14,14,1,1,both_wrong.png,3,RandomDot17.png,No answer,21,,,,,,,,,,,,,
,,,,,,,,,,,,,,,,,,,,,,,,,,,,,,,一 一,1,2024-05-31_00h54.48.586,interaction task chi,2021.2.3,Win32,59.88023952,,,,,,,,,,,,,,,,,小于,大于,,-0.315625,-0.524074131,1,0,0,LeftButton,"[""LeftButton""]",,,,,,,31,1.7388,space,41,4.2233,,,,,,,0,15,15,15,1,2,only_sub_right.png,2,RandomDot22.png,No answer,19,,0.3465,,,,,,,,,,,
,,,,,,,,,,,,,,,,,,,,,,,,,,,,,,,一 一,1,2024-05-31_00h54.48.586,interaction task chi,2021.2.3,Win32,59.88023952,,,,,,,,,,,,,,,,,小于,大于,,-0.364583302,-0.531481595,1,0,0,LeftButton,"[""LeftButton""]",,,,,,,,,,,,,,,,,,0,16,16,16,1,0,both_right.png,1,RandomDot3.png,No answer,19,,,,,,,,,,,,,
,,,,,,,,,,,,,,,,,,,,,,,,,,,,,,,一 一,1,2024-05-31_00h54.48.586,interaction task chi,2021.2.3,Win32,59.88023952,,,,,,,,,,,,,,,,,大于,小于,,0.235416698,-0.475926039,1,0,0,RightButton,"[""RightButton""]",67,1.4053,space,,,,,,,,,,,,,,,0,17,17,17,1,3,only_sub_wrong.png,0,RandomDot24.png,No answer,20,0.3754,,,,,,,,,,,,
,,,,,,,,,,,,,,,,,,,,,,,,,,,,,,,一 一,1,2024-05-31_00h54.48.586,interaction task chi,2021.2.3,Win32,59.88023952,,,,,,,,,,,,,,,,,大于,小于,,0.25,-0.511111111,1,0,0,RightButton,"[""RightButton""]",,,,3.1875,3.3929,space,,,,,,,,,,,,0,18,18,18,1,3,only_sub_wrong.png,1,RandomDot22.png,No answer,19,,,0.9294,,,,,,,,,,
,,,,,,,,,,,,,,,,,,,,,,,,,,,,,,,一 一,1,2024-05-31_00h54.48.586,interaction task chi,2021.2.3,Win32,59.88023952,,,,,,,,,,,,,,,,,大于,小于,,0.297916698,-0.540740797,1,0,0,RightButton,"[""RightButton""]",,,,,,,,,,,,,,,,,,0,19,19,19,1,5,both_right.png,10,RandomDot42.png,RightButton,19,,,,,,,,,,,,,
,,,,,,,,,,,,,,,,,,,,,,,,,,,,,,,一 一,1,2024-05-31_00h54.48.586,interaction task chi,2021.2.3,Win32,59.88023952,,,,,,,,,,,,,,,,,小于,大于,,0.357291698,-0.474074131,1,0,0,RightButton,"[""RightButton""]",,,,3.515625,2.3206,space,,,,,,,,,,,,0,20,20,20,1,3,only_sub_wrong.png,1,RandomDot15.png,No answer,20,,,2.1176,,,,,,,,,,
,,,,,,,,,,,,,,,,,,,,,,,,,,,,,,,一 一,1,2024-05-31_00h54.48.586,interaction task chi,2021.2.3,Win32,59.88023952,,,,,,,,,,,,,,,,,大于,小于,,-0.26875,-0.535185242,1,0,0,LeftButton,"[""LeftButton""]",,,,,,,,,,,,,,,,,,0,21,21,21,1,0,both_right.png,2,RandomDot10.png,No answer,20,,,,,,,,,,,,,
,,,,,,,,,,,,,,,,,,,,,,,,,,,,,,,一 一,1,2024-05-31_00h54.48.586,interaction task chi,2021.2.3,Win32,59.88023952,,,,,,,,,,,,,,,,,大于,小于,,-0.277083302,-0.529629686,1,0,0,LeftButton,"[""LeftButton""]",,,,3.510416985,1.5576,space,,,,,,,,,,,,0,22,22,22,1,1,both_wrong.png,1,RandomDot6.png,No answer,20,,,0.669,,,,,,,,,,
,,,,,,,,,,,,,,,,,,,,,,,,,,,,,,,一 一,1,2024-05-31_00h54.48.586,interaction task chi,2021.2.3,Win32,59.88023952,,,,,,,,,,,,,,,,,大于,小于,,-0.230208302,-0.498148261,1,0,0,LeftButton,"[""LeftButton""]",24,1.6709,space,,,,,,,,,,,,,,,0,23,23,23,1,2,only_sub_right.png,0,RandomDot21.png,No answer,19,0.4036,,,,,,,,,,,,
,,,,,,,,,,,,,,,,,,,,,,,,,,,,,,,一 一,1,2024-05-31_00h54.48.586,interaction task chi,2021.2.3,Win32,59.88023952,,,,,,,,,,,,,,,,,小于,大于,,-0.227083302,-0.542592706,1,0,0,LeftButton,"[""LeftButton""]",45,1.5998,space,,,,,,,,,,,,,,,0,24,24,24,1,3,only_sub_wrong.png,0,RandomDot25.png,No answer,20,0.3516,,,,,,,,,,,,
,,,,,,,,,,,,,,,,,,,,,,,,,,,,,,,一 一,1,2024-05-31_00h54.48.586,interaction task chi,2021.2.3,Win32,59.88023952,,,,,,,,,,,,,,,,,大于,小于,,0.289583397,-0.548148261,1,0,0,RightButton,"[""RightButton""]",,,,3.4375,2.0105,space,,,,,,,,,,,,0,25,25,25,1,1,both_wrong.png,1,RandomDot28.png,No answer,21,,,0.5707,,,,,,,,,,
,,,,,,,,,,,,,,,,,,,,,,,,,,,,,,,一 一,1,2024-05-31_00h54.48.586,interaction task chi,2021.2.3,Win32,59.88023952,,,,,,,,,,,,,,,,,大于,小于,,-0.3375,-0.511111111,1,0,0,LeftButton,"[""LeftButton""]",,,,3.140625,1.8436,space,,,,,,,,,,,,0,26,26,26,1,2,only_sub_right.png,1,RandomDot3.png,No answer,20,,,0.3741,,,,,,,,,,
,,,,,,,,,,,,,,,,,,,,,,,,,,,,,,,一 一,1,2024-05-31_00h54.48.586,interaction task chi,2021.2.3,Win32,59.88023952,,,,,,,,,,,,,,,,,大于,小于,,0.265625,-0.479629686,1,0,0,RightButton,"[""RightButton""]",39,2.2426,space,,,,,,,,,,,,,,,0,27,27,27,1,1,both_wrong.png,0,RandomDot12.png,No answer,21,0.4199,,,,,,,,,,,,
,,,,,,,,,,,,,,,,,,,,,,,,,,,,,,,一 一,1,2024-05-31_00h54.48.586,interaction task chi,2021.2.3,Win32,59.88023952,,,,,,,,,,,,,,,,,小于,大于,,-0.328125,-0.494444444,1,0,0,LeftButton,"[""LeftButton""]",33,1.17,space,,,,,,,,,,,,,,,0,28,28,28,1,1,both_wrong.png,0,RandomDot39.png,No answer,21,0.1342,,,,,,,,,,,,
,,,,,,,,,,,,,,,,,,,,,,,,,,,,,,,一 一,1,2024-05-31_00h54.48.586,interaction task chi,2021.2.3,Win32,59.88023952,,,,,,,,,,,,,,,,,大于,小于,,0.317708397,-0.459259372,1,0,0,RightButton,"[""RightButton""]",,,,,,,,,,,,26.74663621,1.8038,space,0.9247,59.57491904,3.4344,0,29,29,29,1,3,only_sub_wrong.png,3,RandomDot20.png,No answer,20,,,,,,,,,,,,,
,,,,,,,,,,,,,,,,,,,,,,,,,,,,,,,一 一,1,2024-05-31_00h54.48.586,interaction task chi,2021.2.3,Win32,59.88023952,,,,,,,,,,,,,,,,,小于,大于,,-0.36875,-0.468518575,1,0,0,LeftButton,"[""LeftButton""]",,,,,,,75,1.5353,space,56,4.6967,,,,,,,0,30,30,30,1,3,only_sub_wrong.png,2,RandomDot15.png,No answer,21,,0.3289,,,,,,,,,,,
,,,,,,,,,,,,,,,,,,,,,,,,,,,,,,,一 一,1,2024-05-31_00h54.48.586,interaction task chi,2021.2.3,Win32,59.88023952,,,,,,,,,,,,,,,,,大于,小于,,0.317708397,-0.462963019,1,0,0,RightButton,"[""RightButton""]",,,,,,,,,,,,31.58670676,1.9501,space,0.1864,58.41751484,3.2492,0,31,31,31,1,3,only_sub_wrong.png,3,RandomDot20.png,No answer,19,,,,,,,,,,,,,
,,,,,,,,,,,,,,,,,,,,,,,,,,,,,,,一 一,1,2024-05-31_00h54.48.586,interaction task chi,2021.2.3,Win32,59.88023952,,,,,,,,,,,,,,,,,大于,小于,,0.340625,-0.529629686,1,0,0,RightButton,"[""RightButton""]",,,,,,,39,1.8728,space,51,4.1525,,,,,,,0,32,32,32,1,3,only_sub_wrong.png,2,RandomDot39.png,No answer,20,,0.6008,,,,,,,,,,,
,,,,,,,,,,,,,,,,,,,,,,,,,,,,,,,一 一,1,2024-05-31_00h54.48.586,interaction task chi,2021.2.3,Win32,59.88023952,,,,,,,,,,,,,,,,,大于,小于,,0.303125,-0.529629686,1,0,0,RightButton,"[""RightButton""]",,,,3.041666985,1.7545,space,,,,,,,,,,,,0,33,33,33,1,2,only_sub_right.png,1,RandomDot4.png,No answer,19,,,0.6168,,,,,,,,,,
,,,,,,,,,,,,,,,,,,,,,,,,,,,,,,,一 一,1,2024-05-31_00h54.48.586,interaction task chi,2021.2.3,Win32,59.88023952,,,,,,,,,,,,,,,,,小于,大于,,-0.25625,-0.503703817,1,0,0,LeftButton,"[""LeftButton""]",,,,,,,36,2.0617,space,51,3.7617,,,,,,,0,34,34,34,1,2,only_sub_right.png,2,RandomDot5.png,No answer,21,,0.3058,,,,,,,,,,,
,,,,,,,,,,,,,,,,,,,,,,,,,,,,,,,一 一,1,2024-05-31_00h54.48.586,interaction task chi,2021.2.3,Win32,59.88023952,,,,,,,,,,,,,,,,,小于,大于,,-0.380208302,-0.533333333,1,0,0,LeftButton,"[""LeftButton""]",,,,,,,61,2.2683,space,57,5.1559,,,,,,,0,35,35,35,1,3,only_sub_wrong.png,2,RandomDot15.png,No answer,20,,0.6382,,,,,,,,,,,
,,,,,,,,,,,,,,,,,,,,,,,,,,,,,,,一 一,1,2024-05-31_00h54.48.586,interaction task chi,2021.2.3,Win32,59.88023952,,,,,,,,,,,,,,,,,小于,大于,,-0.234375,-0.53703715,1,0,0,LeftButton,"[""LeftButton""]",28,1.5234,space,,,,,,,,,,,,,,,0,36,36,36,1,2,only_sub_right.png,0,RandomDot37.png,No answer,21,0.4143,,,,,,,,,,,,
,,,,,,,,,,,,,,,,,,,,,,,,,,,,,,,一 一,1,2024-05-31_00h54.48.586,interaction task chi,2021.2.3,Win32,59.88023952,,,,,,,,,,,,,,,,,小于,大于,,0.255208397,-0.485185242,1,0,0,RightButton,"[""RightButton""]",,,,1.552083492,2.6703,space,,,,,,,,,,,,0,37,37,37,1,2,only_sub_right.png,1,RandomDot34.png,No answer,19,,,0.3697,,,,,,,,,,
,,,,,,,,,,,,,,,,,,,,,,,,,,,,,,,一 一,1,2024-05-31_00h54.48.586,interaction task chi,2021.2.3,Win32,59.88023952,,,,,,,,,,,,,,,,,小于,大于,,-0.360416651,-0.514814928,1,0,0,LeftButton,"[""LeftButton""]",,,,3.223958492,2.4703,space,,,,,,,,,,,,0,38,38,38,1,3,only_sub_wrong.png,1,RandomDot6.png,No answer,20,,,0.2383,,,,,,,,,,
,,,,,,,,,,,,,,,,,,,,,,,,,,,,,,,一 一,1,2024-05-31_00h54.48.586,interaction task chi,2021.2.3,Win32,59.88023952,,,,,,,,,,,,,,,,,大于,小于,,-0.359375,-0.520370483,1,0,0,LeftButton,"[""LeftButton""]",,,,,,,35,2.1519,space,58,3.9613,,,,,,,0,39,39,39,1,1,both_wrong.png,2,RandomDot16.png,No answer,20,,0.3746,,,,,,,,,,,
,,,,,,,,,,,,,,,,,,,,,,,,,,,,,,,一 一,1,2024-05-31_00h54.48.586,interaction task chi,2021.2.3,Win32,59.88023952,,,,,,,,,,,,,,,,,小于,大于,,-0.2625,-0.542592706,1,0,0,LeftButton,"[""LeftButton""]",,,,,,,,,,,,,,,,,,0,40,40,40,1,4,both_right.png,10,RandomDot41.png,RightButton,5,,,,,,,,,,,,,
,,,,,,,,,,,,,,,,,,,,,,,,,,,,,,,一 一,1,2024-05-31_00h54.48.586,interaction task chi,2021.2.3,Win32,59.88023952,,,,,,,,,,,,,,,,,大于,小于,,0.234375,-0.483333333,1,0,0,RightButton,"[""RightButton""]",,,,,,,,,,,,64.30976752,3.0198,space,0.4145,40.10943403,5.5986,0,41,41,41,1,1,both_wrong.png,3,RandomDot40.png,No answer,21,,,,,,,,,,,,,
,,,,,,,,,,,,,,,,,,,,,,,,,,,,,,,一 一,1,2024-05-31_00h54.48.586,interaction task chi,2021.2.3,Win32,59.88023952,,,,,,,,,,,,,,,,,,,,,,,,,,,,,,,,,,,,,,,,,,,,,,,,,,,,,,,,,,5.581250191,6.1342,5.0125,7.3085,4.962500191,14.635,2.9875,16.9453,space,18.7067